ACCELEROMETER X (m/s²),ACCELEROMETER Y (m/s²),ACCELEROMETER Z (m/s²),GYROSCOPE X (rad/s),GYROSCOPE Y (rad/s),GYROSCOPE Z (rad/s),Time since start in ms ,YYYY-MO-DD HH-MI-SS_SSS,Pitch (Deg),Roll (Deg),Heading (Deg),MagX,MagY,MagZ
0.09988740086555481,-0.015345555730164051,9.748329162597656,-0.0011267922997395827,0.002064453868853653,0.0008851845519975746,0.0,2019-08-07 13:39:46:159,-3.5882586520892223,-3.598196132205426,0,-26.689132690429688,40.18363952636719,-37.18486022949219
0.11186115443706512,0.1498921662569046,9.810592651367188,0.007397404303264255,0.002597216124032102,0.004081758343142595,0.010004997253417969,2019-08-07 13:39:46:169,-7.104887286986781,0.05210545321561799,0,-26.689132690429688,40.18363952636719,-37.18486022949219
0.07115040719509125,0.08044443279504776,9.78664493560791,-0.005388890341167176,-0.004328693453362062,0.0011515656795867992,0.019997358322143555,2019-08-07 13:39:46:179,-10.552030007419983,3.644667882716282,0,-26.689132690429688,40.18363952636719,-37.18486022949219
0.04480816051363945,0.14510267972946167,9.77467155456543,0.0012706381086377639,-0.005127837096204061,-0.00018034003963255039,0.0299990177154541,2019-08-07 13:39:46:189,-13.932856690681414,7.154051349463973,0,-26.689132690429688,40.18363952636719,-37.18486022949219
-0.07253457605838776,0.2289189100265503,9.743539810180664,-0.00272507906527493,-0.005926980478971734,-0.00018034003963255039,0.03999924659729004,2019-08-07 13:39:46:199,-10.059401958412046,10.585582804550967,0,-26.689132690429688,40.18363952636719,-37.18486022949219
-0.04619232565164566,0.14749743044376373,9.839329719543457,-0.004856128085988727,0.003929121761978225,-0.004708819387450467,0.05000615119934082,2019-08-07 13:39:46:209,-6.265801285715649,13.959423067755129,0,-26.689132690429688,40.18363952636719,-37.18486022949219
-0.03661332651972771,0.14749743044376373,9.8944091796875,-0.004323365830810277,-0.005127837096204061,-0.00604072502539659,0.060005903244018555,2019-08-07 13:39:46:219,-2.541846390884345,17.265581041156693,0,-26.689132690429688,40.18363952636719,-37.18486022949219
-0.13000856339931488,0.17144492268562317,9.853697776794434,-0.004056984703221053,-0.006459742734150184,-0.013765778765781403,0.07000327110290527,2019-08-07 13:39:46:229,1.0974985167255138,20.502610987714093,0,-26.689132690429688,40.18363952636719,-37.18486022949219
-0.15635080635547638,0.07326018065214157,9.841724395751953,-0.004856128085988727,0.002330834996442878,-0.015097683883578876,0.07999873161315918,2019-08-07 13:39:46:239,4.656037293758825,23.686754389506092,0,-26.689132690429688,40.18363952636719,-37.18486022949219
-0.22340381145477295,0.0038124416023492813,9.949487686157227,-0.0019259356825072562,0.0033963595067997765,-0.017761495159471122,0.09000396728515625,2019-08-07 13:39:46:249,8.135282660978273,26.813662186613296,0,-26.689132690429688,40.18363952636719,-37.18486022949219
-0.2545355558395386,-0.14705678820610046,9.930330276489258,-0.008052702137208073,-0.004062312325772837,-0.019093400277268593,0.10000276565551758,2019-08-07 13:39:46:259,11.54549188465664,22.698878434528254,0,-25.789499282836914,40.18363952636719,-36.28522491455078
-0.22579854726791382,-0.015345555730164051,9.971040725708008,-0.0019259356825072562,-0.0048614559686148365,-0.017761495159471122,0.11000227928161621,2019-08-07 13:39:46:269,14.891366293390796,18.64774580046346,0,-25.789499282836914,40.18363952636719,-36.28522491455078
-0.22340381145477295,-0.1183197945356369,9.863277435302734,0.0010042569160299579,-0.004062312325772837,-0.018027875766911696,0.12006664276123047,2019-08-07 13:39:46:279,18.169884013512977,14.687969100791037,0,-25.789499282836914,40.18363952636719,-36.28522491455078
-0.19706155359745026,-0.14945153892040253,9.824960708618164,-0.0029914601928641544,0.0031299783792105513,-0.017761495159471122,0.13002419471740723,2019-08-07 13:39:46:289,21.38175549694248,10.813311941110468,0,-25.789499282836914,40.18363952636719,-36.28522491455078
-0.10127156972885132,-0.099161796271801,9.882434844970703,0.003135306001762336,0.0028635972516213265,-0.014564921628400425,0.14000368118286133,2019-08-07 13:39:46:299,24.5407732675426,7.00678674229791,0,-25.789499282836914,40.18363952636719,-36.28522491455078
-0.08211357146501541,-0.11353029310703278,9.887224197387695,-0.0011267922997395827,-0.0013985010498805918,-0.0158968277864952,0.15007853507995605,2019-08-07 13:39:46:309,27.64123230617041,3.2804458612292833,0,-25.789499282836914,40.18363952636719,-36.28522491455078
-0.12521906197071075,-0.06803005188703537,9.846513748168945,0.00020511348449834825,-0.0013985010498805918,-0.011368348097329731,0.15999865531921387,2019-08-07 13:39:46:319,30.674614710657657,-0.37736024527481726,0,-25.789499282836914,40.18363952636719,-36.28522491455078
-0.09169257432222366,-0.0464773029088974,9.829751014709473,0.004467211899782784,0.008723982578732917,-0.00950367968405651,0.17000389099121094,2019-08-07 13:39:46:329,33.645532480217476,-3.9669045773744993,0,-25.789499282836914,40.18363952636719,-36.28522491455078
-0.10127156972885132,-0.05126680061221123,9.839329719543457,0.00047149462834221814,0.002597216124032102,-0.0068398684081642635,0.18000411987304688,2019-08-07 13:39:46:339,36.55936951287824,-7.481860615920475,0,-25.789499282836914,40.18363952636719,-36.28522491455078
-0.09408731758594513,-0.04887205362319946,9.868066787719727,0.003135306001762336,-0.0027304066878267143,0.00035242226430983473,0.1900029182434082,2019-08-07 13:39:46:349,39.418789629633714,-10.928308508963358,0,-25.789499282836914,40.18363952636719,-36.28522491455078
-0.08690307289361954,-0.041687801480293274,9.820171356201172,0.003668068256940785,-0.0019312633050590406,0.004081758343142595,0.20000505447387695,2019-08-07 13:39:46:359,42.22135801735599,-14.306937874638118,0,-25.789499282836914,40.18363952636719,-36.28522491455078
-0.11324531584978104,-0.05605630204081535,9.789039611816406,0.002336162618994662,0.001531691613675204,0.004348139470731819,0.21000289916992188,2019-08-07 13:39:46:369,44.962814971502816,-17.61554864678708,0,-25.789499282836914,40.18363952636719,-36.28522491455078
-0.0629555732011795,-0.03210880234837532,9.781855583190918,0.003135306001762336,0.003662740634389001,0.00674556961903484,0.22000622749328613,2019-08-07 13:39:46:379,47.654126405404966,-20.861237291667642,0,-25.63956069946289,39.43394470214844,-35.53553009033203
-0.11803481727838516,0.001417691819369793,9.834540367126465,0.003668068256940785,0.0052610273999243486,0.008343856384570188,0.23002076148986816,2019-08-07 13:39:46:389,50.28433282821396,-16.84624034333457,0,-25.63956069946289,39.43394470214844,-35.53553009033203
-0.12282431870698929,-0.005766557063907385,9.860882759094238,0.0034016871293515603,-0.0008657387296835611,0.0038153772155533703,0.23999953269958496,2019-08-07 13:39:46:399,52.86485879396517,-20.11055140314201,0,-25.63956069946289,39.43394470214844,-35.53553009033203
-0.16592980921268463,0.03015468828380108,9.769882202148438,0.0055327364101396825,0.0012653104860859794,0.004348139470731819,0.2500033378601074,2019-08-07 13:39:46:409,55.38739073753262,-16.114985032171102,0,-25.63956069946289,39.43394470214844,-35.53553009033203
-0.10366632044315338,0.027759937569499016,9.798619270324707,0.001803400363816213,0.0004661670057904337,0.007811094129391739,0.2600061893463135,2019-08-07 13:39:46:419,57.86725812054733,-12.196944649832897,0,-25.63956069946289,39.43394470214844,-35.53553009033203
-0.08450832217931747,0.13791842758655548,9.81538200378418,0.0028689248741731116,-0.0021976444326482656,0.005680045108677942,0.2700009346008301,2019-08-07 13:39:46:429,60.301280441753825,-8.370716299452727,0,-25.63956069946289,39.43394470214844,-35.53553009033203
-0.11085056513547897,-0.00337180751375854,9.777066230773926,-0.0032578413204533796,-0.005926980478971734,-0.0015122457263426093,0.2799978256225586,2019-08-07 13:39:46:439,62.68559016776923,-11.801078077910644,0,-25.63956069946289,39.43394470214844,-35.53553009033203
-0.17790356278419495,0.09960243105888367,9.78664493560791,0.0020697814914054373,0.001531691613675204,-0.00018034003963255039,0.29000329971313477,2019-08-07 13:39:46:449,65.01018946516761,-7.977881350922266,0,-25.63956069946289,39.43394470214844,-35.53553009033203
-0.13240331411361694,0.1307341754436493,9.827356338500977,0.0034016871293515603,-0.00033297644199582136,-0.0033769137495043436,0.2999999523162842,2019-08-07 13:39:46:459,67.29473466910837,-4.235476442745507,0,-25.63956069946289,39.43394470214844,-35.53553009033203
-0.21861431002616882,0.1043919250369072,9.851303100585938,-0.005122509213577951,-0.005394218223793286,-0.011634728704770307,0.31002354621887207,2019-08-07 13:39:46:469,69.52645065809814,-0.560026387204358,0,-25.63956069946289,39.43394470214844,-35.53553009033203
-0.18508781492710114,0.10918142646551132,9.925540924072266,-0.0024586979376857053,-0.0013985010498805918,-0.007372630663342713,0.32000231742858887,2019-08-07 13:39:46:479,71.71533910075198,3.0399471472255297,0,-25.63956069946289,39.43394470214844,-35.53553009033203
-0.2138248085975647,0.12115518003702164,9.798619270324707,0.001803400363816213,-0.004595074841025611,-0.012433872607686629,0.3300037384033203,2019-08-07 13:39:46:489,73.85861068908159,6.563967484418271,0,-25.63956069946289,39.43394470214844,-35.53553009033203
-0.21861431002616882,0.025365188717842102,9.827356338500977,-0.005921652596345625,-0.004595074841025611,-0.014564921628400425,0.3400001525878906,2019-08-07 13:39:46:499,75.95853043374035,10.033054249564897,0,-25.63956069946289,39.43394470214844,-35.53553009033203
-0.180298313498497,0.04452318698167801,9.805803298950195,-0.0005940299795425521,0.0004661670057904337,-0.017761495159471122,0.34999895095825195,2019-08-07 13:39:46:509,78.01803064425347,13.427523684886292,0,-25.939437866210938,39.733821868896484,-35.53553009033203
-0.180298313498497,0.0517074353992939,9.86567211151123,-0.0008604111071317767,-0.004328693453362062,-0.014564921628400425,0.3600025177001953,2019-08-07 13:39:46:519,80.03916181080497,16.75345064638274,0,-25.939437866210938,39.733821868896484,-35.53553009033203
-0.2138248085975647,-0.02492455393075943,9.827356338500977,-0.004856128085988727,-0.006459742734150184,-0.0148313032761383,0.370013952255249,2019-08-07 13:39:46:529,82.01708082214968,12.824017773659108,0,-25.939437866210938,39.733821868896484,-35.53553009033203
-0.19706155359745026,-0.00816130731254816,9.755513191223145,-0.00911822664756497,0.0028635972516213265,-0.014564921628400425,0.38000011444091797,2019-08-07 13:39:46:539,83.95198915543858,8.973608859806706,0,-25.939437866210938,39.733821868896484,-35.53553009033203
-0.12521906197071075,0.013391440734267235,9.841724395751953,0.0015370192362269886,-0.0008657387296835611,-0.01296663486286508,0.39000487327575684,2019-08-07 13:39:46:549,85.85885669107998,12.391714013863494,0,-25.939437866210938,39.733821868896484,-35.53553009033203
-0.21861431002616882,-0.00816130731254816,9.875250816345215,0.003668068256940785,0.001531691613675204,-0.010835585842151283,0.40000367164611816,2019-08-07 13:39:46:559,87.71545594461162,8.542767396589074,0,-25.939437866210938,39.733821868896484,-35.53553009033203
-0.11324531584978104,-0.04408255219459534,9.784250259399414,0.0015370192362269886,-0.004062312325772837,-0.00950367968405651,0.4099998474121094,2019-08-07 13:39:46:569,89.55016441995174,4.776212186884755,0,-25.939437866210938,39.733821868896484,-35.53553009033203
-0.12042956799268723,-0.022529805079102516,9.791434288024902,-0.0019259356825072562,0.0033963595067997765,-0.007639012311080588,0.4199974536895752,2019-08-07 13:39:46:579,91.34316107948416,1.0844058082925598,0,-25.939437866210938,39.733821868896484,-35.53553009033203
-0.15874555706977844,0.001417691819369793,9.812987327575684,-0.00032764881944403687,-6.659528596096748e-05,-0.003643294877093568,0.43000197410583496,2019-08-07 13:39:46:589,93.097799307734,4.662736198118818,0,-25.939437866210938,39.733821868896484,-35.53553009033203
-0.10845582187175751,-0.041687801480293274,9.772276878356934,0.0007378757884407334,0.0028635972516213265,-0.005774343897807364,0.4400012493133545,2019-08-07 13:39:46:599,94.82151832035876,0.9739555483913542,0,-25.939437866210938,39.733821868896484,-35.53553009033203
-0.09408731758594513,0.03015468828380108,9.841724395751953,0.006331879792907356,-0.004062312325772837,-0.0020450079815210586,0.45000195503234863,2019-08-07 13:39:46:609,96.51641442810696,4.5474098116123365,0,-25.939437866210938,39.733821868896484,-35.53553009033203
-0.0892978236079216,-0.00816130731254816,9.789039611816406,0.0007378757884407334,-0.0016648821774698163,0.0014179468071760237,0.46000075340270996,2019-08-07 13:39:46:619,98.17656784618424,0.8570027201755885,0,-25.939437866210938,39.733821868896484,-35.53553009033203
-0.12521906197071075,-0.03210880234837532,9.880040168762207,-0.0011267922997395827,0.002597216124032102,-0.00018034003963255039,0.4700026512145996,2019-08-07 13:39:46:629,99.79705538830665,-2.7557804633026257,0,-25.189743041992188,39.88376235961914,-35.08571243286133
-0.04858707636594772,0.02297043986618519,9.827356338500977,-0.00032764881944403687,0.001531691613675204,8.60411123386422e-05,0.48000168800354004,2019-08-07 13:39:46:639,101.39458888703915,0.896840647049427,0,-25.189743041992188,39.88376235961914,-35.08571243286133
-0.09648206830024719,0.03733893856406212,9.827356338500977,0.0028689248741731116,-0.004328693453362062,-0.0009794834711641602,0.48999762535095215,2019-08-07 13:39:46:649,102.95787677955258,4.47293971768843,0,-25.189743041992188,39.88376235961914,-35.08571243286133
-0.07732407003641129,0.020575689151883125,9.796224594116211,0.00020511348449834825,-0.00033297644199582136,0.006479188491445616,0.5000016689300537,2019-08-07 13:39:46:659,104.48986147261691,7.9809588634633215,0,-25.189743041992188,39.88376235961914,-35.08571243286133
-0.11085056513547897,-0.00337180751375854,9.793828964233398,-0.0008604111071317767,0.005793789655102798,0.004348139470731819,0.5100154876708984,2019-08-07 13:39:46:669,105.98383715472973,4.222217987879331,0,-25.189743041992188,39.88376235961914,-35.08571243286133
-0.06774507462978363,0.06368118524551392,9.841724395751953,0.00047149462834221814,0.0041955028895674495,0.0038153772155533703,0.5199987888336182,2019-08-07 13:39:46:679,107.4539208416219,7.730094747461342,0,-25.189743041992188,39.88376235961914,-35.08571243286133
-0.05816607549786568,0.0517074353992939,9.820171356201172,-0.0011267922997395827,0.0033963595067997765,0.004348139470731819,0.530003547668457,2019-08-07 13:39:46:689,108.89614714725329,11.170092162147574,0,-25.189743041992188,39.88376235961914,-35.08571243286133
-0.06774507462978363,0.04931268468499184,9.877645492553711,0.0015370192362269886,0.003929121761978225,-0.0007131023435749355,0.5400032997131348,2019-08-07 13:39:46:699,110.30815901145469,14.540106539463757,0,-25.189743041992188,39.88376235961914,-35.08571243286133
-0.050981827080249786,0.04691793769598007,9.791434288024902,-0.0013931734273288073,-0.0008657387296835611,0.0008851845519975746,0.5499961376190186,2019-08-07 13:39:46:709,111.69651511973372,17.84459523399674,0,-25.189743041992188,39.88376235961914,-35.08571243286133
-0.05337657779455185,0.013391440734267235,9.85609245300293,0.00020511348449834825,0.00019978586194656375,-0.002844151494325895,0.559999942779541,2019-08-07 13:39:46:719,113.05626684425451,21.086031163725526,0,-25.189743041992188,39.88376235961914,-35.08571243286133
-0.02463958039879799,0.03254943713545799,9.8034086227417,0.0015370192362269886,-0.004328693453362062,0.00035242226430983473,0.5700008869171143,2019-08-07 13:39:46:729,114.3946921900166,24.259642751114967,0,-25.189743041992188,39.88376235961914,-35.08571243286133
-0.05337657779455185,-0.010556057095527649,9.8034086227417,-0.004056984703221053,-0.0021976444326482656,0.0016843279347652483,0.5799989700317383,2019-08-07 13:39:46:739,115.70179298388138,20.17796134263956,0,-25.189743041992188,39.88376235961914,-35.08571243286133
-0.043797578662633896,0.03015468828380108,9.827356338500977,0.003668068256940785,0.0031299783792105513,-0.004975200515039691,0.5900030136108398,2019-08-07 13:39:46:749,116.98089196679177,23.36882550135043,0,-25.189743041992188,39.88376235961914,-35.08571243286133
-0.06056082621216774,-0.00816130731254816,9.863277435302734,-0.0056552714687564,-0.0005993576020943366,-0.007106249535753488,0.6000006198883057,2019-08-07 13:39:46:759,118.23457471689362,19.305571838930344,0,-26.239316940307617,40.33357620239258,-35.83540725708008
-0.06056082621216774,-0.01774030551314354,9.796224594116211,-0.0005940299795425521,-0.001132119922291367,-0.0068398684081642635,0.6099989414215088,2019-08-07 13:39:46:769,119.46343477353838,15.321869067178362,0,-26.239316940307617,40.33357620239258,-35.83540725708008
-0.04858707636594772,-0.01774030551314354,9.834540367126465,0.0007378757884407334,0.001531691613675204,-0.011101966449591856,0.6199996471405029,2019-08-07 13:39:46:779,120.6676446795036,11.417084429385323,0,-26.239316940307617,40.33357620239258,-35.83540725708008
-0.05816607549786568,0.001417691819369793,9.84411907196045,-0.003524222448042604,0.006060170782692022,-0.007106249535753488,0.6300044059753418,2019-08-07 13:39:46:789,121.84411658125474,14.790557500620471,0,-26.239316940307617,40.33357620239258,-35.83540725708008
-0.0629555732011795,-0.07521429657936096,9.78664493560791,-0.004056984703221053,-0.0013985010498805918,-0.00897091742887806,0.6400041580200195,2019-08-07 13:39:46:799,123.0006481373509,10.905830933630588,0,-26.239316940307617,40.33357620239258,-35.83540725708008
-0.06535032391548157,-0.00816130731254816,9.822566032409668,-0.0005940299795425521,0.005793789655102798,-0.008171774566259036,0.6502182483673096,2019-08-07 13:39:46:810,124.1296885652711,7.089007113288752,0,-26.239316940307617,40.33357620239258,-35.83540725708008
-0.06056082621216774,0.01818094030022621,9.824960708618164,-0.0037906035756318283,0.00019978586194656375,-0.0068398684081642635,0.6599957942962646,2019-08-07 13:39:46:819,125.23992180272276,10.547187545287205,0,-26.239316940307617,40.33357620239258,-35.83540725708008
-0.07253457605838776,0.001417691819369793,9.8034086227417,0.004200830512119234,0.004728265144745899,-0.004708819387450467,0.6700015068054199,2019-08-07 13:39:46:829,126.32398855955455,13.933717973025958,0,-26.239316940307617,40.33357620239258,-35.83540725708008
-0.08211357146501541,0.05649693310260773,9.767487525939941,0.0007378757884407334,0.0041955028895674495,-0.006307106152985815,0.6799991130828857,2019-08-07 13:39:46:839,127.38552029667066,17.24800128518907,0,-26.239316940307617,40.33357620239258,-35.83540725708008
-0.09648206830024719,-0.00816130731254816,9.848908424377441,0.006065498665318131,-0.0013985010498805918,-0.0041760571322720175,0.6900029182434082,2019-08-07 13:39:46:849,128.42737016445156,13.300583758112609,0,-26.239316940307617,40.33357620239258,-35.83540725708008
-0.09169257432222366,0.010996690951287746,9.846513748168945,-0.004589746958399502,0.00019978586194656375,-0.0031105326219151193,0.7000186443328857,2019-08-07 13:39:46:859,129.4480397337798,16.63587350230143,0,-26.239316940307617,40.33357620239258,-35.83540725708008
-0.1156400665640831,0.01578618958592415,9.829751014709473,0.0012706381086377639,-0.0008657387296835611,-0.0023113892391474454,0.710003137588501,2019-08-07 13:39:46:869,130.44608403204927,19.900603383705338,0,-26.239316940307617,40.33357620239258,-35.83540725708008
-0.14437706768512726,-0.01774030551314354,9.820171356201172,0.002336162618994662,-0.00033297644199582136,-0.002844151494325895,0.7200007438659668,2019-08-07 13:39:46:879,131.42050312916624,15.903349991524234,0,-26.83907127380371,40.93333435058594,-35.53553009033203
-0.10606107115745544,0.001417691819369793,9.74593448638916,0.00047149462834221814,0.0004661670057904337,-0.0031105326219151193,0.7300028800964355,2019-08-07 13:39:46:889,132.37936121396083,19.184851500999613,0,-26.83907127380371,40.93333435058594,-35.53553009033203
-0.10606107115745544,-0.00337180751375854,9.808197975158691,0.00047149462834221814,-0.003529550070594388,-0.0031105326219151193,0.7400000095367432,2019-08-07 13:39:46:899,133.32136436876394,15.20128373982893,0,-26.83907127380371,40.93333435058594,-35.53553009033203
-0.12761381268501282,-0.020135056227445602,9.8034086227417,-0.0013931734273288073,-0.0005993576020943366,-0.0012458645987533845,0.7500007152557373,2019-08-07 13:39:46:909,134.2403577705626,11.300393958686598,0,-26.83907127380371,40.93333435058594,-35.53553009033203
-0.09648206830024719,0.08044443279504776,9.789039611816406,0.0034016871293515603,-0.001132119922291367,-0.0017786268539318336,0.7600021362304688,2019-08-07 13:39:46:919,135.14489245945543,14.663059064858832,0,-26.83907127380371,40.93333435058594,-35.53553009033203
-0.15874555706977844,0.027759937569499016,9.772276878356934,-0.0013931734273288073,0.004994646272335123,-0.0020450079815210586,0.7699966430664062,2019-08-07 13:39:46:929,136.0205784978727,17.967324545032234,0,-26.83907127380371,40.93333435058594,-35.53553009033203
-0.1419823169708252,-0.022529805079102516,9.868066787719727,0.0010042569160299579,0.004994646272335123,-0.0017786268539318336,0.7800047397613525,2019-08-07 13:39:46:939,136.88087380776878,14.010029946545574,0,-26.83907127380371,40.93333435058594,-35.53553009033203
-0.11803481727838516,0.020575689151883125,9.848908424377441,0.0007378757884407334,0.0033963595067997765,0.001950709062354473,0.7903687953948975,2019-08-07 13:39:46:950,137.72754721833604,17.327005980244014,0,-26.83907127380371,40.93333435058594,-35.53553009033203
-0.13000856339931488,0.0780496820807457,9.820171356201172,-0.0032578413204533796,-0.0037959311981836125,8.60411123386422e-05,0.799994945526123,2019-08-07 13:39:46:959,138.55987819110985,20.573119322738222,0,-26.83907127380371,40.93333435058594,-35.53553009033203
-0.17311406135559082,0.0038124416023492813,9.860882759094238,0.003135306001762336,0.0012653104860859794,-0.0033769137495043436,0.8100008964538574,2019-08-07 13:39:46:969,139.36785452453515,23.75945238157306,0,-26.83907127380371,40.93333435058594,-35.53553009033203
-0.14437706768512726,0.01818094030022621,9.832145690917969,0.0015370192362269886,-0.0008657387296835611,-0.0023113892391474454,0.8200018405914307,2019-08-07 13:39:46:979,140.16415796131585,26.881281270886113,0,-26.83907127380371,40.93333435058594,-35.53553009033203
-0.13958756625652313,0.01578618958592415,9.836935043334961,0.0007378757884407334,0.0009989292934781736,0.00035242226430983473,0.8300039768218994,2019-08-07 13:39:46:989,140.94405416404987,29.94140229136745,0,-26.83907127380371,40.93333435058594,-35.53553009033203
-0.13958756625652313,0.03733893856406212,9.81538200378418,0.00047149462834221814,-0.0027304066878267143,-0.0033769137495043436,0.8400492668151855,2019-08-07 13:39:46:999,141.7104178243569,32.937949117982484,0,-26.83907127380371,40.93333435058594,-35.53553009033203
-0.15635080635547638,0.008601941168308258,9.78664493560791,0.00020511348449834825,0.0031299783792105513,-0.009770061331794384,0.8500003814697266,2019-08-07 13:39:47:009,142.456155064697,35.878068329008116,0,-25.789499282836914,40.483516693115234,-36.88498306274414
-0.15156131982803345,0.03973368555307388,9.839329719543457,0.004999974154961233,0.0031299783792105513,-0.007372630663342713,0.8600010871887207,2019-08-07 13:39:47:019,143.18762450554857,38.75307181570227,0,-25.789499282836914,40.483516693115234,-36.88498306274414
-0.1156400665640831,0.04691793769598007,9.839329719543457,0.003135306001762336,0.002330834996442878,-0.010569204194413408,0.8700025081634521,2019-08-07 13:39:47:029,143.90909592640298,41.57078550762163,0,-25.789499282836914,40.483516693115234,-36.88498306274414
-0.10366632044315338,0.010996690951287746,9.8034086227417,0.004733593027372009,0.0004661670057904337,-0.0015122457263426093,0.8800027370452881,2019-08-07 13:39:47:039,144.6185351963984,44.33542643335808,0,-25.789499282836914,40.483516693115234,-36.88498306274414
-0.17071931064128876,0.008601941168308258,9.822566032409668,0.0007378757884407334,0.0009989292934781736,-0.0031105326219151193,0.8899989128112793,2019-08-07 13:39:47:049,145.30568943845836,47.047300231515536,0,-25.789499282836914,40.483516693115234,-36.88498306274414
-0.13240331411361694,-0.0009770578471943736,9.812987327575684,0.0012706381086377639,0.0007325481658889489,-0.00257777036673667,0.8999984264373779,2019-08-07 13:39:47:059,145.98370383214646,42.50575489634469,0,-25.789499282836914,40.483516693115234,-36.88498306274414
-0.14916656911373138,0.020575689151883125,9.817776679992676,0.00047149462834221814,-0.001132119922291367,-0.00604072502539659,0.9100017547607422,2019-08-07 13:39:47:069,146.64725650095846,45.25297340786171,0,-25.789499282836914,40.483516693115234,-36.88498306274414
-0.13000856339931488,0.01818094030022621,9.84411907196045,0.0015370192362269886,-0.0019312633050590406,-0.005241581642628916,0.9200029373168945,2019-08-07 13:39:47:079,147.30026298976412,47.94493443333795,0,-25.789499282836914,40.483516693115234,-36.88498306274414
-0.12042956799268723,0.008601941168308258,9.846513748168945,-0.0011267922997395827,-0.001132119922291367,-0.00018034003963255039,0.9300012588500977,2019-08-07 13:39:47:089,147.94087867788855,50.58566725609987,0,-25.789499282836914,40.483516693115234,-36.88498306274414
-0.134798064827919,-0.00337180751375854,9.810592651367188,0.0020697814914054373,0.006592933558019122,-0.0068398684081642635,0.9400007724761963,2019-08-07 13:39:47:099,148.56261541071504,45.97318562830133,0,-25.789499282836914,40.483516693115234,-36.88498306274414
-0.134798064827919,0.001417691819369793,9.887224197387695,0.00020511348449834825,-0.003263168943005164,-0.0041760571322720175,0.9500017166137695,2019-08-07 13:39:47:109,149.17757359925625,48.65344242540197,0,-25.789499282836914,40.483516693115234,-36.88498306274414
-0.134798064827919,-0.010556057095527649,9.848908424377441,-6.126766340918298e-05,0.0007325481658889489,-0.007106249535753488,0.9600012302398682,2019-08-07 13:39:47:119,149.77792811396256,44.081636168446025,0,-25.789499282836914,40.483516693115234,-36.88498306274414
-0.11803481727838516,0.04931268468499184,9.880040168762207,0.0015370192362269886,0.0028635972516213265,-0.0015122457263426093,0.9700117111206055,2019-08-07 13:39:47:129,150.36707059277944,46.79342012624962,0,-26.08937644958496,40.78339385986328,-35.68547058105469
-0.08211357146501541,0.008601941168308258,9.781855583190918,0.0028689248741731116,0.0017980727412644285,-0.0031105326219151193,0.980156660079956,2019-08-07 13:39:47:139,150.94908579398768,49.45490978469169,0,-26.08937644958496,40.78339385986328,-35.68547058105469
-0.12521906197071075,0.03733893856406212,9.781855583190918,0.002336162618994662,-6.659528596096748e-05,-0.0041760571322720175,0.9899871349334717,2019-08-07 13:39:47:149,151.51547259400581,52.060147948856496,0,-26.08937644958496,40.78339385986328,-35.68547058105469
-0.14677181839942932,0.042128436267375946,9.8034086227417,-6.126766340918298e-05,0.004728265144745899,-0.002844151494325895,1.000004768371582,2019-08-07 13:39:47:159,152.0653487424688,54.61405511046296,0,-26.08937644958496,40.78339385986328,-35.68547058105469
-0.12521906197071075,0.001417691819369793,9.863277435302734,0.0034016871293515603,0.0004661670057904337,-0.003909676004682793,1.0100030899047852,2019-08-07 13:39:47:169,152.60923289008255,57.11969957871681,0,-26.08937644958496,40.78339385986328,-35.68547058105469
-0.10127156972885132,0.027759937569499016,9.784250259399414,-0.0013931734273288073,-0.0016648821774698163,-0.004442438259861242,1.0200059413909912,2019-08-07 13:39:47:179,153.14612298874448,59.5748368848517,0,-26.08937644958496,40.78339385986328,-35.68547058105469
-0.09169257432222366,-0.0009770578471943736,9.81538200378418,-0.0013931734273288073,0.0004661670057904337,-0.006573487280575038,1.029999017715454,2019-08-07 13:39:47:189,153.67223444405408,54.78423593901465,0,-26.08937644958496,40.78339385986328,-35.68547058105469
-0.06535032391548157,0.008601941168308258,9.820171356201172,0.0012706381086377639,0.0012653104860859794,-0.007106249535753488,1.0399978160858154,2019-08-07 13:39:47:199,154.19045375506317,57.28683408431868,0,-26.08937644958496,40.78339385986328,-35.68547058105469
-0.09169257432222366,0.0038124416023492813,9.877645492553711,-0.0013931734273288073,-0.0013985010498805918,-0.010036441939234959,1.0500013828277588,2019-08-07 13:39:47:209,154.69679317421955,59.741437661466136,0,-26.08937644958496,40.78339385986328,-35.68547058105469
-0.09169257432222366,0.01578618958592415,9.808197975158691,0.002336162618994662,-0.0021976444326482656,-0.004975200515039691,1.0600042343139648,2019-08-07 13:39:47:219,155.19337928287493,62.14345244478479,0,-26.08937644958496,40.78339385986328,-35.68547058105469
-0.08450832217931747,0.020575689151883125,9.841724395751953,-0.00032764881944403687,0.0012653104860859794,-0.003909676004682793,1.070002794265747,2019-08-07 13:39:47:229,155.67896189273992,64.49837162857249,0,-26.08937644958496,40.78339385986328,-35.68547058105469
-0.11803481727838516,-0.012950805947184563,9.853697776794434,-6.126766340918298e-05,0.0012653104860859794,-0.0068398684081642635,1.0799989700317383,2019-08-07 13:39:47:239,156.15094649576469,59.60994467112562,0,-26.08937644958496,40.78339385986328,-35.68547058105469
-0.11324531584978104,0.034944187849760056,9.882434844970703,0.0007378757884407334,-0.0021976444326482656,-0.00257777036673667,1.0899994373321533,2019-08-07 13:39:47:249,156.61603083655285,62.01327951325093,0,-26.08937644958496,40.78339385986328,-35.68547058105469
-0.09169257432222366,0.03254943713545799,9.860882759094238,-0.0013931734273288073,-0.00246402556023749,-0.007106249535753488,1.1000041961669922,2019-08-07 13:39:47:259,157.07443930186562,64.37001406196394,0,-26.38925552368164,40.483516693115234,-35.68547058105469
-0.0701398253440857,0.03973368555307388,9.832145690917969,-0.004589746958399502,-0.0013985010498805918,-0.007106249535753488,1.1100013256072998,2019-08-07 13:39:47:269,157.52556103861048,66.68055932659661,0,-26.38925552368164,40.483516693115234,-35.68547058105469
-0.08211357146501541,0.08044443279504776,9.8034086227417,0.0015370192362269886,-0.0013985010498805918,-0.003643294877093568,1.1200151443481445,2019-08-07 13:39:47:279,157.96623816905586,68.93668101428966,0,-26.38925552368164,40.483516693115234,-35.68547058105469
-0.07732407003641129,0.03733893856406212,9.81538200378418,-0.00032764881944403687,0.0007325481658889489,-0.007106249535753488,1.1300013065338135,2019-08-07 13:39:47:289,158.39747548999668,71.15377192884796,0,-26.38925552368164,40.483516693115234,-35.68547058105469
-0.07492932677268982,0.01578618958592415,9.839329719543457,-6.126766340918298e-05,0.002064453868853653,-0.007372630663342713,1.1400034427642822,2019-08-07 13:39:47:299,158.8196402362928,73.32889239754633,0,-26.38925552368164,40.483516693115234,-35.68547058105469
-0.06535032391548157,-0.005766557063907385,9.81538200378418,0.004999974154961233,0.001531691613675204,-0.0020450079815210586,1.1500046253204346,2019-08-07 13:39:47:309,159.23475795097943,68.26017996659381,0,-26.38925552368164,40.483516693115234,-35.68547058105469
-0.08211357146501541,0.0038124416023492813,9.870461463928223,-0.00272507906527493,0.0004661670057904337,-0.0020450079815210586,1.1600017547607422,2019-08-07 13:39:47:319,159.6402683234628,70.49606344914405,0,-26.38925552368164,40.483516693115234,-35.68547058105469
-0.04858707636594772,-0.020135056227445602,9.805803298950195,0.002336162618994662,0.002597216124032102,-0.005774343897807364,1.1700012683868408,2019-08-07 13:39:47:329,160.04032680866644,65.48718349052966,0,-26.38925552368164,40.483516693115234,-35.68547058105469
-0.0629555732011795,0.00620719138532877,9.858488082885742,0.0015370192362269886,0.0009989292934781736,-0.00257777036673667,1.1800024509429932,2019-08-07 13:39:47:339,160.43164167628527,67.77585518269714,0,-26.38925552368164,40.483516693115234,-35.68547058105469
-0.015060581266880035,0.0038124416023492813,9.793828964233398,0.00047149462834221814,-0.0021976444326482656,-0.004442438259861242,1.1899998188018799,2019-08-07 13:39:47:349,160.8224803478772,70.01962733485318,0,-26.38925552368164,40.483516693115234,-35.68547058105469
-0.07971882075071335,-0.00816130731254816,9.887224197387695,0.002602543746583887,0.004994646272335123,-0.0004467211834764202,1.2000021934509277,2019-08-07 13:39:47:359,161.19398648716043,65.01871900036947,0,-26.38925552368164,40.483516693115234,-35.68547058105469
-0.04619232565164566,0.008601941168308258,9.789039611816406,0.0020697814914054373,0.0033963595067997765,-0.00257777036673667,1.2100014686584473,2019-08-07 13:39:47:369,161.56279256080904,67.31617557280482,0,-26.38925552368164,40.483516693115234,-35.68547058105469
-0.08211357146501541,-0.022529805079102516,9.868066787719727,-0.0011267922997395827,0.004994646272335123,-0.002844151494325895,1.220001459121704,2019-08-07 13:39:47:379,161.9191971204785,62.37310099095773,0,-26.239316940307617,39.733821868896484,-34.63589859008789
-0.10606107115745544,0.0038124416023492813,9.762697219848633,-0.0013931734273288073,0.0009989292934781736,-0.003643294877093568,1.2300004959106445,2019-08-07 13:39:47:389,162.26780369970325,64.72597366804197,0,-26.239316940307617,39.733821868896484,-34.63589859008789
-0.07971882075071335,0.042128436267375946,9.832145690917969,-0.002192316810096481,-0.0021976444326482656,0.0016843279347652483,1.2400004863739014,2019-08-07 13:39:47:399,162.6143907441068,67.0277752271506,0,-26.239316940307617,39.733821868896484,-34.63589859008789
-0.07253457605838776,0.001417691819369793,9.801013946533203,0.004733593027372009,0.0004661670057904337,8.60411123386422e-05,1.2500061988830566,2019-08-07 13:39:47:409,162.95336058007112,69.284394544449,0,-26.239316940307617,39.733821868896484,-34.63589859008789
-0.09408731758594513,0.010996690951287746,9.868066787719727,-6.126766340918298e-05,-0.0005993576020943366,-0.007106249535753488,1.260012149810791,2019-08-07 13:39:47:419,163.2837046788168,71.49746410076214,0,-26.239316940307617,39.733821868896484,-34.63589859008789
-0.11085056513547897,0.05410218611359596,9.74593448638916,0.003135306001762336,-0.004062312325772837,-0.007372630663342713,1.27000093460083,2019-08-07 13:39:47:429,163.6072758919828,73.65939511660719,0,-26.239316940307617,39.733821868896484,-34.63589859008789
-0.10366632044315338,0.03015468828380108,9.789039611816406,-6.126766340918298e-05,0.006326551910281247,-0.0023113892391474454,1.280000925064087,2019-08-07 13:39:47:439,163.91944318899877,75.78271168661294,0,-26.239316940307617,39.733821868896484,-34.63589859008789
-0.12521906197071075,0.03733893856406212,9.789039611816406,-0.0037906035756318283,-0.001132119922291367,-0.003909676004682793,1.2900059223175049,2019-08-07 13:39:47:449,164.22703284695365,77.86481601982167,0,-26.239316940307617,39.733821868896484,-34.63589859008789
-0.134798064827919,0.0780496820807457,9.820171356201172,-0.00272507906527493,-0.0019312633050590406,-0.004975200515039691,1.2999978065490723,2019-08-07 13:39:47:459,164.52784711610624,79.899941161791,0,-26.239316940307617,39.733821868896484,-34.63589859008789
-0.1874825656414032,0.06128643453121185,9.798619270324707,0.00047149462834221814,-0.004328693453362062,-0.0009794834711641602,1.3100001811981201,2019-08-07 13:39:47:469,164.8177985255226,81.89451038302113,0,-26.239316940307617,39.733821868896484,-34.63589859008789
-0.17311406135559082,0.04452318698167801,9.868066787719727,-6.126766340918298e-05,0.0017980727412644285,-0.0023113892391474454,1.3199987411499023,2019-08-07 13:39:47:479,165.10033251618634,83.85148441376685,0,-26.239316940307617,39.733821868896484,-34.63589859008789
-0.13958756625652313,0.06847068667411804,9.793828964233398,-0.004056984703221053,-0.0005993576020943366,-0.0023113892391474454,1.330000400543213,2019-08-07 13:39:47:489,165.3823312847756,85.76872189218916,0,-26.239316940307617,39.733821868896484,-34.63589859008789
-0.21861431002616882,0.08762867748737335,9.836935043334961,-0.0011267922997395827,-0.005926980478971734,-0.012700254255424506,1.3400039672851562,2019-08-07 13:39:47:499,165.65255140292342,87.64377267948632,0,-26.239316940307617,39.733821868896484,-34.63589859008789
-0.18508781492710114,0.0780496820807457,9.817776679992676,0.001803400363816213,-0.0008657387296835611,-0.007372630663342713,1.350001573562622,2019-08-07 13:39:47:509,165.91838576715557,89.48077521611286,0,-28.33846092224121,41.233211517333984,-35.83540725708008
-0.180298313498497,0.05649693310260773,9.801013946533203,0.003668068256940785,-0.003263168943005164,-0.007106249535753488,1.3600730895996094,2019-08-07 13:39:47:519,166.18078566776057,91.2824799279416,0,-28.33846092224121,41.233211517333984,-35.83540725708008
-0.1611403077840805,0.020575689151883125,9.877645492553711,-0.0008604111071317767,0.003929121761978225,-0.004975200515039691,1.3700001239776611,2019-08-07 13:39:47:529,166.43628746443719,93.05492292099126,0,-28.33846092224121,41.233211517333984,-35.83540725708008
-0.17790356278419495,-0.00816130731254816,9.868066787719727,-0.0013931734273288073,-0.0016648821774698163,-0.0033769137495043436,1.380000114440918,2019-08-07 13:39:47:539,166.68783997618254,87.59555444710273,0,-28.33846092224121,41.233211517333984,-35.83540725708008
-0.12761381268501282,-0.036898303776979446,9.832145690917969,-6.126766340918298e-05,-0.0037959311981836125,-0.004975200515039691,1.3900036811828613,2019-08-07 13:39:47:549,166.94134306474083,82.2479781704855,0,-28.33846092224121,41.233211517333984,-35.83540725708008
-0.1683245599269867,-0.03210880234837532,9.8034086227417,-0.0016595545549180318,-0.0021976444326482656,-0.005507962770218141,1.4001851081848145,2019-08-07 13:39:47:559,167.1840991239376,77.00772051937246,0,-28.33846092224121,41.233211517333984,-35.83540725708008
-0.12521906197071075,0.001417691819369793,9.810592651367188,0.00047149462834221814,-0.0005993576020943366,-0.007905393438669812,1.4100029468536377,2019-08-07 13:39:47:569,167.42612226751737,79.06714059604946,0,-28.33846092224121,41.233211517333984,-35.83540725708008
-0.10606107115745544,0.020575689151883125,9.827356338500977,0.0034016871293515603,0.002330834996442878,-0.00604072502539659,1.4200029373168945,2019-08-07 13:39:47:579,167.66392432723163,81.08148852542804,0,-28.33846092224121,41.233211517333984,-35.83540725708008
-0.10845582187175751,-0.02492455393075943,9.85609245300293,0.001803400363816213,0.0031299783792105513,-0.006573487280575038,1.4300012588500977,2019-08-07 13:39:47:589,167.8962795828554,75.86174415753392,0,-28.33846092224121,41.233211517333984,-35.83540725708008
-0.07492932677268982,-0.02492455393075943,9.8944091796875,0.003668068256940785,-6.659528596096748e-05,-0.0009794834711641602,1.44000244140625,2019-08-07 13:39:47:599,168.1297136556466,70.74533603296972,0,-28.33846092224121,41.233211517333984,-35.83540725708008
-0.07253457605838776,-0.01774030551314354,9.868066787719727,0.00393444938453001,0.00019978586194656375,0.0008851845519975746,1.4499859809875488,2019-08-07 13:39:47:609,168.35858456218827,65.73028382694204,0,-28.33846092224121,41.233211517333984,-35.83540725708008
-0.03182382881641388,0.00620719138532877,9.8034086227417,0.002602543746583887,0.005793789655102798,-0.0020450079815210586,1.4599978923797607,2019-08-07 13:39:47:619,168.58443593235657,68.01348952955247,0,-28.33846092224121,41.233211517333984,-35.83540725708008
-0.043797578662633896,0.01818094030022621,9.805803298950195,0.0020697814914054373,0.002330834996442878,0.0014179468071760237,1.4700038433074951,2019-08-07 13:39:47:629,168.80631948112938,70.24993222815742,0,-25.489622116088867,40.78339385986328,-36.28522491455078
-0.02463958039879799,0.008601941168308258,9.824960708618164,0.00020511348449834825,-0.0021976444326482656,-0.0017786268539318336,1.480003833770752,2019-08-07 13:39:47:639,169.02855328015522,72.4438151419838,0,-25.489622116088867,40.78339385986328,-36.28522491455078
-0.005481582134962082,0.03973368555307388,9.798619270324707,-0.0016595545549180318,0.0012653104860859794,0.00035242226430983473,1.4899978637695312,2019-08-07 13:39:47:649,169.24663111604664,74.59122342495057,0,-25.489622116088867,40.78339385986328,-36.28522491455078
-0.010271081700921059,0.03973368555307388,9.839329719543457,0.00020511348449834825,-0.0019312633050590406,0.004081758343142595,1.4999990463256836,2019-08-07 13:39:47:659,169.46158682549276,76.69465630197713,0,-25.489622116088867,40.78339385986328,-36.28522491455078
-0.04858707636594772,-0.00337180751375854,9.834540367126465,-0.0013931734273288073,0.001531691613675204,0.0032826149603749208,1.5100023746490479,2019-08-07 13:39:47:669,169.66583346486368,71.56193858254788,0,-25.489622116088867,40.78339385986328,-36.28522491455078
-0.06056082621216774,0.008601941168308258,9.827356338500977,-0.00272507906527493,-0.0021976444326482656,0.0011515656795867992,1.5199964046478271,2019-08-07 13:39:47:679,169.86668844780004,73.73122599938803,0,-25.489622116088867,40.78339385986328,-36.28522491455078
-0.0629555732011795,0.01818094030022621,9.846513748168945,0.00047149462834221814,0.002330834996442878,0.001950709062354473,1.5300049781799316,2019-08-07 13:39:47:689,170.06071826493297,75.85422065343191,0,-25.489622116088867,40.78339385986328,-36.28522491455078
-0.05816607549786568,0.03973368555307388,9.820171356201172,0.0010042569160299579,0.0031299783792105513,-0.0012458645987533845,1.5400004386901855,2019-08-07 13:39:47:699,170.25095990007858,77.93193610981324,0,-25.489622116088867,40.78339385986328,-36.28522491455078
-0.043797578662633896,-0.0009770578471943736,9.779460906982422,-0.0005940299795425521,0.00019978586194656375,0.0016843279347652483,1.550002098083496,2019-08-07 13:39:47:709,170.44069652449616,72.77374547746876,0,-25.489622116088867,40.78339385986328,-36.28522491455078
-0.04619232565164566,0.010996690951287746,9.779460906982422,0.0007378757884407334,0.0012653104860859794,-0.0041760571322720175,1.5600001811981201,2019-08-07 13:39:47:719,170.62575968028833,74.91656778620688,0,-25.489622116088867,40.78339385986328,-36.28522491455078
-0.10127156972885132,0.010996690951287746,9.801013946533203,-0.0019259356825072562,0.0007325481658889489,-0.003643294877093568,1.5700037479400635,2019-08-07 13:39:47:729,170.8009929605155,77.01803251516577,0,-25.489622116088867,40.78339385986328,-36.28522491455078
-0.07971882075071335,-0.02492455393075943,9.817776679992676,0.004200830512119234,0.0004661670057904337,-0.005774343897807364,1.580003023147583,2019-08-07 13:39:47:739,170.97540691612713,71.87822242404029,0,-25.489622116088867,40.78339385986328,-36.28522491455078
-0.07732407003641129,0.010996690951287746,9.81538200378418,0.002336162618994662,0.001531691613675204,-0.007905393438669812,1.5900192260742188,2019-08-07 13:39:47:749,171.14601018146345,74.03806026877453,0,-25.489622116088867,40.78339385986328,-36.28522491455078
-0.08211357146501541,0.010996690951287746,9.801013946533203,0.0010042569160299579,-0.003263168943005164,-0.008171774566259036,1.6000003814697266,2019-08-07 13:39:47:759,171.31531845461825,76.1554505258405,0,-27.13895034790039,40.63345718383789,-35.83540725708008
-0.0701398253440857,0.008601941168308258,9.846513748168945,0.0007378757884407334,0.0012653104860859794,-0.007372630663342713,1.6100032329559326,2019-08-07 13:39:47:769,171.48013883243732,78.23092600621183,0,-27.13895034790039,40.63345718383789,-35.83540725708008
-0.09169257432222366,0.03254943713545799,9.817776679992676,0.0028689248741731116,0.0009989292934781736,-0.005241581642628916,1.6200065612792969,2019-08-07 13:39:47:779,171.6392730684705,80.26089694687053,0,-27.13895034790039,40.63345718383789,-35.83540725708008
-0.05337657779455185,0.008601941168308258,9.841724395751953,-0.0011267922997395827,0.0004661670057904337,-0.010036441939234959,1.6299996376037598,2019-08-07 13:39:47:789,171.80001122560526,82.25530970034119,0,-27.13895034790039,40.63345718383789,-35.83540725708008
-0.07732407003641129,0.03015468828380108,9.78664493560791,0.002336162618994662,-0.004595074841025611,-0.008704536821437486,1.640000343322754,2019-08-07 13:39:47:799,171.95753764553552,84.20536086856455,0,-27.13895034790039,40.63345718383789,-35.83540725708008
-0.09169257432222366,0.03733893856406212,9.789039611816406,0.003135306001762336,-0.003263168943005164,-0.007372630663342713,1.6500017642974854,2019-08-07 13:39:47:809,172.1094860996422,86.115122015548,0,-27.13895034790039,40.63345718383789,-35.83540725708008
-0.09887681901454926,0.001417691819369793,9.762697219848633,-0.0016595545549180318,0.0009989292934781736,-0.0068398684081642635,1.6599993705749512,2019-08-07 13:39:47:819,172.25513015217442,87.99358478546948,0,-27.13895034790039,40.63345718383789,-35.83540725708008
-0.10366632044315338,0.0038124416023492813,9.85609245300293,-0.0005940299795425521,-0.0005993576020943366,-0.00604072502539659,1.6700026988983154,2019-08-07 13:39:47:829,172.39831191084258,89.83360349545967,0,-27.13895034790039,40.63345718383789,-35.83540725708008
-0.12282431870698929,-0.00337180751375854,9.796224594116211,-0.0011267922997395827,-0.001132119922291367,-0.005774343897807364,1.6799988746643066,2019-08-07 13:39:47:839,172.53661446360542,84.43795829386902,0,-27.13895034790039,40.63345718383789,-35.83540725708008
-0.12761381268501282,0.04452318698167801,9.927935600280762,-0.0019259356825072562,-0.0005993576020943366,-0.006573487280575038,1.6900019645690918,2019-08-07 13:39:47:849,172.671490014128,86.34514189143842,0,-27.13895034790039,40.63345718383789,-35.83540725708008
-0.18269306421279907,0.034944187849760056,9.868066787719727,-0.0013931734273288073,-0.0019312633050590406,-0.008171774566259036,1.7000017166137695,2019-08-07 13:39:47:859,172.79793203291652,88.21496347073506,0,-27.13895034790039,40.63345718383789,-35.83540725708008
-0.180298313498497,0.01578618958592415,9.832145690917969,0.0034016871293515603,-0.0008657387296835611,-0.009770061331794384,1.7100026607513428,2019-08-07 13:39:47:869,172.92144852064885,90.04691413317747,0,-27.13895034790039,40.63345718383789,-35.83540725708008
-0.22579854726791382,0.034944187849760056,9.801013946533203,0.004999974154961233,-0.00566059935138251,-0.006573487280575038,1.7200019359588623,2019-08-07 13:39:47:879,173.03980247857834,91.83908298578261,0,-26.989011764526367,39.88376235961914,-36.88498306274414
-0.20424580574035645,0.02297043986618519,9.8034086227417,-0.0016595545549180318,-0.001132119922291367,-0.005774343897807364,1.7300150394439697,2019-08-07 13:39:47:889,173.15577220784652,93.60054938627023,0,-26.989011764526367,39.88376235961914,-36.88498306274414
-0.19706155359745026,0.008601941168308258,9.868066787719727,-0.00272507906527493,0.0028635972516213265,-0.008438155693848261,1.740001916885376,2019-08-07 13:39:47:899,173.26817050883983,95.32906763055902,0,-26.989011764526367,39.88376235961914,-36.88498306274414
-0.17071931064128876,0.010996690951287746,9.810592651367188,-0.0013931734273288073,-0.0005993576020943366,-0.005241581642628916,1.7500073909759521,2019-08-07 13:39:47:909,173.38320515061213,97.02198451517793,0,-26.989011764526367,39.88376235961914,-36.88498306274414
-0.19706155359745026,0.01818094030022621,9.791434288024902,0.00020511348449834825,-0.0013985010498805918,-0.0007131023435749355,1.7600011825561523,2019-08-07 13:39:47:919,173.49326633225832,98.67930196780722,0,-26.989011764526367,39.88376235961914,-36.88498306274414
-0.1874825656414032,0.013391440734267235,9.846513748168945,0.0010042569160299579,-0.0013985010498805918,-0.0031105326219151193,1.7700607776641846,2019-08-07 13:39:47:929,173.60237476975988,100.30359021363043,0,-26.989011764526367,39.88376235961914,-36.88498306274414
-0.180298313498497,0.034944187849760056,9.78664493560791,0.00047149462834221814,-0.0016648821774698163,-0.004975200515039691,1.7799956798553467,2019-08-07 13:39:47:939,173.7101473253851,101.89316380113766,0,-26.989011764526367,39.88376235961914,-36.88498306274414
-0.1874825656414032,0.03015468828380108,9.824960708618164,-6.126766340918298e-05,-0.0019312633050590406,-0.003909676004682793,1.7900006771087646,2019-08-07 13:39:47:949,173.81516530387754,103.4518179203913,0,-26.989011764526367,39.88376235961914,-36.88498306274414
-0.23537755012512207,0.034944187849760056,9.805803298950195,0.0007378757884407334,-0.00246402556023749,-0.007372630663342713,1.8000049591064453,2019-08-07 13:39:47:959,173.9127449718172,104.97828347425872,0,-26.989011764526367,39.88376235961914,-36.88498306274414
-0.17311406135559082,0.07326018065214157,9.8034086227417,-0.0016595545549180318,-6.659528596096748e-05,-0.005241581642628916,1.8100039958953857,2019-08-07 13:39:47:969,174.01429434772817,106.47108636572247,0,-26.989011764526367,39.88376235961914,-36.88498306274414
-0.22579854726791382,0.0038124416023492813,9.860882759094238,0.003668068256940785,-0.0008657387296835611,-0.007106249535753488,1.8200006484985352,2019-08-07 13:39:47:979,174.10825934759393,107.93916267549429,0,-26.989011764526367,39.88376235961914,-36.88498306274414
-0.12042956799268723,0.013391440734267235,9.836935043334961,-0.0013931734273288073,-0.0008657387296835611,-0.010569204194413408,1.8300111293792725,2019-08-07 13:39:47:989,174.21255250670202,109.37960252387158,0,-26.989011764526367,39.88376235961914,-36.88498306274414
-0.11803481727838516,0.042128436267375946,9.805803298950195,-0.008319083264797297,-0.0019312633050590406,-0.008171774566259036,1.8400006294250488,2019-08-07 13:39:47:999,174.31559172372388,110.79175358340783,0,-26.989011764526367,39.88376235961914,-36.88498306274414
-0.11803481727838516,0.001417691819369793,9.805803298950195,-0.0019259356825072562,0.0007325481658889489,-0.007639012311080588,1.8500025272369385,2019-08-07 13:39:48:009,174.41507549044434,112.17683445440967,0,-25.63956069946289,40.63345718383789,-36.735042572021484
-0.07253457605838776,-0.015345555730164051,9.8034086227417,0.0010042569160299579,-6.659528596096748e-05,-0.007639012311080588,1.860001564025879,2019-08-07 13:39:48:019,174.51833299414938,106.33452766370645,0,-25.63956069946289,40.63345718383789,-36.735042572021484
-0.05816607549786568,0.010996690951287746,9.84411907196045,-0.0008604111071317767,-0.0019312633050590406,-0.00604072502539659,1.87001633644104,2019-08-07 13:39:48:029,174.62228153022227,107.80704086231783,0,-25.63956069946289,40.63345718383789,-36.735042572021484
-0.08450832217931747,0.010996690951287746,9.85609245300293,-0.0032578413204533796,0.0012653104860859794,-0.0031105326219151193,1.880000352859497,2019-08-07 13:39:48:039,174.7193014714881,109.25144786830846,0,-25.63956069946289,40.63345718383789,-36.735042572021484
-0.08690307289361954,-0.010556057095527649,9.834540367126465,0.0034016871293515603,0.001531691613675204,-0.0068398684081642635,1.8899998664855957,2019-08-07 13:39:48:049,174.81392980327658,103.46573894702392,0,-25.63956069946289,40.63345718383789,-36.735042572021484
-0.04619232565164566,-0.02492455393075943,9.84411907196045,-0.0019259356825072562,0.002597216124032102,-0.0004467211834764202,1.900003433227539,2019-08-07 13:39:48:059,174.9108153243462,97.8004073281825,0,-25.63956069946289,40.63345718383789,-36.735042572021484
-0.06535032391548157,-0.012950805947184563,9.824960708618164,-0.00032764881944403687,0.0007325481658889489,-0.003909676004682793,1.9100008010864258,2019-08-07 13:39:48:069,175.00456590309417,92.24609359928519,0,-25.63956069946289,40.63345718383789,-36.735042572021484
-0.029429078102111816,-0.01774030551314354,9.853697776794434,0.00020511348449834825,-0.001132119922291367,-0.0041760571322720175,1.9200003147125244,2019-08-07 13:39:48:079,175.10168785375538,86.80311963220497,0,-25.63956069946289,40.63345718383789,-36.735042572021484
0.006492166314274073,0.001417691819369793,9.75790786743164,-0.0005940299795425521,-0.003529550070594388,8.60411123386422e-05,1.9300029277801514,2019-08-07 13:39:48:089,168.00239885667386,88.66722438773415,0,-25.63956069946289,40.63345718383789,-36.735042572021484
-0.019850080832839012,-0.0009770578471943736,9.777066230773926,-0.007786321009618847,0.0007325481658889489,-0.0012458645987533845,1.9400007724761963,2019-08-07 13:39:48:099,168.2396131289475,83.29836548184943,0,-25.63956069946289,40.63345718383789,-36.735042572021484
-0.043797578662633896,-0.022529805079102516,9.836935043334961,-0.0016595545549180318,0.0041955028895674495,8.60411123386422e-05,1.9500033855438232,2019-08-07 13:39:48:109,168.46736248630486,78.03595477099242,0,-25.63956069946289,40.63345718383789,-36.735042572021484
-0.03661332651972771,-0.041687801480293274,9.772276878356934,0.002602543746583887,0.00019978586194656375,0.00035242226430983473,1.9599971771240234,2019-08-07 13:39:48:119,168.6936097992046,72.8786636185088,0,-25.63956069946289,40.63345718383789,-36.735042572021484
-0.010271081700921059,-0.015345555730164051,9.81538200378418,0.00020511348449834825,0.0009989292934781736,0.0032826149603749208,1.9700016975402832,2019-08-07 13:39:48:129,168.91797733554517,67.82276666799895,0,-25.789499282836914,40.18363952636719,-36.28522491455078
0.03043966367840767,-0.022529805079102516,9.781855583190918,0.0028689248741731116,0.0007325481658889489,0.0032826149603749208,1.9800007343292236,2019-08-07 13:39:48:139,161.94277240915068,62.86733988807466,0,-25.789499282836914,40.18363952636719,-36.28522491455078
-0.027034329250454903,-0.00337180751375854,9.822566032409668,0.001803400363816213,0.001531691613675204,0.0014179468071760237,1.9900002479553223,2019-08-07 13:39:48:149,162.29990310176856,58.0093738929243,0,-25.789499282836914,40.18363952636719,-36.28522491455078
-0.055771324783563614,-0.012950805947184563,9.810592651367188,-0.004056984703221053,-0.001132119922291367,0.006479188491445616,2.0000030994415283,2019-08-07 13:39:48:159,162.64802666611368,53.25297775992783,0,-25.789499282836914,40.18363952636719,-36.28522491455078
-0.043797578662633896,0.042128436267375946,9.872856140136719,0.0020697814914054373,-0.001132119922291367,0.0032826149603749208,2.0100154876708984,2019-08-07 13:39:48:169,162.99061917146423,55.78186488203524,0,-25.789499282836914,40.18363952636719,-36.28522491455078
-0.04858707636594772,-0.012950805947184563,9.848908424377441,-0.0032578413204533796,0.002064453868853653,-0.0004467211834764202,2.019998788833618,2019-08-07 13:39:48:179,163.32399649942687,51.06956062214256,0,-25.789499282836914,40.18363952636719,-36.28522491455078
-0.03661332651972771,0.05410218611359596,9.74593448638916,0.0015370192362269886,0.001531691613675204,0.0008851845519975746,2.0299971103668213,2019-08-07 13:39:48:189,163.6523517391341,53.64094531385724,0,-25.789499282836914,40.18363952636719,-36.28522491455078
-0.07492932677268982,-0.012950805947184563,9.84411907196045,0.0012706381086377639,0.0009989292934781736,0.003016233572711371,2.040003538131714,2019-08-07 13:39:48:199,163.9700213834962,48.96892003946402,0,-25.789499282836914,40.18363952636719,-36.28522491455078
-0.03661332651972771,0.02297043986618519,9.820171356201172,-0.0011267922997395827,-6.659528596096748e-05,-0.0033769137495043436,2.049999475479126,2019-08-07 13:39:48:209,164.2863859452875,51.58749365871759,0,-25.789499282836914,40.18363952636719,-36.28522491455078
-0.09648206830024719,-0.015345555730164051,9.84411907196045,0.0007378757884407334,0.00019978586194656375,-0.0017786268539318336,2.0600032806396484,2019-08-07 13:39:48:219,164.58931526171642,46.957115626612584,0,-25.789499282836914,40.18363952636719,-36.28522491455078
-0.050981827080249786,0.042128436267375946,9.832145690917969,-0.0011267922997395827,-0.0027304066878267143,-0.0033769137495043436,2.069997787475586,2019-08-07 13:39:48:229,164.89311946409643,49.61369570961283,0,-25.789499282836914,40.18363952636719,-36.28522491455078
-0.07492932677268982,0.020575689151883125,9.824960708618164,0.0015370192362269886,-6.659528596096748e-05,-0.0020450079815210586,2.080000162124634,2019-08-07 13:39:48:239,165.18655540688337,52.218158753440925,0,-25.789499282836914,40.18363952636719,-36.28522491455078
-0.13000856339931488,0.027759937569499016,9.870461463928223,0.001803400363816213,0.0009989292934781736,-0.0031105326219151193,2.090003728866577,2019-08-07 13:39:48:249,165.46717067231623,54.769559816615356,0,-25.789499282836914,40.18363952636719,-36.28522491455078
-0.08450832217931747,0.010996690951287746,9.85609245300293,0.002336162618994662,-0.0008657387296835611,-0.006307106152985815,2.099998950958252,2019-08-07 13:39:48:259,165.74848804412989,57.2715789684975,0,-25.189743041992188,40.18363952636719,-34.78583526611328
-0.12521906197071075,-0.005766557063907385,9.810592651367188,0.004200830512119234,0.0004661670057904337,-0.0033769137495043436,2.1099987030029297,2019-08-07 13:39:48:269,166.01863125560843,52.524462243338206,0,-25.189743041992188,40.18363952636719,-34.78583526611328
-0.0892978236079216,0.020575689151883125,9.836935043334961,-0.0019259356825072562,0.0009989292934781736,-0.00950367968405651,2.1200003623962402,2019-08-07 13:39:48:279,166.28729552213687,55.072657706586085,0,-25.189743041992188,40.18363952636719,-34.78583526611328
-0.13240331411361694,0.020575689151883125,9.860882759094238,-0.0013931734273288073,-0.00033297644199582136,-0.005241581642628916,2.1300032138824463,2019-08-07 13:39:48:289,166.54635120250248,57.56959597984763,0,-25.189743041992188,40.18363952636719,-34.78583526611328
-0.134798064827919,-0.03929305449128151,9.753118515014648,0.0010042569160299579,-0.004062312325772837,-0.006307106152985815,2.140002489089966,2019-08-07 13:39:48:299,166.8018682798035,52.82225681563198,0,-25.189743041992188,40.18363952636719,-34.78583526611328
-0.12761381268501282,0.0517074353992939,9.817776679992676,0.0012706381086377639,-0.0005993576020943366,-0.00950367968405651,2.1500306129455566,2019-08-07 13:39:48:309,167.05127435263384,55.35906105576369,0,-25.189743041992188,40.18363952636719,-34.78583526611328
-0.11085056513547897,0.025365188717842102,9.834540367126465,0.00047149462834221814,-0.0027304066878267143,-0.008171774566259036,2.159996747970581,2019-08-07 13:39:48:319,167.29886108937694,57.84866045540742,0,-25.189743041992188,40.18363952636719,-34.78583526611328
-0.12282431870698929,0.01818094030022621,9.832145690917969,-0.00032764881944403687,0.0007325481658889489,-0.009237299076615935,2.1699984073638916,2019-08-07 13:39:48:329,167.5381583069592,60.28975230383054,0,-25.189743041992188,40.18363952636719,-34.78583526611328
-0.12042956799268723,0.001417691819369793,9.851303100585938,-0.0024586979376857053,0.005793789655102798,-0.008171774566259036,2.1800012588500977,2019-08-07 13:39:48:339,167.77013319172133,62.685173299323566,0,-25.189743041992188,40.18363952636719,-34.78583526611328
-0.11803481727838516,0.027759937569499016,9.791434288024902,0.0015370192362269886,0.0004661670057904337,-0.010569204194413408,2.1900064945220947,2019-08-07 13:39:48:349,168.00065540338113,65.02735754233812,0,-25.189743041992188,40.18363952636719,-34.78583526611328
-0.13958756625652313,0.03015468828380108,9.817776679992676,0.003668068256940785,-0.001132119922291367,-0.010036441939234959,2.200019598007202,2019-08-07 13:39:48:359,168.2249874666199,67.32122848019847,0,-25.189743041992188,40.18363952636719,-34.78583526611328
0.028044912964105606,0.042128436267375946,9.743539810180664,-0.0013931734273288073,0.0033963595067997765,-0.007372630663342713,2.209998369216919,2019-08-07 13:39:48:369,161.2618830039027,69.57062991607985,0,-25.189743041992188,40.18363952636719,-34.78583526611328
-0.1156400665640831,0.03733893856406212,9.791434288024902,0.0028689248741731116,0.0033963595067997765,-0.007905393438669812,2.220000743865967,2019-08-07 13:39:48:379,161.6212048280569,71.77323619135818,0,-26.239316940307617,41.83296585083008,-37.03491973876953
-0.05816607549786568,0.001417691819369793,9.762697219848633,0.002336162618994662,-0.005127837096204061,-0.004975200515039691,2.2300028800964355,2019-08-07 13:39:48:389,161.98483334457228,73.93629303084315,0,-26.239316940307617,41.83296585083008,-37.03491973876953
-0.09408731758594513,0.020575689151883125,9.820171356201172,-0.0005940299795425521,0.0033963595067997765,-0.005241581642628916,2.240004062652588,2019-08-07 13:39:48:399,162.33225068972365,76.05549978347175,0,-26.239316940307617,41.83296585083008,-37.03491973876953
-0.08690307289361954,0.027759937569499016,9.793828964233398,0.0012706381086377639,-0.0013985010498805918,-0.00950367968405651,2.2500011920928955,2019-08-07 13:39:48:409,162.67622298062236,78.13042852046057,0,-26.239316940307617,41.83296585083008,-37.03491973876953
-0.09408731758594513,0.010996690951287746,9.882434844970703,-0.004056984703221053,0.00019978586194656375,-0.007905393438669812,2.2600011825561523,2019-08-07 13:39:48:419,163.01167679672827,80.16882282087988,0,-26.239316940307617,41.83296585083008,-37.03491973876953
-0.12042956799268723,0.042128436267375946,9.767487525939941,0.004200830512119234,-0.001132119922291367,-0.007639012311080588,2.2700042724609375,2019-08-07 13:39:48:429,163.33795113452513,82.15814442359516,0,-26.239316940307617,41.83296585083008,-37.03491973876953
-0.12042956799268723,0.020575689151883125,9.791434288024902,-0.0005940299795425521,0.00019978586194656375,-0.008704536821437486,2.2800018787384033,2019-08-07 13:39:48:439,163.6569865018754,84.1129069824414,0,-26.239316940307617,41.83296585083008,-37.03491973876953
-0.13240331411361694,-0.005766557063907385,9.781855583190918,0.0010042569160299579,0.0012653104860859794,-0.00604072502539659,2.2902445793151855,2019-08-07 13:39:48:450,163.96760934717537,78.8307468033937,0,-26.239316940307617,41.83296585083008,-37.03491973876953
-0.13958756625652313,0.020575689151883125,9.820171356201172,-0.0011267922997395827,-0.00033297644199582136,-0.007905393438669812,2.2999908924102783,2019-08-07 13:39:48:459,164.2721520096712,80.85234753586906,0,-26.239316940307617,41.83296585083008,-37.03491973876953
-0.0892978236079216,-0.0009770578471943736,9.793828964233398,0.0020697814914054373,0.0017980727412644285,-0.004975200515039691,2.3099989891052246,2019-08-07 13:39:48:469,164.57525063793977,75.63425178419843,0,-26.239316940307617,41.83296585083008,-37.03491973876953
-0.11324531584978104,-0.03450355306267738,9.839329719543457,-0.002192316810096481,0.0031299783792105513,-0.00604072502539659,2.320002317428589,2019-08-07 13:39:48:479,164.86879928082425,70.526816504011,0,-26.239316940307617,41.83296585083008,-37.03491973876953
-0.09648206830024719,0.034944187849760056,9.846513748168945,0.001803400363816213,0.002064453868853653,-0.0041760571322720175,2.3300046920776367,2019-08-07 13:39:48:489,165.15903582055998,72.71120061605183,0,-26.239316940307617,41.83296585083008,-37.03491973876953
-0.1156400665640831,0.03015468828380108,9.834540367126465,-6.126766340918298e-05,0.0012653104860859794,-0.0023113892391474454,2.3400192260742188,2019-08-07 13:39:48:499,165.44166990125146,74.85349745766663,0,-26.239316940307617,41.83296585083008,-37.03491973876953
-0.07492932677268982,0.03973368555307388,9.779460906982422,-0.0037906035756318283,0.002064453868853653,-0.003643294877093568,2.3500545024871826,2019-08-07 13:39:48:509,165.72289349831172,76.95390763708383,0,-26.689132690429688,40.78339385986328,-35.985347747802734
-0.12282431870698929,-0.00337180751375854,9.810592651367188,-0.0037906035756318283,0.0004661670057904337,-0.004442438259861242,2.3600988388061523,2019-08-07 13:39:48:519,165.99382710438692,71.817361180006,0,-26.689132690429688,40.78339385986328,-35.985347747802734
-0.08211357146501541,0.020575689151883125,9.781855583190918,0.002336162618994662,0.0012653104860859794,-0.0007131023435749355,2.3700201511383057,2019-08-07 13:39:48:529,166.26362654543811,73.9773021482779,0,-26.689132690429688,40.78339385986328,-35.985347747802734
-0.06056082621216774,0.01578618958592415,9.834540367126465,-0.0005940299795425521,0.0009989292934781736,-0.0012458645987533845,2.380030393600464,2019-08-07 13:39:48:539,166.53073611543505,76.0962505968525,0,-26.689132690429688,40.78339385986328,-35.985347747802734
-0.10845582187175751,0.04931268468499184,9.892014503479004,0.004733593027372009,-0.003263168943005164,-0.00257777036673667,2.3899972438812256,2019-08-07 13:39:48:549,166.7893842950801,78.16596403289822,0,-26.689132690429688,40.78339385986328,-35.985347747802734
-0.06056082621216774,-0.005766557063907385,9.875250816345215,0.0012706381086377639,0.001531691613675204,-0.003909676004682793,2.40000057220459,2019-08-07 13:39:48:559,167.04570894220896,73.00260019944191,0,-26.689132690429688,40.78339385986328,-35.985347747802734
-0.09887681901454926,0.0038124416023492813,9.791434288024902,-0.0005940299795425521,-0.003529550070594388,0.00061880342440835,2.4100024700164795,2019-08-07 13:39:48:569,167.29520557351773,75.14243562640243,0,-26.689132690429688,40.78339385986328,-35.985347747802734
-0.09408731758594513,-0.022529805079102516,9.860882759094238,0.0028689248741731116,-0.0021976444326482656,0.0027498524451221467,2.4200055599212646,2019-08-07 13:39:48:579,167.53960243018182,70.04059366260122,0,-26.689132690429688,40.78339385986328,-35.985347747802734
-0.0892978236079216,0.00620719138532877,9.824960708618164,0.007397404303264255,-0.0008657387296835611,0.005680045108677942,2.430001974105835,2019-08-07 13:39:48:589,167.778881523484,72.23490568245963,0,-26.689132690429688,40.78339385986328,-35.985347747802734
-0.0892978236079216,0.027759937569499016,9.81538200378418,0.00020511348449834825,0.002064453868853653,-0.006307106152985815,2.4400014877319336,2019-08-07 13:39:48:599,168.0117198033501,74.38685152497719,0,-26.689132690429688,40.78339385986328,-35.985347747802734
-0.08211357146501541,0.027759937569499016,9.781855583190918,0.0055327364101396825,-0.0013985010498805918,0.00061880342440835,2.450000047683716,2019-08-07 13:39:48:609,168.24265141337025,76.49275633163172,0,-26.689132690429688,40.78339385986328,-35.985347747802734
-0.12042956799268723,0.03733893856406212,9.853697776794434,-0.00272507906527493,0.005793789655102798,-0.004708819387450467,2.460002899169922,2019-08-07 13:39:48:619,168.4605398398882,78.56008953493986,0,-26.689132690429688,40.78339385986328,-35.985347747802734
-0.08690307289361954,0.013391440734267235,9.820171356201172,0.002602543746583887,0.0012653104860859794,-0.008438155693848261,2.470005989074707,2019-08-07 13:39:48:629,168.68047790038977,80.58586332196269,0,-25.939437866210938,40.63345718383789,-36.43516540527344
-0.08450832217931747,0.042128436267375946,9.741145133972168,-0.0005940299795425521,-0.00033297644199582136,8.60411123386422e-05,2.4800302982330322,2019-08-07 13:39:48:639,168.89711473695638,82.5695245965498,0,-25.939437866210938,40.63345718383789,-36.43516540527344
-0.09887681901454926,0.03733893856406212,9.832145690917969,-0.0013931734273288073,0.006060170782692022,-0.0009794834711641602,2.4900074005126953,2019-08-07 13:39:48:649,169.10425396244153,84.51456282573716,0,-25.939437866210938,40.63345718383789,-36.43516540527344
-0.07253457605838776,-0.010556057095527649,9.836935043334961,-0.00032764881944403687,-6.659528596096748e-05,-0.0023113892391474454,2.499997138977051,2019-08-07 13:39:48:659,169.31375675704328,79.22568504125495,0,-25.939437866210938,40.63345718383789,-36.43516540527344
-0.07971882075071335,-0.0009770578471943736,9.839329719543457,0.0012706381086377639,0.0007325481658889489,-0.007372630663342713,2.5100061893463135,2019-08-07 13:39:48:669,169.51778585332744,74.04057102401441,0,-25.939437866210938,40.63345718383789,-36.43516540527344
-0.07492932677268982,0.008601941168308258,9.805803298950195,-0.0011267922997395827,0.0009989292934781736,-0.00950367968405651,2.5200014114379883,2019-08-07 13:39:48:679,169.7181133641511,76.15938676273481,0,-25.939437866210938,40.63345718383789,-36.43516540527344
-0.10127156972885132,-0.010556057095527649,9.762697219848633,0.002602543746583887,0.001531691613675204,-0.007639012311080588,2.529999256134033,2019-08-07 13:39:48:689,169.9110047181847,71.03597705493495,0,-25.939437866210938,40.63345718383789,-36.43516540527344
-0.0629555732011795,0.01818094030022621,9.798619270324707,-0.0037906035756318283,-0.0019312633050590406,-0.002844151494325895,2.540004253387451,2019-08-07 13:39:48:699,170.10650722605564,73.21526079878906,0,-25.939437866210938,40.63345718383789,-36.43516540527344
-0.09648206830024719,0.02297043986618519,9.829751014709473,0.002602543746583887,-0.005394218223793286,-0.003909676004682793,2.550001621246338,2019-08-07 13:39:48:709,170.296157973182,75.34681683963265,0,-25.939437866210938,40.63345718383789,-36.43516540527344
-0.04619232565164566,0.020575689151883125,9.846513748168945,-0.0013931734273288073,-0.001132119922291367,-0.007639012311080588,2.560004234313965,2019-08-07 13:39:48:719,170.48549494190368,77.43826842231955,0,-25.939437866210938,40.63345718383789,-36.43516540527344
-0.11324531584978104,-0.005766557063907385,9.877645492553711,-0.00272507906527493,0.002597216124032102,-0.00257777036673667,2.569999933242798,2019-08-07 13:39:48:729,170.66119020954116,72.29170150795107,0,-25.939437866210938,40.63345718383789,-36.43516540527344
-0.10845582187175751,0.008601941168308258,9.81538200378418,0.0020697814914054373,-0.002996787815415939,-0.003909676004682793,2.579998731613159,2019-08-07 13:39:48:739,170.83698752784755,74.44370118809567,0,-25.939437866210938,40.63345718383789,-36.43516540527344
-0.08690307289361954,0.02297043986618519,9.817776679992676,0.0007378757884407334,-0.0016648821774698163,-0.0041760571322720175,2.5900015830993652,2019-08-07 13:39:48:749,171.01103994662515,76.5517316608979,0,-25.939437866210938,40.63345718383789,-36.43516540527344
-0.11085056513547897,0.013391440734267235,9.822566032409668,-0.00032764881944403687,-0.005394218223793286,-0.009770061331794384,2.600001573562622,2019-08-07 13:39:48:759,171.18091654332704,78.61931873686225,0,-25.63956069946289,39.733821868896484,-35.83540725708008
-0.09887681901454926,0.03015468828380108,9.812987327575684,0.0007378757884407334,-0.0037959311981836125,-0.004708819387450467,2.6100049018859863,2019-08-07 13:39:48:769,171.3478843420069,80.64299659305888,0,-25.63956069946289,39.733821868896484,-35.83540725708008
-0.15874555706977844,0.03254943713545799,9.848908424377441,-0.0011267922997395827,0.0007325481658889489,-0.003643294877093568,2.620023488998413,2019-08-07 13:39:48:779,171.50204619853213,82.62698343252029,0,-25.63956069946289,39.733821868896484,-35.83540725708008
-0.12042956799268723,0.010996690951287746,9.829751014709473,-6.126766340918298e-05,0.0007325481658889489,-0.008171774566259036,2.63000226020813,2019-08-07 13:39:48:789,171.6575562969351,84.57319614000228,0,-25.63956069946289,39.733821868896484,-35.83540725708008
-0.11803481727838516,0.027759937569499016,9.841724395751953,-0.0008604111071317767,-6.659528596096748e-05,-0.0031105326219151193,2.640003204345703,2019-08-07 13:39:48:799,171.81069990966577,86.47898317848878,0,-25.63956069946289,39.733821868896484,-35.83540725708008
-0.08211357146501541,-0.010556057095527649,9.822566032409668,0.00047149462834221814,0.001531691613675204,-0.0031105326219151193,2.65000581741333,2019-08-07 13:39:48:809,171.96404637217256,81.15037018745394,0,-25.63956069946289,39.733821868896484,-35.83540725708008
-0.12042956799268723,-0.00337180751375854,9.820171356201172,-6.126766340918298e-05,-0.0008657387296835611,-0.006307106152985815,2.6599998474121094,2019-08-07 13:39:48:819,172.11119904629228,75.9277906210095,0,-25.63956069946289,39.733821868896484,-35.83540725708008
-0.1419823169708252,0.05889168381690979,9.81538200378418,-0.002192316810096481,0.004728265144745899,-0.0033769137495043436,2.6700031757354736,2019-08-07 13:39:48:829,172.24974442547497,78.00359086117201,0,-25.63956069946289,39.733821868896484,-35.83540725708008
-0.11324531584978104,-0.022529805079102516,9.784250259399414,0.00047149462834221814,0.003662740634389001,-0.0033769137495043436,2.6800029277801514,2019-08-07 13:39:48:839,172.389430447769,72.8458929566458,0,-25.63956069946289,39.733821868896484,-35.83540725708008
-0.09648206830024719,0.020575689151883125,9.791434288024902,-0.0037906035756318283,0.0052610273999243486,-0.004975200515039691,2.6899988651275635,2019-08-07 13:39:48:849,172.52739781135915,74.98869463169473,0,-25.63956069946289,39.733821868896484,-35.83540725708008
-0.1539560705423355,0.03015468828380108,9.8034086227417,0.0007378757884407334,-0.0005993576020943366,-0.003643294877093568,2.700002908706665,2019-08-07 13:39:48:859,172.6591921598704,77.08498149977927,0,-25.63956069946289,39.733821868896484,-35.83540725708008
-0.1156400665640831,0.00620719138532877,9.858488082885742,-0.0011267922997395827,0.0041955028895674495,-0.008171774566259036,2.710000991821289,2019-08-07 13:39:48:869,172.7902120254909,79.14319293909315,0,-25.63956069946289,39.733821868896484,-35.83540725708008
-0.134798064827919,0.03973368555307388,9.810592651367188,0.0015370192362269886,0.002597216124032102,-0.007639012311080588,2.7200047969818115,2019-08-07 13:39:48:879,172.91720494629615,81.15482469321059,0,-27.13895034790039,40.03369903564453,-36.43516540527344
-0.1156400665640831,0.03015468828380108,9.822566032409668,-0.0008604111071317767,-0.00033297644199582136,-0.0017786268539318336,2.729997396469116,2019-08-07 13:39:48:889,173.04555755085727,83.12869308043268,0,-27.13895034790039,40.03369903564453,-36.43516540527344
-0.1611403077840805,0.05649693310260773,9.798619270324707,-0.004589746958399502,-0.0037959311981836125,-0.0017786268539318336,2.739999771118164,2019-08-07 13:39:48:899,173.16793519733076,85.06208991425177,0,-27.13895034790039,40.03369903564453,-36.43516540527344
-0.13958756625652313,-0.027319304645061493,9.805803298950195,0.0034016871293515603,-0.0037959311981836125,-0.00257777036673667,2.750007152557373,2019-08-07 13:39:48:909,173.29039824154697,79.76212921530215,0,-27.13895034790039,40.03369903564453,-36.43516540527344
-0.15874555706977844,0.03733893856406212,9.820171356201172,-0.0037906035756318283,0.002330834996442878,-0.003643294877093568,2.760016918182373,2019-08-07 13:39:48:919,173.4047578354988,81.76466006931612,0,-27.13895034790039,40.03369903564453,-36.43516540527344
-0.11803481727838516,0.01578618958592415,9.858488082885742,-0.004323365830810277,-0.0016648821774698163,-0.0031105326219151193,2.7700023651123047,2019-08-07 13:39:48:929,173.52387685559768,83.72995597014862,0,-27.13895034790039,40.03369903564453,-36.43516540527344
-0.12521906197071075,0.03973368555307388,9.834540367126465,0.0012706381086377639,-0.0027304066878267143,-0.007905393438669812,2.7800018787384033,2019-08-07 13:39:48:939,173.64034269118432,85.65001370044423,0,-27.13895034790039,40.03369903564453,-36.43516540527344
-0.09887681901454926,-0.005766557063907385,9.820171356201172,-0.004856128085988727,0.0012653104860859794,-0.003909676004682793,2.7900028228759766,2019-08-07 13:39:48:949,173.75528775610283,80.34041329253232,0,-27.13895034790039,40.03369903564453,-36.43516540527344
-0.13240331411361694,0.0517074353992939,9.848908424377441,0.0020697814914054373,0.0007325481658889489,-0.0020450079815210586,2.8000011444091797,2019-08-07 13:39:48:959,173.8643666134967,82.32642696317488,0,-27.13895034790039,40.03369903564453,-36.43516540527344
-0.10127156972885132,0.020575689151883125,9.887224197387695,-0.0005940299795425521,0.002064453868853653,-0.004975200515039691,2.809997797012329,2019-08-07 13:39:48:969,173.97418365698286,84.27784716885309,0,-27.13895034790039,40.03369903564453,-36.43516540527344
-0.07492932677268982,0.03254943713545799,9.77467155456543,0.00047149462834221814,0.00019978586194656375,-0.007106249535753488,2.8199996948242188,2019-08-07 13:39:48:979,174.0858037537015,86.18820957251984,0,-27.13895034790039,40.03369903564453,-36.43516540527344
-0.09648206830024719,-0.0009770578471943736,9.765092849731445,0.003668068256940785,-6.659528596096748e-05,-0.0041760571322720175,2.830003261566162,2019-08-07 13:39:48:989,174.19280346120485,80.86249968705434,0,-27.13895034790039,40.03369903564453,-36.43516540527344
-0.0892978236079216,-0.015345555730164051,9.812987327575684,-0.0013931734273288073,0.002597216124032102,-0.009237299076615935,2.840005874633789,2019-08-07 13:39:48:999,174.29706117570714,75.6478241447652,0,-27.13895034790039,40.03369903564453,-36.43516540527344
-0.010271081700921059,-0.015345555730164051,9.851303100585938,0.0020697814914054373,0.0052610273999243486,-0.003909676004682793,2.8499999046325684,2019-08-07 13:39:49:009,174.40697291172495,70.53549118851285,0,-26.989011764526367,40.483516693115234,-35.68547058105469
0.020860664546489716,0.00620719138532877,9.781855583190918,-0.0016595545549180318,0.002064453868853653,-0.010569204194413408,2.8599979877471924,2019-08-07 13:39:49:019,167.32011824940233,72.72498586964099,0,-26.989011764526367,40.483516693115234,-35.68547058105469
0.03043966367840767,-0.022529805079102516,9.793828964233398,0.001803400363816213,-6.659528596096748e-05,0.00035242226430983473,2.870009422302246,2019-08-07 13:39:49:029,160.37731486638341,67.67210845657003,0,-26.989011764526367,40.483516693115234,-35.68547058105469
0.011281665414571762,-0.03450355306267738,9.810592651367188,0.003135306001762336,0.0052610273999243486,-0.00604072502539659,2.88000226020813,2019-08-07 13:39:49:039,153.56813436711656,62.72093721157285,0,-26.989011764526367,40.483516693115234,-35.68547058105469
0.01607116498053074,-0.012950805947184563,9.777066230773926,0.0020697814914054373,0.002330834996442878,-0.008704536821437486,2.8900046348571777,2019-08-07 13:39:49:049,146.89734621853523,57.86687390296809,0,-26.989011764526367,40.483516693115234,-35.68547058105469
0.03762391209602356,-0.03210880234837532,9.796224594116211,0.0020697814914054373,-0.00033297644199582136,-0.007639012311080588,2.9000136852264404,2019-08-07 13:39:49:059,140.36398747319268,53.11212911457814,0,-26.989011764526367,40.483516693115234,-35.68547058105469
0.006492166314274073,-0.041687801480293274,9.841724395751953,-6.126766340918298e-05,0.0031299783792105513,-0.0041760571322720175,2.909998893737793,2019-08-07 13:39:49:069,133.9557087562884,48.45477474956955,0,-26.989011764526367,40.483516693115234,-35.68547058105469
0.028044912964105606,-0.012950805947184563,9.784250259399414,0.002602543746583887,0.0007325481658889489,-0.005241581642628916,2.91999888420105,2019-08-07 13:39:49:079,127.67946782267938,43.885734707792636,0,-26.989011764526367,40.483516693115234,-35.68547058105469
0.03043966367840767,-0.05126680061221123,9.769882202148438,0.002336162618994662,0.0033963595067997765,-0.00257777036673667,2.930004835128784,2019-08-07 13:39:49:089,121.52754055573885,39.412720540789095,0,-26.989011764526367,40.483516693115234,-35.68547058105469
-0.05337657779455185,0.02297043986618519,9.851303100585938,0.0007378757884407334,0.0041955028895674495,-0.004708819387450467,2.940000295639038,2019-08-07 13:39:49:099,122.68842627699505,42.221380057065446,0,-26.989011764526367,40.483516693115234,-35.68547058105469
-0.019850080832839012,0.01818094030022621,9.880040168762207,0.004200830512119234,-0.0016648821774698163,-0.0015122457263426093,2.950300931930542,2019-08-07 13:39:49:110,123.83331841828681,44.97241410682491,0,-26.989011764526367,40.483516693115234,-35.68547058105469
-0.04140282794833183,0.008601941168308258,9.841724395751953,0.003135306001762336,0.0007325481658889489,-0.007106249535753488,2.959991693496704,2019-08-07 13:39:49:119,124.95143275854788,47.67025823325579,0,-26.989011764526367,40.483516693115234,-35.68547058105469
-0.06774507462978363,-0.010556057095527649,9.789039611816406,0.0007378757884407334,-0.003263168943005164,-0.0031105326219151193,2.9700000286102295,2019-08-07 13:39:49:129,126.04630771022549,43.11767411001177,0,-25.039804458618164,40.03369903564453,-35.83540725708008
-0.08690307289361954,0.00620719138532877,9.81538200378418,0.003135306001762336,-0.0008657387296835611,-0.006573487280575038,2.980001211166382,2019-08-07 13:39:49:139,127.1157223238587,45.8528352792103,0,-25.039804458618164,40.03369903564453,-35.83540725708008
-0.15156131982803345,0.010996690951287746,9.832145690917969,0.004999974154961233,-0.00033297644199582136,-0.004975200515039691,2.990002393722534,2019-08-07 13:39:49:149,128.1559321159526,48.53168912262195,0,-25.039804458618164,40.03369903564453,-35.83540725708008
-0.18987730145454407,0.008601941168308258,9.872856140136719,-0.004323365830810277,-0.001132119922291367,-0.009237299076615935,2.9999988079071045,2019-08-07 13:39:49:159,129.1714131035514,51.162483630031154,0,-25.039804458618164,40.03369903564453,-35.83540725708008
-0.17550881206989288,0.0517074353992939,9.858488082885742,-0.0005940299795425521,-0.001132119922291367,-0.008171774566259036,3.0100038051605225,2019-08-07 13:39:49:169,130.16822247771307,53.73355743787164,0,-25.039804458618164,40.03369903564453,-35.83540725708008
-0.19706155359745026,0.034944187849760056,9.872856140136719,-0.00032764881944403687,0.001531691613675204,-0.00897091742887806,3.0199992656707764,2019-08-07 13:39:49:179,131.1411290133761,56.255014319952366,0,-25.039804458618164,40.03369903564453,-35.83540725708008
-0.2401670515537262,0.0517074353992939,9.889619827270508,0.003668068256940785,-0.001132119922291367,-0.008171774566259036,3.0300047397613525,2019-08-07 13:39:49:189,132.0911196475566,58.72186197689606,0,-25.039804458618164,40.03369903564453,-35.83540725708008
-0.22819329798221588,0.01578618958592415,9.887224197387695,0.0010042569160299579,0.0017980727412644285,-0.003909676004682793,3.040001153945923,2019-08-07 13:39:49:199,133.02184540843712,61.145031454712694,0,-25.039804458618164,40.03369903564453,-35.83540725708008
-0.2593250572681427,0.05410218611359596,9.812987327575684,-0.0024586979376857053,-0.0005993576020943366,-0.009770061331794384,3.049999237060547,2019-08-07 13:39:49:209,133.93146923168922,63.51719337573085,0,-25.039804458618164,40.03369903564453,-35.83540725708008
-0.25693029165267944,0.02297043986618519,9.8034086227417,-0.0016595545549180318,-0.0005993576020943366,-0.008704536821437486,3.060002326965332,2019-08-07 13:39:49:219,134.82315090800077,65.84509663531641,0,-25.039804458618164,40.03369903564453,-35.83540725708008
-0.26171979308128357,0.0780496820807457,9.882434844970703,0.002336162618994662,-0.003529550070594388,-0.004442438259861242,3.070004463195801,2019-08-07 13:39:49:229,135.6983295808577,68.11783262445499,0,-25.039804458618164,40.03369903564453,-35.83540725708008
-0.2545355558395386,0.05410218611359596,9.822566032409668,-0.0024586979376857053,-0.0019312633050590406,-0.005774343897807364,3.0800018310546875,2019-08-07 13:39:49:239,136.5557592418863,70.3505445841012,0,-25.039804458618164,40.03369903564453,-35.83540725708008
-0.23537755012512207,0.03973368555307388,9.853697776794434,-0.004323365830810277,0.0004661670057904337,-0.005774343897807364,3.0900027751922607,2019-08-07 13:39:49:249,137.39701473486517,72.54134076315249,0,-25.039804458618164,40.03369903564453,-35.83540725708008
-0.24256180226802826,0.1043919250369072,9.834540367126465,0.004733593027372009,0.00019978586194656375,-0.0023113892391474454,3.1000044345855713,2019-08-07 13:39:49:259,138.22070479448755,74.67569236414471,0,-28.188522338867188,39.58388137817383,-35.38559341430664
-0.20424580574035645,0.0517074353992939,9.798619270324707,-0.0019259356825072562,-6.659528596096748e-05,-0.0023113892391474454,3.109997034072876,2019-08-07 13:39:49:269,139.03244566204293,76.77721217217693,0,-28.188522338867188,39.58388137817383,-35.38559341430664
-0.17790356278419495,0.03733893856406212,9.798619270324707,-0.0037906035756318283,0.0009989292934781736,-0.008704536821437486,3.1200015544891357,2019-08-07 13:39:49:279,139.83043265970875,78.83943066738468,0,-28.188522338867188,39.58388137817383,-35.38559341430664
-0.11324531584978104,0.07326018065214157,9.753118515014648,0.002336162618994662,0.0041955028895674495,0.0038153772155533703,3.1299991607666016,2019-08-07 13:39:49:289,140.61816395507932,80.85272327618833,0,-28.188522338867188,39.58388137817383,-35.38559341430664
-0.14437706768512726,0.034944187849760056,9.8944091796875,-0.0005940299795425521,0.004994646272335123,-0.004708819387450467,3.140000820159912,2019-08-07 13:39:49:299,141.3862759589397,82.8319553878512,0,-28.188522338867188,39.58388137817383,-35.38559341430664
-0.134798064827919,0.06368118524551392,9.836935043334961,-6.126766340918298e-05,-0.0013985010498805918,-0.0017786268539318336,3.1500120162963867,2019-08-07 13:39:49:309,142.14363478047747,84.76793253129284,0,-28.188522338867188,39.58388137817383,-35.38559341430664
-0.13240331411361694,0.02297043986618519,9.681276321411133,-0.002192316810096481,0.001531691613675204,-0.0031105326219151193,3.1599998474121094,2019-08-07 13:39:49:319,142.8842322661129,86.67108449518935,0,-28.188522338867188,39.58388137817383,-35.38559341430664
-0.07253457605838776,0.0517074353992939,9.875250816345215,0.0034016871293515603,-0.0016648821774698163,0.004081758343142595,3.169999837875366,2019-08-07 13:39:49:329,143.61906575066888,88.52975273302405,0,-28.188522338867188,39.58388137817383,-35.38559341430664
-0.0629555732011795,0.07086542993783951,9.86567211151123,-0.004056984703221053,-0.0013985010498805918,8.60411123386422e-05,3.1800050735473633,2019-08-07 13:39:49:339,144.34015779922805,90.35320585663345,0,-28.188522338867188,39.58388137817383,-35.38559341430664
-0.09408731758594513,0.0517074353992939,9.822566032409668,-0.0037906035756318283,-0.00033297644199582136,-0.0020450079815210586,3.190000534057617,2019-08-07 13:39:49:349,145.04256548936632,92.14223697920623,0,-28.188522338867188,39.58388137817383,-35.38559341430664
-0.029429078102111816,0.03254943713545799,9.824960708618164,-0.0013931734273288073,-6.659528596096748e-05,0.0022170901899436976,3.1999943256378174,2019-08-07 13:39:49:359,145.73831915528572,93.89637769118981,0,-28.188522338867188,39.58388137817383,-35.38559341430664
-0.03900807723402977,-0.020135056227445602,9.75790786743164,0.0028689248741731116,0.0031299783792105513,0.0011515656795867992,3.20999813079834,2019-08-07 13:39:49:369,146.41721375295236,88.41920317503842,0,-28.188522338867188,39.58388137817383,-35.38559341430664
-0.03661332651972771,-0.041687801480293274,9.791434288024902,-0.0008604111071317767,0.001531691613675204,-0.0012458645987533845,3.2200002670288086,2019-08-07 13:39:49:379,147.08372432390365,83.05618113067027,0,-26.38925552368164,40.483516693115234,-35.985347747802734
-0.03182382881641388,0.020575689151883125,9.791434288024902,0.001803400363816213,-0.00246402556023749,-0.0012458645987533845,3.230039119720459,2019-08-07 13:39:49:389,147.73971435218556,84.99163294709129,0,-26.38925552368164,40.483516693115234,-35.985347747802734
-0.05816607549786568,-0.005766557063907385,9.738750457763672,-0.0032578413204533796,0.0004661670057904337,-0.0009794834711641602,3.2399954795837402,2019-08-07 13:39:49:399,148.37781539244472,79.69430010376806,0,-26.38925552368164,40.483516693115234,-35.985347747802734
-0.0701398253440857,-0.036898303776979446,9.750723838806152,0.0015370192362269886,0.002330834996442878,0.0032826149603749208,3.2500038146972656,2019-08-07 13:39:49:409,149.00070646723614,74.50388665592301,0,-26.38925552368164,40.483516693115234,-35.985347747802734
-0.02463958039879799,-0.010556057095527649,9.810592651367188,-0.0019259356825072562,0.0028635972516213265,-0.002844151494325895,3.259999990463257,2019-08-07 13:39:49:419,149.61620705352908,69.4161229077899,0,-26.38925552368164,40.483516693115234,-35.985347747802734
-0.00787633191794157,-0.012950805947184563,9.808197975158691,0.0012706381086377639,-0.00246402556023749,-0.003643294877093568,3.27000093460083,2019-08-07 13:39:49:429,150.2243463792943,64.4285999939372,0,-26.38925552368164,40.483516693115234,-35.985347747802734
-0.05816607549786568,0.03973368555307388,9.824960708618164,-0.0037906035756318283,0.00019978586194656375,-0.003643294877093568,3.28000545501709,2019-08-07 13:39:49:439,150.81296321127076,66.73752313742573,0,-26.38925552368164,40.483516693115234,-35.985347747802734
-0.05337657779455185,-0.005766557063907385,9.810592651367188,-0.0024586979376857053,0.002330834996442878,-0.0023113892391474454,3.2900397777557373,2019-08-07 13:39:49:449,151.38915616281912,61.80483152500833,0,-26.38925552368164,40.483516693115234,-35.985347747802734
-0.055771324783563614,-0.020135056227445602,9.836935043334961,-0.0013931734273288073,0.0031299783792105513,-0.006573487280575038,3.2999978065490723,2019-08-07 13:39:49:459,151.95312614277964,56.971859428226594,0,-26.38925552368164,40.483516693115234,-35.985347747802734
-0.09408731758594513,0.0038124416023492813,9.875250816345215,0.002602543746583887,-0.0008657387296835611,-0.004708819387450467,3.3100011348724365,2019-08-07 13:39:49:469,152.50363241196237,59.43051803609922,0,-26.38925552368164,40.483516693115234,-35.985347747802734
-0.06774507462978363,-0.015345555730164051,9.772276878356934,0.00020511348449834825,-0.0021976444326482656,-0.005507962770218141,3.3199992179870605,2019-08-07 13:39:49:479,153.04684971376378,54.643591973796894,0,-26.38925552368164,40.483516693115234,-35.985347747802734
-0.07971882075071335,0.008601941168308258,9.834540367126465,-0.0013931734273288073,-0.0016648821774698163,-0.010569204194413408,3.3300046920776367,2019-08-07 13:39:49:489,153.57755946770703,57.150500534014185,0,-26.38925552368164,40.483516693115234,-35.985347747802734
-0.06774507462978363,-0.00337180751375854,9.836935043334961,0.002602543746583887,-0.0008657387296835611,-0.008171774566259036,3.340022087097168,2019-08-07 13:39:49:499,154.09860366013714,52.40641944220601,0,-26.38925552368164,40.483516693115234,-35.985347747802734
-0.0701398253440857,0.03015468828380108,9.779460906982422,-0.0008604111071317767,0.002330834996442878,-0.00604072502539659,3.350001811981201,2019-08-07 13:39:49:509,154.60710693460766,54.95523980671422,0,-26.239316940307617,41.53308868408203,-35.83540725708008
-0.09887681901454926,0.00620719138532877,9.836935043334961,0.0007378757884407334,-0.0016648821774698163,-0.007639012311080588,3.3600032329559326,2019-08-07 13:39:49:519,155.10438187423344,57.45499755286884,0,-26.239316940307617,41.53308868408203,-35.83540725708008
-0.07253457605838776,0.013391440734267235,9.789039611816406,0.00047149462834221814,0.00019978586194656375,-0.011368348097329731,3.370004653930664,2019-08-07 13:39:49:529,155.59369122059638,59.904065205006354,0,-26.239316940307617,41.53308868408203,-35.83540725708008
-0.09169257432222366,-0.01774030551314354,9.84411907196045,-0.0011267922997395827,-0.0027304066878267143,-0.012700254255424506,3.379998207092285,2019-08-07 13:39:49:539,156.0726762603752,55.108681263051004,0,-26.239316940307617,41.53308868408203,-35.83540725708008
-0.09648206830024719,-0.005766557063907385,9.822566032409668,0.00393444938453001,0.00019978586194656375,-0.011634728704770307,3.389998197555542,2019-08-07 13:39:49:549,156.53985517196597,50.404971187218855,0,-26.239316940307617,41.53308868408203,-35.83540725708008
-0.09169257432222366,-0.036898303776979446,9.839329719543457,0.0010042569160299579,0.0031299783792105513,-0.007372630663342713,3.4000000953674316,2019-08-07 13:39:49:559,156.9966217943423,45.80060502607481,0,-26.239316940307617,41.53308868408203,-35.83540725708008
-0.09169257432222366,0.00620719138532877,9.827356338500977,0.0010042569160299579,0.0004661670057904337,-0.007639012311080588,3.409999370574951,2019-08-07 13:39:49:569,157.4457361536501,48.48330529015812,0,-26.239316940307617,41.53308868408203,-35.83540725708008
-0.11085056513547897,-0.041687801480293274,9.918355941772461,0.002336162618994662,0.0028635972516213265,-0.011101966449591856,3.4200053215026855,2019-08-07 13:39:49:579,157.88240599951644,43.9171430163996,0,-26.239316940307617,41.53308868408203,-35.83540725708008
-0.08450832217931747,-0.01774030551314354,9.791434288024902,0.0012706381086377639,-0.003529550070594388,-0.007905393438669812,3.4303650856018066,2019-08-07 13:39:49:590,158.31692104566463,39.4401372159472,0,-26.239316940307617,41.53308868408203,-35.83540725708008
-0.06056082621216774,-0.00337180751375854,9.78664493560791,0.003135306001762336,0.0009989292934781736,-0.007639012311080588,3.4399936199188232,2019-08-07 13:39:49:599,158.7429516025888,35.05003420100368,0,-26.239316940307617,41.53308868408203,-35.83540725708008
-0.06056082621216774,0.04452318698167801,9.78664493560791,-0.0024586979376857053,-0.0008657387296835611,-0.004442438259861242,3.450002431869507,2019-08-07 13:39:49:609,159.1614881498758,37.94520211719544,0,-26.239316940307617,41.53308868408203,-35.83540725708008
-0.019850080832839012,-0.0009770578471943736,9.8034086227417,0.002602543746583887,-0.001132119922291367,-0.0033769137495043436,3.4600017070770264,2019-08-07 13:39:49:619,159.57657376163004,33.58495106380365,0,-26.239316940307617,41.53308868408203,-35.83540725708008
-0.06774507462978363,-0.015345555730164051,9.836935043334961,0.0020697814914054373,-0.0037959311981836125,-0.004442438259861242,3.470003366470337,2019-08-07 13:39:49:629,159.97928247535899,29.313877289724413,0,-26.08937644958496,39.88376235961914,-35.985347747802734
-0.08211357146501541,0.020575689151883125,9.78664493560791,0.0010042569160299579,-0.0021976444326482656,-0.0031105326219151193,3.47999906539917,2019-08-07 13:39:49:639,160.37131583935764,32.324626899281164,0,-26.08937644958496,39.88376235961914,-35.985347747802734
-0.0629555732011795,0.04452318698167801,9.707618713378906,-0.0016595545549180318,-0.0008657387296835611,-0.00604072502539659,3.490001678466797,2019-08-07 13:39:49:649,160.7569444056493,35.27381083258312,0,-26.08937644958496,39.88376235961914,-35.985347747802734
-0.12042956799268723,0.03973368555307388,9.832145690917969,0.001803400363816213,0.0031299783792105513,-0.002844151494325895,3.5000007152557373,2019-08-07 13:39:49:659,161.1260131010196,38.16269125559946,0,-26.08937644958496,39.88376235961914,-35.985347747802734
-0.10606107115745544,0.0780496820807457,9.841724395751953,0.0020697814914054373,-0.0027304066878267143,0.0022170901899436976,3.510006904602051,2019-08-07 13:39:49:669,161.49267822498902,40.989187051788555,0,-26.08937644958496,39.88376235961914,-35.985347747802734
-0.10366632044315338,0.06128643453121185,9.836935043334961,-0.0011267922997395827,-0.00033297644199582136,-0.0009794834711641602,3.5199975967407227,2019-08-07 13:39:49:679,161.85093569343564,43.76289618110561,0,-26.08937644958496,39.88376235961914,-35.985347747802734
-0.11324531584978104,0.02297043986618519,9.8034086227417,-6.126766340918298e-05,-0.004062312325772837,-0.00257777036673667,3.529998540878296,2019-08-07 13:39:49:689,162.20296157749186,46.48498766398804,0,-26.08937644958496,39.88376235961914,-35.985347747802734
-0.12521906197071075,0.027759937569499016,9.853697776794434,0.002336162618994662,0.003662740634389001,0.002483471317532922,3.540003538131714,2019-08-07 13:39:49:699,162.54228338390197,49.1507472265489,0,-26.08937644958496,39.88376235961914,-35.985347747802734
-0.1539560705423355,0.027759937569499016,9.892014503479004,-0.0013931734273288073,0.0017980727412644285,8.60411123386422e-05,3.550004005432129,2019-08-07 13:39:49:709,162.87259483890713,51.7652988117109,0,-26.08937644958496,39.88376235961914,-35.985347747802734
-0.12761381268501282,0.00620719138532877,9.8944091796875,0.0007378757884407334,-0.001132119922291367,0.002483471317532922,3.5600028038024902,2019-08-07 13:39:49:719,163.20099984501377,54.32885968662826,0,-26.08937644958496,39.88376235961914,-35.985347747802734
-0.1419823169708252,0.04931268468499184,9.772276878356934,-0.0016595545549180318,-0.0021976444326482656,-0.0020450079815210586,3.570004463195801,2019-08-07 13:39:49:729,163.52156608472652,56.83743203595593,0,-26.08937644958496,39.88376235961914,-35.985347747802734
-0.14677181839942932,0.08044443279504776,9.829751014709473,-0.002192316810096481,0.0041955028895674495,-0.0015122457263426093,3.580000638961792,2019-08-07 13:39:49:739,163.83167105677782,59.29253620578512,0,-26.08937644958496,39.88376235961914,-35.985347747802734
-0.15156131982803345,0.034944187849760056,9.810592651367188,-0.0032578413204533796,-0.002996787815415939,0.0038153772155533703,3.5899996757507324,2019-08-07 13:39:49:749,164.1390186190906,61.70443297839581,0,-26.08937644958496,39.88376235961914,-35.985347747802734
-0.11324531584978104,0.06128643453121185,9.74593448638916,0.00020511348449834825,0.001531691613675204,0.0014179468071760237,3.599999189376831,2019-08-07 13:39:49:759,164.44206359307483,64.06302326110132,0,-25.939437866210938,40.33357620239258,-35.83540725708008
-0.0892978236079216,0.034944187849760056,9.887224197387695,0.002602543746583887,0.0012653104860859794,-0.0012458645987533845,3.6100075244903564,2019-08-07 13:39:49:769,164.74216204622792,66.37625028696645,0,-25.939437866210938,40.33357620239258,-35.83540725708008
-0.11324531584978104,0.01578618958592415,9.748329162597656,0.0007378757884407334,0.0017980727412644285,0.0014179468071760237,3.6200191974639893,2019-08-07 13:39:49:779,165.03299662912613,68.64645481719622,0,-25.939437866210938,40.33357620239258,-35.83540725708008
-0.09408731758594513,0.008601941168308258,9.863277435302734,0.0020697814914054373,0.002597216124032102,0.004614520598321043,3.6299991607666016,2019-08-07 13:39:49:789,165.3199505520563,70.87136649669814,0,-25.939437866210938,40.33357620239258,-35.83540725708008
-0.08690307289361954,-0.041687801480293274,9.829751014709473,0.0012706381086377639,0.00019978586194656375,0.0027498524451221467,3.6400070190429688,2019-08-07 13:39:49:799,165.6033087022562,65.85808492330204,0,-25.939437866210938,40.33357620239258,-35.83540725708008
-0.03421857953071594,-0.015345555730164051,9.851303100585938,0.0007378757884407334,0.0009989292934781736,0.0016843279347652483,3.6500039100646973,2019-08-07 13:39:49:809,165.8867014742614,60.94229404970746,0,-25.939437866210938,40.33357620239258,-35.83540725708008
-0.07253457605838776,-0.02492455393075943,9.834540367126465,-0.0019259356825072562,0.002064453868853653,-0.0004467211834764202,3.6600029468536377,2019-08-07 13:39:49:819,166.15935683010707,56.1274336648146,0,-25.939437866210938,40.33357620239258,-35.83540725708008
-0.055771324783563614,0.02297043986618519,9.827356338500977,-0.005388890341167176,0.0004661670057904337,-0.0012458645987533845,3.6700003147125244,2019-08-07 13:39:49:829,166.42940488345334,58.60523159410455,0,-25.939437866210938,40.33357620239258,-35.83540725708008
-0.019850080832839012,0.03254943713545799,9.834540367126465,0.0012706381086377639,0.005793789655102798,0.0011515656795867992,3.680000066757202,2019-08-07 13:39:49:839,166.6952507433638,61.02862088850245,0,-25.939437866210938,40.33357620239258,-35.83540725708008
-0.019850080832839012,0.04691793769598007,9.798619270324707,-0.0032578413204533796,0.003662740634389001,-0.0007131023435749355,3.68999981880188,2019-08-07 13:39:49:849,166.95696775854833,63.40439084565384,0,-25.939437866210938,40.33357620239258,-35.83540725708008
-0.06774507462978363,-0.010556057095527649,9.791434288024902,0.003668068256940785,-0.001132119922291367,0.0014179468071760237,3.7000010013580322,2019-08-07 13:39:49:859,167.21053591647168,58.535478570640564,0,-25.939437866210938,40.33357620239258,-35.83540725708008
-0.050981827080249786,0.03733893856406212,9.8034086227417,-0.0011267922997395827,0.0004661670057904337,-0.0004467211834764202,3.7099990844726562,2019-08-07 13:39:49:869,167.4601043093197,60.96103706131533,0,-25.939437866210938,40.33357620239258,-35.83540725708008
-0.07492932677268982,-0.00337180751375854,9.784250259399414,0.0028689248741731116,-0.0013985010498805918,0.0014179468071760237,3.7200000286102295,2019-08-07 13:39:49:879,167.70291212350622,56.140600171220655,0,-26.689132690429688,39.88376235961914,-35.68547058105469
-0.02463958039879799,-0.012950805947184563,9.832145690917969,-0.00272507906527493,-6.659528596096748e-05,-0.00018034003963255039,3.729999303817749,2019-08-07 13:39:49:889,167.9460195870058,51.42082757299302,0,-26.689132690429688,39.88376235961914,-35.68547058105469
-0.03661332651972771,-0.01774030551314354,9.817776679992676,0.0010042569160299579,-6.659528596096748e-05,-0.002844151494325895,3.7400009632110596,2019-08-07 13:39:49:899,168.1828631640451,46.793917657622565,0,-26.689132690429688,39.88376235961914,-35.68547058105469
-0.06056082621216774,-0.005766557063907385,9.836935043334961,0.004467211899782784,-0.001132119922291367,-0.0017786268539318336,3.7500057220458984,2019-08-07 13:39:49:909,168.41278717766684,42.256201530012454,0,-26.689132690429688,39.88376235961914,-35.68547058105469
-0.11803481727838516,-0.02492455393075943,9.781855583190918,-0.00032764881944403687,-0.00033297644199582136,-0.003643294877093568,3.760014057159424,2019-08-07 13:39:49:919,168.630891795401,37.814181458935785,0,-26.689132690429688,39.88376235961914,-35.68547058105469
-0.10366632044315338,0.013391440734267235,9.834540367126465,-0.0024586979376857053,0.0012653104860859794,-0.0017786268539318336,3.770002603530884,2019-08-07 13:39:49:929,168.8454856040881,40.65771644123732,0,-26.689132690429688,39.88376235961914,-35.68547058105469
-0.1683245599269867,0.027759937569499016,9.827356338500977,-0.0008604111071317767,-0.0021976444326482656,-0.009770061331794384,3.7800025939941406,2019-08-07 13:39:49:939,169.05018435537949,43.441808302016064,0,-26.689132690429688,39.88376235961914,-35.68547058105469
-0.20185105502605438,-0.03450355306267738,9.810592651367188,-0.004323365830810277,-0.0021976444326482656,-0.007639012311080588,3.790004014968872,2019-08-07 13:39:49:949,169.24684115136907,38.9794301782799,0,-26.689132690429688,39.88376235961914,-35.68547058105469
-0.16592980921268463,-0.029714053496718407,9.86567211151123,-0.00272507906527493,-0.010189078520399329,-0.014298541020959853,3.800001382827759,2019-08-07 13:39:49:959,169.44835274687273,34.60482263056193,0,-26.689132690429688,39.88376235961914,-35.68547058105469
-0.2856673002243042,-0.06084579974412918,9.817776679992676,-0.004589746958399502,-0.004595074841025611,-0.017228732904292672,3.80999755859375,2019-08-07 13:39:49:969,169.62863159639068,30.322404065042328,0,-26.689132690429688,39.88376235961914,-35.68547058105469
-0.18987730145454407,-0.04408255219459534,9.827356338500977,-0.007519939882029623,-0.005127837096204061,-0.02415464222161251,3.8199989795684814,2019-08-07 13:39:49:979,169.8168008225934,26.12531921648949,0,-26.689132690429688,39.88376235961914,-35.68547058105469
-0.4365365207195282,-0.029714053496718407,9.791434288024902,0.006864642048085805,-0.012586509188851,-0.030547791364348504,3.8300068378448486,2019-08-07 13:39:49:989,169.9764825363387,22.0024328139745,0,-26.689132690429688,39.88376235961914,-35.68547058105469
-0.6688272356987,0.06128643453121185,9.681276321411133,-0.0016595545549180318,-0.014717558209564796,-0.03667455781904932,3.840003490447998,2019-08-07 13:39:49:999,170.10617445623507,25.156061666428887,0,-26.689132690429688,39.88376235961914,-35.68547058105469
-0.7191169857978821,-0.09676704555749893,9.877645492553711,-0.02510109430291844,-0.00965631626522088,-0.045198753901904504,3.8500025272369385,2019-08-07 13:39:50:009,170.22619389198383,21.078258989012266,0,-26.83907127380371,40.33357620239258,-35.83540725708008
-0.6400902271270752,-0.1374777853488922,9.93511962890625,-0.016843279867801136,-0.013385652051470022,-0.06464457777636386,3.859999656677246,2019-08-07 13:39:50:019,170.35545784231837,17.08200423361433,0,-26.83907127380371,40.33357620239258,-35.83540725708008
-0.7310907244682312,0.2672349214553833,9.975830078125,-0.008319083264797297,-0.012320127541113125,-0.07716449337380066,3.870004177093506,2019-08-07 13:39:50:029,170.47143960848112,20.314347693275668,0,-26.83907127380371,40.33357620239258,-35.83540725708008
-0.7023537158966064,0.07565493136644363,9.980619430541992,-0.007519939882029623,-0.01951241954646814,-0.10247069893433104,3.880000114440918,2019-08-07 13:39:50:039,170.59245519055705,23.503595375372168,0,-26.83907127380371,40.33357620239258,-35.83540725708008
-0.7526434659957886,0.001417691819369793,9.892014503479004,-0.00965098890274342,-0.006193361606560959,-0.12617862501140717,3.890005588531494,2019-08-07 13:39:50:049,170.69706512551886,26.63878122247074,0,-26.83907127380371,40.33357620239258,-35.83540725708008
-0.6089584827423096,0.3055509030818939,9.832145690917969,-0.021105378949526025,0.0017980727412644285,-0.1456244447246773,3.9000155925750732,2019-08-07 13:39:50:059,170.8112309287503,29.68226824695003,0,-26.83907127380371,40.33357620239258,-35.83540725708008
-0.7143275141716003,0.3845776319503784,10.09556770324707,0.004733593027372009,0.002330834996442878,-0.1626728368903877,3.9100089073181152,2019-08-07 13:39:50:069,170.91275229913973,32.64233567290019,0,-26.83907127380371,40.33357620239258,-35.83540725708008
-0.44611552357673645,0.23610316216945648,10.057251930236816,-0.0013931734273288073,-0.006193361606560959,-0.17359446052080266,3.9200029373168945,2019-08-07 13:39:50:079,171.04717597810546,35.56337428407695,0,-26.83907127380371,40.33357620239258,-35.83540725708008
-0.2784830331802368,0.1690501719713211,9.781855583190918,-0.008319083264797297,-0.010189078520399329,-0.18265142197972817,3.930004835128784,2019-08-07 13:39:50:089,171.19934003989738,38.43697707997789,0,-26.83907127380371,40.33357620239258,-35.83540725708008
-0.11803481727838516,0.010996690951287746,9.77467155456543,0.008196547686031928,0.0033963595067997765,-0.19170838343865373,3.9399991035461426,2019-08-07 13:39:50:099,171.35961035935114,41.262348649645084,0,-26.83907127380371,40.33357620239258,-35.83540725708008
0.05678191035985947,-0.20692552626132965,9.93511962890625,-0.002192316810096481,0.00019978586194656375,-0.19330666292210796,3.949998140335083,2019-08-07 13:39:50:109,164.33885513138242,36.86219585793948,0,-26.83907127380371,40.33357620239258,-35.83540725708008
0.1717298924922943,-0.36976850032806396,9.824960708618164,-0.011515657316016642,-0.0005993576020943366,-0.18211865660365784,3.9600024223327637,2019-08-07 13:39:50:119,157.4724420610838,32.574527635521946,0,-26.83907127380371,40.33357620239258,-35.83540725708008
0.4064153730869293,-0.12789879739284515,9.736355781555176,0.006065498665318131,0.008723982578732917,-0.1680004573615776,3.970001220703125,2019-08-07 13:39:50:129,150.76590040867893,28.334683842914117,0,-26.689132690429688,41.68302917480469,-37.18486022949219
0.4806526005268097,-0.35779476165771484,9.738750457763672,-0.004589746958399502,-0.004595074841025611,-0.1522839786360431,3.9800474643707275,2019-08-07 13:39:50:139,144.2096848663513,24.212660417120727,0,-26.689132690429688,41.68302917480469,-37.18486022949219
-4.124451160430908,-1.6270121335983276,10.756518363952637,0.012725026855048746,0.030034473306019535,-0.17785656688460866,3.9900014400482178,2019-08-07 13:39:50:149,144.4891306573368,20.29332017904873,0,-26.689132690429688,41.68302917480469,-37.18486022949219
-3.178524971008301,-1.9646718502044678,13.579928398132324,-0.2906831008757673,-0.08371027701710641,-0.008171774566259036,4.000000476837158,2019-08-07 13:39:50:159,144.98287614628816,16.61529883918729,0,-26.689132690429688,41.68302917480469,-37.18486022949219
-0.917881190776825,-0.2763732671737671,11.57791805267334,-0.12579316573313182,-0.05813768460735165,-0.010569204194413408,4.009997129440308,2019-08-07 13:39:50:169,145.62519494953898,12.780950549375577,0,-26.689132690429688,41.68302917480469,-37.18486022949219
-1.1549614667892456,0.2792086601257324,9.65493392944336,0.10489290220240696,0.02284218234096182,-0.0830248792210609,4.020001411437988,2019-08-07 13:39:50:179,146.16342904363856,16.033279878790072,0,-26.689132690429688,41.68302917480469,-37.18486022949219
1.031445026397705,0.09960243105888367,9.702829360961914,-0.0032578413204533796,0.009789506568941165,0.008876618639748637,4.030005931854248,2019-08-07 13:39:50:189,139.75602028972196,19.302681630179446,0,-26.689132690429688,41.68302917480469,-37.18486022949219
1.057787299156189,0.2025766670703888,9.47772216796875,0.04176057132272017,0.004461884017156674,0.029920729279743333,4.039999485015869,2019-08-07 13:39:50:199,133.48576213374685,22.46870555958332,0,-26.689132690429688,41.68302917480469,-37.18486022949219
0.6051796078681946,0.034944187849760056,9.779460906982422,-6.126766340918298e-05,0.004728265144745899,0.08745905908079964,4.0499937534332275,2019-08-07 13:39:50:209,127.28421555651138,25.6152712366626,0,-26.689132690429688,41.68302917480469,-37.18486022949219
1.136813998222351,0.09002342820167542,9.86567211151123,-0.01897432784821763,-0.0021976444326482656,0.14979224189638088,4.059996604919434,2019-08-07 13:39:50:219,121.27122876514761,28.70316681600942,0,-26.689132690429688,41.68302917480469,-37.18486022949219
0.8183122873306274,0.32949841022491455,9.755513191223145,0.02444579854956923,-0.00246402556023749,0.17350016797345702,4.069998741149902,2019-08-07 13:39:50:229,115.34308526592328,31.676684974262262,0,-26.689132690429688,41.68302917480469,-37.18486022949219
0.42317861318588257,0.30315616726875305,9.801013946533203,0.0100612155791565,0.008457601451143694,0.22144876885892287,4.08000111579895,2019-08-07 13:39:50:239,109.48092001428007,34.602067438920244,0,-26.689132690429688,41.68302917480469,-37.18486022949219
0.6842063069343567,0.1690501719713211,9.8944091796875,-0.003524222448042604,0.01005588821667904,0.26966375243242385,4.090020179748535,2019-08-07 13:39:50:249,103.76475951708485,37.492432160185466,0,-26.689132690429688,41.68302917480469,-37.18486022949219
0.6770220994949341,0.3390774130821228,9.913566589355469,0.005799117537728906,0.005527408527513573,0.2880440413935533,4.100000381469727,2019-08-07 13:39:50:259,98.16450294117992,40.3001548623612,0,-25.939437866210938,41.233211517333984,-36.43516540527344
0.2387828826904297,0.5354468822479248,9.870461463928223,0.011393121737251273,0.0033963595067997765,0.32000979751020625,4.110002756118774,2019-08-07 13:39:50:269,92.62702157665773,43.0256509508337,0,-25.939437866210938,41.233211517333984,-36.43516540527344
0.33217811584472656,0.5809471011161804,9.872856140136719,0.016720744289035767,0.006859314685608345,0.341586662083001,4.120006322860718,2019-08-07 13:39:50:279,87.20916874844778,45.68839461877678,0,-25.939437866210938,41.233211517333984,-36.43516540527344
11.290553092956543,2.858354091644287,5.574280261993408,0.2969537133994406,0.0366940030561961,0.31148558478259425,4.129999399185181,2019-08-07 13:39:50:289,87.18815918977731,45.51837047465369,0,-25.939437866210938,41.233211517333984,-36.43516540527344
7.2625837326049805,4.498757839202881,-0.3407513201236725,0.5881083269462065,0.17334753555348187,0.11462993513519784,4.140000820159912,2019-08-07 13:39:50:299,83.60077329187713,45.99110396127799,0,-25.939437866210938,41.233211517333984,-36.43516540527344
4.422410488128662,0.7390006184577942,5.775439262390137,0.17282009649959168,0.09583061442130127,0.25075069809522404,4.150001764297485,2019-08-07 13:39:50:309,79.02378919106565,48.42840044335334,0,-25.939437866210938,41.233211517333984,-36.43516540527344
5.200704097747803,-0.16142529249191284,9.544775009155273,-0.1146051594146817,-0.040023765850689785,0.4204354716882222,4.160001993179321,2019-08-07 13:39:50:319,74.43748397014748,43.94356291255532,0,-25.939437866210938,41.233211517333984,-36.43516540527344
0.7728120684623718,0.8683170676231384,9.11132526397705,0.08198412418943633,0.016182654671379856,0.3245382699172906,4.170006990432739,2019-08-07 13:39:50:329,69.43660636525067,46.509756767170806,0,-25.939437866210938,41.233211517333984,-36.43516540527344
-0.0629555732011795,0.042128436267375946,9.949487686157227,-0.05520216536154137,0.003662740634389001,0.3479798133063316,4.1803648471832275,2019-08-07 13:39:50:340,71.63849331039034,49.20681474008985,0,-25.939437866210938,41.233211517333984,-36.43516540527344
0.6722325682640076,-0.012950805947184563,9.966251373291016,-0.04587882537576986,-0.006193361606560959,0.33359524802097296,4.189990043640137,2019-08-07 13:39:50:349,66.68624680024135,44.648962893362246,0,-25.939437866210938,41.233211517333984,-36.43516540527344
-0.09169257432222366,0.3917618989944458,9.214300155639648,0.07985307932991174,0.0366940030561961,0.26433613196123396,4.20000433921814,2019-08-07 13:39:50:359,68.9204860142051,47.26239088545826,0,-25.939437866210938,41.233211517333984,-36.43516540527344
0.25554612278938293,-0.11113554239273071,9.341221809387207,0.01698712593677364,0.01165417498221439,0.2701965178084942,4.21000075340271,2019-08-07 13:39:50:369,63.96687562657386,42.72124092574675,0,-25.939437866210938,41.233211517333984,-36.43516540527344
0.049597661942243576,-0.0656353011727333,9.523222923278809,-0.007786321009618847,0.005793789655102798,0.2640697492731988,4.220003128051758,2019-08-07 13:39:50:379,59.09025209721959,38.27908682954573,0,-25.789499282836914,40.78339385986328,-38.08449172973633
-0.3886415362358093,0.04452318698167801,9.71719741821289,0.014323313620584095,0.007924839195965244,0.23183764375802426,4.2300004959106445,2019-08-07 13:39:50:389,61.45819169764504,41.10021425955314,0,-25.789499282836914,40.78339385986328,-38.08449172973633
-0.6496692299842834,-0.3793475031852722,10.011751174926758,-0.011782037923457216,-0.00033297644199582136,0.19933913891005778,4.239999294281006,2019-08-07 13:39:50:399,63.754959685647584,36.728223016491626,0,-25.789499282836914,40.78339385986328,-38.08449172973633
-0.9370391964912415,-0.3290577530860901,9.853697776794434,0.008995691068799602,0.00019978586194656375,0.17563121283298164,4.250003099441528,2019-08-07 13:39:50:409,65.97110392427378,32.42685844751225,0,-25.789499282836914,40.78339385986328,-38.08449172973633
-0.9202759861946106,-0.18297803401947021,9.858488082885742,-6.126766340918298e-05,0.002597216124032102,0.15938196873137678,4.260002613067627,2019-08-07 13:39:50:419,68.14356307113734,28.199621952674182,0,-25.789499282836914,40.78339385986328,-38.08449172973633
-0.8532229661941528,-0.43442675471305847,10.047673225402832,-0.006454414851524075,0.001531691613675204,0.12848175168924292,4.270003080368042,2019-08-07 13:39:50:429,70.28275636573056,24.08876842932126,0,-25.789499282836914,40.78339385986328,-38.08449172973633
-1.0735399723052979,-0.2955312728881836,9.877645492553711,0.004467211899782784,-0.001132119922291367,0.09172115712222724,4.280000686645508,2019-08-07 13:39:50:439,72.35368124361678,20.0387599833776,0,-25.789499282836914,40.78339385986328,-38.08449172973633
-0.9681709408760071,-0.29792600870132446,9.980619430541992,-0.0011267922997395827,-0.0027304066878267143,0.07227532908657869,4.290001153945923,2019-08-07 13:39:50:449,74.39732787366768,16.072813450450482,0,-25.789499282836914,40.78339385986328,-38.08449172973633
-0.9442234635353088,-0.4320319890975952,9.978224754333496,-0.005122509213577951,-0.0016648821774698163,0.04110873767878806,4.300007343292236,2019-08-07 13:39:50:459,76.4022024999068,12.203819531965927,0,-25.789499282836914,40.78339385986328,-38.08449172973633
-0.9442234635353088,-0.2955312728881836,9.882434844970703,-0.0013931734273288073,0.0052610273999243486,0.01313871668117623,4.310000658035278,2019-08-07 13:39:50:469,78.36205049337804,8.394782938240594,0,-25.789499282836914,40.78339385986328,-38.08449172973633
-0.7765910029411316,-0.3410315215587616,9.944698333740234,0.00047149462834221814,-0.00246402556023749,-0.013765778765781403,4.320003032684326,2019-08-07 13:39:50:479,80.30688895248004,4.665903730401574,0,-25.789499282836914,40.78339385986328,-38.08449172973633
-0.7861700057983398,-0.30511027574539185,9.875250816345215,-0.002192316810096481,-0.004595074841025611,-0.04226856097827438,4.330000400543213,2019-08-07 13:39:50:489,82.21229612763257,1.0092097887842066,0,-25.789499282836914,40.78339385986328,-38.08449172973633
-0.7119327187538147,-0.23805727064609528,9.853697776794434,-0.003524222448042604,-0.005127837096204061,-0.06251352875565006,4.340002775192261,2019-08-07 13:39:50:499,84.08828101857922,-2.581316092784327,0,-25.789499282836914,40.78339385986328,-38.08449172973633
-0.6831957697868347,-0.19255703687667847,9.781855583190918,0.00047149462834221814,-0.004328693453362062,-0.09181544966957286,4.350001335144043,2019-08-07 13:39:50:509,85.92904098825875,-6.107399899316219,0,-24.290109634399414,41.68302917480469,-38.68424987792969
-0.5586687326431274,-0.17579378187656403,9.805803298950195,-0.003524222448042604,-0.0027304066878267143,-0.11179404308129176,4.360005855560303,2019-08-07 13:39:50:519,87.74677791837556,-9.56273093096657,0,-24.290109634399414,41.68302917480469,-38.68424987792969
-0.5993794798851013,-0.1710042804479599,9.870461463928223,-0.004056984703221053,-0.0021976444326482656,-0.13816577107158443,4.370019435882568,2019-08-07 13:39:50:529,89.5235781267359,-12.949344395701843,0,-24.290109634399414,41.68302917480469,-38.68424987792969
-0.5011947751045227,-0.08479329943656921,9.889619827270508,-0.0056552714687564,-0.010455460168137204,-0.15414864080753252,4.380002498626709,2019-08-07 13:39:50:539,91.2809432795544,-16.277362654203184,0,-24.290109634399414,41.68302917480469,-38.68424987792969
-0.4892210066318512,-0.0656353011727333,9.863277435302734,-0.007519939882029623,-0.00566059935138251,-0.1709306502852077,4.390001535415649,2019-08-07 13:39:50:549,93.0017113709406,-19.539967974965077,0,-24.290109634399414,41.68302917480469,-38.68424987792969
-0.49880000948905945,-0.11113554239273071,9.868066787719727,-0.0061880337239348495,-0.0037959311981836125,-0.1882454251389533,4.4000043869018555,2019-08-07 13:39:50:559,94.68593595603562,-22.732788136805937,0,-24.290109634399414,41.68302917480469,-38.68424987792969
-0.40779954195022583,0.01578618958592415,9.911171913146973,-0.007519939882029623,-0.005926980478971734,-0.1981015346619843,4.410000801086426,2019-08-07 13:39:50:569,96.34842141244849,-18.675736627374977,0,-24.290109634399414,41.68302917480469,-38.68424987792969
-0.24495655298233032,0.03254943713545799,9.882434844970703,-0.008319083264797297,-0.005127837096204061,-0.21435077876358916,4.419999837875366,2019-08-07 13:39:50:579,97.9959339113724,-14.701325440104831,0,-24.290109634399414,41.68302917480469,-38.68424987792969
-0.2808777987957001,-0.00337180751375854,9.839329719543457,-0.005388890341167176,-0.003529550070594388,-0.2172809716872193,4.429999589920044,2019-08-07 13:39:50:589,99.60529409646011,-18.00388046171062,0,-24.290109634399414,41.68302917480469,-38.68424987792969
-0.180298313498497,-0.00816130731254816,9.793828964233398,-0.011782037923457216,-0.002996787815415939,-0.22980089144584528,4.439997673034668,2019-08-07 13:39:50:599,101.19377737201137,-21.236233618281165,0,-24.290109634399414,41.68302917480469,-38.68424987792969
-0.17071931064128876,-0.005766557063907385,9.872856140136719,-0.0056552714687564,-0.0048614559686148365,-0.2329974670575106,4.450005769729614,2019-08-07 13:39:50:609,102.75282078362264,-24.407661639098713,0,-24.290109634399414,41.68302917480469,-38.68424987792969
-0.15635080635547638,0.010996690951287746,9.753118515014648,-0.007253558754440398,-0.008324410627274756,-0.23779232215263013,4.460001468658447,2019-08-07 13:39:50:619,104.28406807214604,-20.31672931984871,0,-24.290109634399414,41.68302917480469,-38.68424987792969
-0.06774507462978363,-0.036898303776979446,9.853697776794434,-0.010982895060838192,-6.659528596096748e-05,-0.24285355993578486,4.470001935958862,2019-08-07 13:39:50:629,105.79054595510912,-23.499936572074038,0,-25.63956069946289,39.733821868896484,-34.63589859008789
-0.09648206830024719,-0.06803005188703537,9.832145690917969,-0.011782037923457216,-0.009389935657780304,-0.24311994262382003,4.479999542236328,2019-08-07 13:39:50:639,107.26876179185118,-26.615395195172425,0,-25.63956069946289,39.733821868896484,-34.63589859008789
-0.015060581266880035,-0.08718805015087128,9.707618713378906,-0.00672079649926195,-0.0019312633050590406,-0.23965698432411955,4.490002632141113,2019-08-07 13:39:50:649,108.72269349934534,-29.66902075244881,0,-25.63956069946289,39.733821868896484,-34.63589859008789
-0.019850080832839012,-0.04887205362319946,9.822566032409668,-0.005388890341167176,-0.006726123861739408,-0.2401897497001899,4.500000715255737,2019-08-07 13:39:50:659,110.14969987713704,-32.66691362128326,0,-25.63956069946289,39.733821868896484,-34.63589859008789
0.11904539912939072,0.00620719138532877,9.858488082885742,-0.010183751157921868,-0.011254603030756228,-0.22980089144584528,4.5100133419036865,2019-08-07 13:39:50:669,104.36687004448484,-28.408571468071464,0,-25.63956069946289,39.733821868896484,-34.63589859008789
0.1789141446352005,0.05410218611359596,9.86567211151123,-0.0056552714687564,-0.012320127541113125,-0.2258051677700745,4.519999742507935,2019-08-07 13:39:50:679,98.70721989326705,-24.24351293326307,0,-25.63956069946289,39.733821868896484,-34.63589859008789
0.17651939392089844,0.05889168381690979,9.78664493560791,-0.005122509213577951,-0.00805802949968553,-0.2108878204638887,4.530002593994141,2019-08-07 13:39:50:689,93.15826772503841,-20.16266110046648,0,-25.63956069946289,39.733821868896484,-34.63589859008789
