ACCELEROMETER X (m/s²),ACCELEROMETER Y (m/s²),ACCELEROMETER Z (m/s²),GYROSCOPE X (rad/s),GYROSCOPE Y (rad/s),GYROSCOPE Z (rad/s),Pitch (Deg),Roll (Deg),Heading (Deg),Time since start in ms ,YYYY-MO-DD HH-MI-SS_SSS
0.1848483383655548,0.38998258113861084,9.74080753326416,-0.0029235329403103213,-0.008879815473354034,0.07400707455253794,-3.578256918541167,3.5541466578644276,0,0.0,2019-08-07 13:27:48:943
0.14892709255218506,0.34927183389663696,9.647412300109863,-0.005320963088613342,-0.004084954916673665,0.07267516943474046,-7.088289980621889,7.042525131084352,0,0.003111600875854492,2019-08-07 13:27:48:946
0.13216383755207062,0.44027233123779297,9.757570266723633,-0.002390770685131872,-0.0014211433807070943,0.06867944992015884,-10.530770972039242,10.450396704722944,0,0.00603175163269043,2019-08-07 13:27:48:949
0.06990034878253937,0.5408518314361572,9.759964942932129,0.0005394218158774704,0.0007099057700438648,0.0721424040586701,-13.912102437242973,13.777835531490231,0,0.009888410568237305,2019-08-07 13:27:48:953
0.017215855419635773,0.4450618326663971,9.85096549987793,-0.0007924839195965244,-0.0008883811255286454,0.06814668870527768,-17.23170276420918,17.05068035187953,0,0.012995481491088867,2019-08-07 13:27:48:956
0.02200535498559475,0.4833778440952301,9.886886596679688,-0.0007924839195965244,0.00017714346610147965,0.06388459066385009,-20.48454758732015,20.253817893217402,0,0.015946388244628906,2019-08-07 13:27:48:959
0.005242106970399618,0.49295681715011597,9.831808090209961,-0.0034562954555630953,-0.007015147580229461,0.0585569701926602,-23.672963652204874,23.391966203149522,0,0.019201040267944336,2019-08-07 13:27:48:962
0.04116335138678551,0.5887468457221985,9.872518539428711,0.00027304068828824584,-0.007015147580229461,0.06388459066385009,-26.793166442701825,26.455810411111248,0,0.023161649703979492,2019-08-07 13:27:48:966
-0.08815313130617142,0.5576151013374329,9.762359619140625,0.006133425917871965,-0.011010864494067829,0.054827633366113765,-22.665796431654627,29.46027913687048,0,0.026160240173339844,2019-08-07 13:27:48:969
-0.2007063627243042,0.5073253512382507,9.992256164550781,-0.0018580084299534227,-0.014740200280316973,0.055626777269030085,-18.63241377799892,32.413331536884385,0,0.029882431030273438,2019-08-07 13:27:48:973
0.05792659893631935,0.6701682806015015,9.81025505065918,0.003203233254316169,-0.007281528707818685,0.05216381896932961,-21.851730214940307,35.286347083107884,0,0.03298640251159668,2019-08-07 13:27:48:976
-0.0953373834490776,0.5336675643920898,9.800676345825195,0.005334282535104291,-0.0022202867634747683,0.046569815810104546,-17.825443626061592,38.117326338572596,0,0.03618431091308594,2019-08-07 13:27:48:979
-0.057021383196115494,0.4187195897102356,9.870123863220215,-0.0005261027594980092,-0.003019430146242442,0.0471025811861749,-13.87487740298192,40.906513878803615,0,0.04017996788024902,2019-08-07 13:27:48:983
0.15371659398078918,0.46182507276535034,9.774333953857422,0.0008058029759759856,-0.0011547622531178697,0.03911114631820086,-17.179121179614487,43.63411408078399,0,0.043863773345947266,2019-08-07 13:27:48:987
-0.1216796264052391,0.4522460997104645,9.894071578979492,-0.0037226765831523197,-0.009146196080794608,0.034049902293262345,-13.248320170019966,46.30962325519138,0,0.04641580581665039,2019-08-07 13:27:48:990
-0.0761793851852417,0.5360623002052307,9.803071022033691,-0.0013252461747749735,-0.007814290962997135,0.02898866242951303,-9.390595668949972,48.921112919243946,0,0.05020546913146973,2019-08-07 13:27:48:993
0.07229509949684143,0.5600098371505737,9.692912101745605,0.0024040898715484956,-0.0046177169117777896,0.026591230720764056,-12.793298023863338,51.47606981252475,0,0.05382704734802246,2019-08-07 13:27:48:997
-0.10970588028430939,0.6102995872497559,9.795886039733887,0.0016049463587436595,-0.00435133604426289,0.020198083658622665,-8.949633795837231,53.97501541721718,0,0.05640983581542969,2019-08-07 13:27:49:000
-0.08096887916326523,0.5791678428649902,9.63304328918457,0.0024040898715484956,-0.001687524508296319,0.018067034637908867,-5.179912585000877,56.426189003100305,0,0.060210227966308594,2019-08-07 13:27:49:003
0.11061109602451324,0.5576151013374329,9.783912658691406,0.00586704479028274,-0.001687524508296319,0.015136841714278747,-8.663016594872484,58.83123318022545,0,0.06383275985717773,2019-08-07 13:27:49:007
-0.11689012497663498,0.4690093398094177,9.8797025680542,0.0010721841035652101,-0.0046177169117777896,0.0124730304383865,-4.902693126289877,61.20010640054682,0,0.06622481346130371,2019-08-07 13:27:49:009
-0.04025813564658165,0.4522460997104645,9.934782028198242,6.659528697688281e-06,-0.0027530490186532175,0.009276456907315806,-1.2087148580389049,63.5239750981613,0,0.06989860534667969,2019-08-07 13:27:49:013
-0.01870539039373398,0.3923773467540741,9.834202766418457,-0.00425543883833077,-0.006748766452640236,0.010075600810232132,2.4144645432067384,65.80854568379219,0,0.07302498817443848,2019-08-07 13:27:49:016
-0.0498371347784996,0.4426670968532562,9.836597442626953,-0.012513254573819707,-0.009412577728532483,0.0026169284575108674,5.961931385569957,68.04291735783372,0,0.07598018646240234,2019-08-07 13:27:49:019
-0.05941613391041756,0.6150890588760376,9.75278091430664,-0.0013252461747749735,-0.006748766452640236,0.003149690712689317,9.437139691757633,70.21016433899744,0,0.07974863052368164,2019-08-07 13:27:49:023
-0.04744238778948784,0.569588840007782,9.767149925231934,0.0016049463587436595,-0.0046177169117777896,0.0023505473299216427,12.843723059317831,72.33890043031442,0,0.08318972587585449,2019-08-07 13:27:49:026
0.05553185194730759,0.5073253512382507,9.640227317810059,-0.0018580084299534227,-0.0011547622531178697,-0.0035098379971899483,8.993659718277168,74.43221144973415,0,0.08643198013305664,2019-08-07 13:27:49:030
0.08426884561777115,0.5671940445899963,9.831808090209961,0.004268757764673068,0.0020418114079899874,-0.00963660471196509,5.223188970629283,76.476656887163,0,0.09008669853210449,2019-08-07 13:27:49:033
0.08666359633207321,0.4306933283805847,9.788702011108398,-0.002390770685131872,-0.0011547622531178697,-0.008038317426281092,1.529066014277499,78.49714246422022,0,0.09310650825500488,2019-08-07 13:27:49:036
0.11061109602451324,0.4570355713367462,9.817439079284668,-0.0005261027594980092,-0.00435133604426289,-0.01150127208494101,-2.0878767861121243,80.47397984074723,0,0.09608721733093262,2019-08-07 13:27:49:039
0.17526933550834656,0.433088093996048,9.894071578979492,-0.0037226765831523197,-0.003019430146242442,-0.013365940498214234,-5.625172221217532,82.41517373617897,0,0.09991955757141113,2019-08-07 13:27:49:043
0.18963783979415894,0.46661457419395447,9.877307891845703,-0.005853725863940442,-0.006748766452640236,-0.012833178243035783,-9.089483854223182,84.31380560244715,0,0.10305142402648926,2019-08-07 13:27:49:046
0.15371659398078918,0.4426670968532562,9.827017784118652,-0.006120106991529666,-0.005949623069872562,-0.018160800794820277,-12.488784660596309,86.17696008570447,0,0.1060037612915039,2019-08-07 13:27:49:049
0.1848483383655548,0.4570355713367462,9.697701454162598,6.659528697688281e-06,-0.009678958335973056,-0.013099558850476358,-15.815055004929345,87.99945437767143,0,0.1098940372467041,2019-08-07 13:27:49:053
0.06271609663963318,0.41393008828163147,9.800676345825195,0.0008058029759759856,-0.007814290962997135,-0.011234891477500435,-19.089980924596812,89.79094795359359,0,0.11317634582519531,2019-08-07 13:27:49:056
0.1848483383655548,0.38279834389686584,9.819833755493164,-0.0026571518127210965,-0.0054168602945454634,-0.013898702753392682,-22.285630420350888,91.55096340288019,0,0.11640739440917969,2019-08-07 13:27:49:060
0.1728745847940445,0.4043510854244232,9.771939277648926,-0.0015916273023641983,-0.003285811533905992,-0.013632321105654805,-25.419008309167584,93.27286424306797,0,0.1198725700378418,2019-08-07 13:27:49:063
0.1656903326511383,0.40914058685302734,9.647412300109863,-0.006652869246708115,-0.006216004197461787,-0.012833178243035783,-28.4898560913329,94.96000871448045,0,0.12300515174865723,2019-08-07 13:27:49:066
0.17047983407974243,0.42829859256744385,9.764754295349121,-0.00425543883833077,-0.0024866678910639927,-0.009103842456786639,-31.499642158885006,96.61128512343954,0,0.1259605884552002,2019-08-07 13:27:49:069
0.19682207703590393,0.33729809522628784,9.736018180847168,-0.005853725863940442,-0.0019539056358855436,-0.010169366967143538,-34.44607381926756,98.24061300685017,0,0.12972474098205566,2019-08-07 13:27:49:073
0.2519013285636902,0.39477208256721497,9.848570823669434,-0.005054581961024118,-0.0056832419422833385,-0.010702129222321988,-37.326750197008366,99.83086958990361,0,0.13316845893859863,2019-08-07 13:27:49:076
0.24711182713508606,0.3780088424682617,9.759964942932129,-0.004788200833434893,-0.005949623069872562,-0.012566796595297908,-40.150127047585656,101.39076239657398,0,0.13640427589416504,2019-08-07 13:27:49:080
0.21358533203601837,0.3780088424682617,9.836597442626953,-0.0031899140678995457,-0.007814290962997135,-0.008304698553870315,-42.92071149248052,102.91955934430763,0,0.13990330696105957,2019-08-07 13:27:49:083
0.2255590856075287,0.3085611164569855,9.807860374450684,-0.005054581961024118,-0.007547909835407911,-0.007505555171102641,-45.63462752208882,104.4260133961264,0,0.1430199146270752,2019-08-07 13:27:49:086
0.23034857213497162,0.31574535369873047,9.78151798248291,-0.00425543883833077,-0.007547909835407911,-0.010169366967143538,-48.29370464338093,105.90122063611707,0,0.14596867561340332,2019-08-07 13:27:49:089
0.22076958417892456,0.36364033818244934,9.757570266723633,-0.00425543883833077,-0.011010864494067829,-0.006706411788334968,-50.899581173212404,107.34140985939875,0,0.14973235130310059,2019-08-07 13:27:49:093
0.15850608050823212,0.3923773467540741,9.791096687316895,-0.006919250374297341,-0.009678958335973056,-0.006706411788334968,-53.46117327448034,108.75001835622443,0,0.1531674861907959,2019-08-07 13:27:49:096
0.20400632917881012,0.4067458510398865,9.771939277648926,-0.006652869246708115,-0.007281528707818685,-0.006440030660745744,-55.96670954689355,110.12855479011061,0,0.15639781951904297,2019-08-07 13:27:49:100
0.17526933550834656,0.36124560236930847,9.874913215637207,-0.00425543883833077,-0.012076389004424728,-0.004042600252368397,-58.42467154056805,111.48491644752073,0,0.15988874435424805,2019-08-07 13:27:49:103
0.09624259918928146,0.37561410665512085,9.79349136352539,-0.008783917747273263,-0.008879815473354034,-0.004308981379957623,-60.843357682503864,112.81283264637906,0,0.16301679611206055,2019-08-07 13:27:49:106
0.2710593342781067,0.3923773467540741,9.747991561889648,-0.00425543883833077,-0.007015147580229461,-0.001911551101617438,-63.193402109412744,114.11122299815341,0,0.16614580154418945,2019-08-07 13:27:49:109
0.07708460092544556,0.4187195897102356,9.807860374450684,-0.0039890577107415445,-0.007281528707818685,-0.0032434568696007235,-65.51900319393704,115.38094183442293,0,0.1698751449584961,2019-08-07 13:27:49:113
0.05074235051870346,0.38279834389686584,9.786307334899902,-0.0077183937570650145,-0.0054168602945454634,-0.006706411788334968,-67.80173015472614,116.62987819338043,0,0.1730031967163086,2019-08-07 13:27:49:116
0.12497959285974503,0.4259038269519806,9.757570266723633,-0.0039890577107415445,-0.0046177169117777896,-0.0035098379971899483,-70.03025145072132,117.84795778809915,0,0.1759631633758545,2019-08-07 13:27:49:119
0.07229509949684143,0.3444823622703552,9.803071022033691,-0.0039890577107415445,-0.0038185737890844406,-0.006972792915924193,-72.2203865174159,119.05159279172314,0,0.17973732948303223,2019-08-07 13:27:49:123
0.17047983407974243,0.380403608083725,9.800676345825195,-0.0021243895575426474,-0.004084954916673665,-0.009370223064227214,-74.35518745406462,120.22655316185578,0,0.1834888458251953,2019-08-07 13:27:49:127
0.10821634531021118,0.380403608083725,9.803071022033691,-0.0039890577107415445,-0.0064823853250510115,-0.005374506150388846,-76.45450665449681,121.37814859946741,0,0.18603777885437012,2019-08-07 13:27:49:129
0.12976908683776855,0.3995615839958191,9.836597442626953,-0.0029235329403103213,-0.01154362674924628,-0.006706411788334968,-78.50778794226488,122.50470041383161,0,0.18991327285766602,2019-08-07 13:27:49:133
0.15611134469509125,0.36364033818244934,9.812649726867676,-0.005054581961024118,-0.008347053218175584,-0.005907268405567294,-80.51793761318307,123.61304756653516,0,0.193040132522583,2019-08-07 13:27:49:136
0.09624259918928146,0.3660351037979126,9.788702011108398,-0.0026571518127210965,-0.01154362674924628,-0.00617364953315652,-82.49440481924873,124.69839575988313,0,0.1959834098815918,2019-08-07 13:27:49:139
0.1393480896949768,0.38279834389686584,9.803071022033691,-0.002390770685131872,-0.009146196080794608,-0.007505555171102641,-84.42629361620382,125.76020979844454,0,0.1997518539428711,2019-08-07 13:27:49:143
0.11061109602451324,0.4115353524684906,9.78151798248291,0.0010721841035652101,-0.0035521926614952163,-0.00963660471196509,-86.32412312228456,126.79661484912624,0,0.20319604873657227,2019-08-07 13:27:49:146
0.17766408622264862,0.3325085937976837,9.726438522338867,-0.004521819705845669,-0.0022202867634747683,-0.006440030660745744,-88.176307342333,127.82234673265226,0,0.20643854141235352,2019-08-07 13:27:49:150
0.15371659398078918,0.3516665995121002,9.807860374450684,-0.0026571518127210965,-0.0024866678910639927,-0.012300415987857336,-89.9943428641959,128.82534293066544,0,0.20987701416015625,2019-08-07 13:27:49:153
0.199216827750206,0.4115353524684906,9.82222843170166,0.00027304068828824584,-0.0019539056358855436,-0.009902985319405663,-91.77087463703188,129.80080423709603,0,0.21300172805786133,2019-08-07 13:27:49:156
0.18724308907985687,0.3468770980834961,9.85096549987793,-0.002390770685131872,-0.004084954916673665,-0.01549698951892803,-93.51300149931129,130.7648505932777,0,0.21595406532287598,2019-08-07 13:27:49:159
0.2375328242778778,0.39477208256721497,9.7982816696167,-0.002390770685131872,-0.0011547622531178697,-0.012300415987857336,-95.21472314279052,131.7039151451485,0,0.21971940994262695,2019-08-07 13:27:49:163
0.192032590508461,0.31574535369873047,9.76954460144043,-0.005853725863940442,-0.0019539056358855436,-0.01549698951892803,-96.88752884052606,132.6339479483214,0,0.22316789627075195,2019-08-07 13:27:49:166
0.20879583060741425,0.3923773467540741,9.815044403076172,-0.00025972161565413924,-0.0022202867634747683,-0.014431465008571131,-98.52500101039458,133.53553018668205,0,0.22640705108642578,2019-08-07 13:27:49:170
0.25429606437683105,0.4163248538970947,9.81025505065918,0.001338565231154435,-0.0054168602945454634,-0.017361656891903953,-100.1236604042357,134.41593614415396,0,0.23016643524169922,2019-08-07 13:27:49:173
0.21358533203601837,0.3085611164569855,9.8797025680542,-0.002390770685131872,-0.007015147580229461,-0.016828894636725503,-101.69529420162024,135.29222299840768,0,0.23301935195922852,2019-08-07 13:27:49:176
0.18005883693695068,0.37561410665512085,9.812649726867676,-0.002390770685131872,-0.0056832419422833385,-0.01549698951892803,-103.23941856470739,136.14293345444824,0,0.23598051071166992,2019-08-07 13:27:49:179
0.18724308907985687,0.4259038269519806,9.836597442626953,-0.00025972161565413924,-0.011010864494067829,-0.01656251402928493,-104.75049550270583,136.9705448662989,0,0.23974013328552246,2019-08-07 13:27:49:183
0.2830330729484558,0.4378775954246521,9.815044403076172,0.0024040898715484956,-0.008080672090586358,-0.018160800794820277,-106.22088926501087,137.77958078065993,0,0.2431807518005371,2019-08-07 13:27:49:186
0.23274332284927368,0.4067458510398865,9.771939277648926,-0.0018580084299534227,-0.0008883811255286454,-0.017095276284463376,-107.66902221039076,138.5766571563332,0,0.24641966819763184,2019-08-07 13:27:49:190
0.27345407009124756,0.37561410665512085,9.70249080657959,-0.00025972161565413924,-0.0008883811255286454,-0.016828894636725503,-109.08318073006032,139.36083477647722,0,0.249891996383667,2019-08-07 13:27:49:193
0.2902173101902008,0.36842983961105347,9.771939277648926,-0.0029235329403103213,-0.0003556188378409054,-0.015763370126368605,-110.46743198940717,140.13094826296702,0,0.2530231475830078,2019-08-07 13:27:49:196
0.26866456866264343,0.44027233123779297,9.788702011108398,-0.00025972161565413924,-0.001687524508296319,-0.017361656891903953,-111.82635934292055,140.87686667086444,0,0.2559850215911865,2019-08-07 13:27:49:199
0.31177008152008057,0.3468770980834961,9.776728630065918,0.00027304068828824584,-0.0011547622531178697,-0.01656251402928493,-113.1530580591242,141.6186316619047,0,0.259753942489624,2019-08-07 13:27:49:203
0.3620598018169403,0.3780088424682617,9.83899211883545,-0.002390770685131872,-0.0056832419422833385,-0.01549698951892803,-114.44675239350983,142.34271608498088,0,0.2631871700286865,2019-08-07 13:27:49:206
0.3500860631465912,0.36842983961105347,9.803071022033691,0.0005394218158774704,-0.007015147580229461,-0.01656251402928493,-115.71563621902578,143.0527168637798,0,0.26642584800720215,2019-08-07 13:27:49:210
0.4410865604877472,0.4115353524684906,9.75278091430664,6.659528697688281e-06,-0.005150479166956239,-0.017361656891903953,-116.94852904205229,143.7433360193574,0,0.2698965072631836,2019-08-07 13:27:49:213
0.3237438201904297,0.44027233123779297,9.82222843170166,-0.0018580084299534227,-0.012609151259603176,-0.01656251402928493,-118.16958400104285,144.41746593578665,0,0.27302980422973633,2019-08-07 13:27:49:216
0.33332282304763794,0.3851930797100067,9.776728630065918,-0.0021243895575426474,-0.008613434345764809,-0.014697845616011706,-119.36571165142506,145.0843441390238,0,0.27598142623901367,2019-08-07 13:27:49:219
0.28063830733299255,0.43548282980918884,9.805465698242188,0.0026704709991377204,-0.0064823853250510115,-0.010968509829762562,-120.54417639288862,145.73120757180675,0,0.279918909072876,2019-08-07 13:27:49:223
0.3093753159046173,0.42111432552337646,9.750386238098145,-0.0018580084299534227,-0.008080672090586358,-0.012300415987857336,-121.695479768406,146.36745969554678,0,0.28314971923828125,2019-08-07 13:27:49:226
0.3285333216190338,0.3971668481826782,9.762359619140625,-0.0007924839195965244,-0.004084954916673665,-0.010169366967143538,-122.82227829509301,146.99366046718583,0,0.2863883972167969,2019-08-07 13:27:49:230
0.2902173101902008,0.40914058685302734,9.870123863220215,0.0026704709991377204,-0.0022202867634747683,-0.009902985319405663,-123.9317119766745,147.60578857249735,0,0.289888858795166,2019-08-07 13:27:49:233
0.3572703003883362,0.4378775954246521,9.783912658691406,-0.0021243895575426474,-0.0003556188378409054,-0.011234891477500435,-125.0111895815057,148.20279433013027,0,0.2930126190185547,2019-08-07 13:27:49:236
0.38361257314682007,0.46182507276535034,9.81025505065918,-0.001058865047185749,-0.0027530490186532175,-0.010968509829762562,-126.06572305033468,148.78500901159452,0,0.29596614837646484,2019-08-07 13:27:49:239
0.4482707977294922,0.36842983961105347,9.762359619140625,-0.0026571518127210965,-8.92376858697129e-05,-0.012566796595297908,-127.091808193554,149.3666440740106,0,0.2997288703918457,2019-08-07 13:27:49:243
0.36684930324554443,0.4306933283805847,9.764754295349121,-0.00025972161565413924,-0.0006219999979394207,-0.00857107968145954,-128.10682134733986,149.92885136067284,0,0.3031744956970215,2019-08-07 13:27:49:246
0.37163880467414856,0.3923773467540741,9.827017784118652,-0.0005261027594980092,-0.006748766452640236,-0.007505555171102641,-129.10014089519646,150.4846397772425,0,0.30641603469848633,2019-08-07 13:27:49:250
0.29979631304740906,0.5049305558204651,9.795886039733887,0.001871327486332884,-0.0027530490186532175,-0.010169366967143538,-130.08254447707603,151.0155694262181,0,0.3098742961883545,2019-08-07 13:27:49:253
0.29500681161880493,0.4761935770511627,9.831808090209961,-0.0029235329403103213,-0.005150479166956239,-0.009103842456786639,-131.04561402268303,151.5403145530932,0,0.31300806999206543,2019-08-07 13:27:49:256
0.24232232570648193,0.4690093398094177,9.791096687316895,6.659528697688281e-06,-0.007281528707818685,-0.007239174043513418,-131.99513599369035,152.05465787365165,0,0.31596994400024414,2019-08-07 13:27:49:259
0.3237438201904297,0.4450618326663971,9.795886039733887,6.659528697688281e-06,-0.0046177169117777896,-0.00617364953315652,-132.9163990103907,152.56153607827167,0,0.31973695755004883,2019-08-07 13:27:49:263
0.3357175588607788,0.49295681715011597,9.776728630065918,-0.00025972161565413924,-0.005949623069872562,-0.007239174043513418,-133.81758788907442,153.05262570862965,0,0.3231782913208008,2019-08-07 13:27:49:266
0.29500681161880493,0.4570355713367462,9.76954460144043,-0.002390770685131872,-0.009678958335973056,-0.005640887277978069,-134.7048498340332,153.53844756057362,0,0.326479434967041,2019-08-07 13:27:49:270
0.2782435715198517,0.42829859256744385,9.79349136352539,-0.0013252461747749735,-0.0046177169117777896,-0.0037762191247791726,-135.57731830840905,154.01785066035725,0,0.3298988342285156,2019-08-07 13:27:49:273
0.20161157846450806,0.380403608083725,9.74080753326416,-0.0021243895575426474,-0.0064823853250510115,-0.005640887277978069,-136.44092441370924,154.4931367866388,0,0.33301210403442383,2019-08-07 13:27:49:276
0.31177008152008057,0.4450618326663971,9.750386238098145,-0.0021243895575426474,-0.0035521926614952163,-0.005374506150388846,-137.2748894820155,154.95135608649483,0,0.33596062660217285,2019-08-07 13:27:49:279
0.23034857213497162,0.34927183389663696,9.719254493713379,-0.001058865047185749,-0.0035521926614952163,-0.005640887277978069,-138.10148895904223,155.41139034476342,0,0.3397176265716553,2019-08-07 13:27:49:283
0.20400632917881012,0.42111432552337646,9.736018180847168,-0.0039890577107415445,-0.004084954916673665,-0.005374506150388846,-138.91466259083856,155.85439917767553,0,0.3431568145751953,2019-08-07 13:27:49:286
0.18245358765125275,0.4714040756225586,9.79349136352539,-0.001058865047185749,-0.005949623069872562,-0.008304698553870315,-139.71394422273502,156.28238779159565,0,0.3463869094848633,2019-08-07 13:27:49:290
0.21598008275032043,0.4067458510398865,9.803071022033691,-0.006386488119118891,-0.006216004197461787,-0.006972792915924193,-140.4932025701625,156.7104749757174,0,0.3498828411102295,2019-08-07 13:27:49:293
0.20400632917881012,0.40914058685302734,9.767149925231934,-0.005320963088613342,-0.0064823853250510115,-0.0037762191247791726,-141.2582689712121,157.1292261023999,0,0.3530101776123047,2019-08-07 13:27:49:296
0.20879583060741425,0.40914058685302734,9.776728630065918,-0.0005261027594980092,-0.013141913514781627,-0.004308981379957623,-142.00646083893008,157.53880181886072,0,0.3559560775756836,2019-08-07 13:27:49:299
0.14892709255218506,0.44745659828186035,9.79349136352539,-0.0039890577107415445,-0.007814290962997135,-0.004042600252368397,-142.7472608464573,157.93654672046208,0,0.3597085475921631,2019-08-07 13:27:49:303
0.13695333898067474,0.38998258113861084,9.724043846130371,-0.005853725863940442,-0.008080672090586358,-0.004308981379957623,-143.4746141454231,158.33301608684417,0,0.36315441131591797,2019-08-07 13:27:49:306
0.199216827750206,0.40195634961128235,9.884491920471191,-0.005054581961024118,-0.01047810223888938,-0.007239174043513418,-144.1802667119048,158.72063279780608,0,0.3661508560180664,2019-08-07 13:27:49:309
0.1201900914311409,0.4498513340950012,9.7982816696167,-0.00425543883833077,-0.0046177169117777896,-0.005907268405567294,-144.88162366588935,159.09455170096697,0,0.36993861198425293,2019-08-07 13:27:49:313
0.11779534071683884,0.43548282980918884,9.750386238098145,-0.0077183937570650145,-0.006748766452640236,-0.004841743895210396,-145.5689412780759,159.46289451487647,0,0.3731229305267334,2019-08-07 13:27:49:316
0.16808508336544037,0.4690093398094177,9.76954460144043,-0.004521819705845669,-0.0003556188378409054,-0.006440030660745744,-146.2377894740305,159.81942230056305,0,0.3760995864868164,2019-08-07 13:27:49:319
0.15371659398078918,0.4426670968532562,9.819833755493164,-0.006652869246708115,-0.0038185737890844406,-0.007505555171102641,-146.89427753684538,160.17284051723425,0,0.37992310523986816,2019-08-07 13:27:49:323
0.09624259918928146,0.433088093996048,9.707281112670898,-0.0029235329403103213,-0.003019430146242442,-0.008304698553870315,-147.5445006726282,160.51880651329273,0,0.38305234909057617,2019-08-07 13:27:49:326
0.1656903326511383,0.4067458510398865,9.82222843170166,-0.0018580084299534227,-0.006748766452640236,-0.010169366967143538,-148.17316472985215,160.86131189074882,0,0.3860011100769043,2019-08-07 13:27:49:329
0.10582159459590912,0.42111432552337646,9.848570823669434,-0.0037226765831523197,-0.009945339983710931,-0.007239174043513418,-148.79520716629773,161.19593412408028,0,0.3899085521697998,2019-08-07 13:27:49:333
0.14892709255218506,0.44745659828186035,9.779123306274414,-0.0021243895575426474,-0.012076389004424728,-0.008038317426281092,-149.39962517075762,161.52001104413662,0,0.39319419860839844,2019-08-07 13:27:49:336
0.14413759112358093,0.4067458510398865,9.865334510803223,-0.0034562954555630953,-0.008879815473354034,-0.0077719362986918665,-149.99327830271628,161.8430195710101,0,0.39642953872680664,2019-08-07 13:27:49:340
0.014821105636656284,0.4067458510398865,9.78151798248291,-0.005054581961024118,-0.007547909835407911,-0.009370223064227214,-150.5902132952767,162.15951570412707,0,0.39988183975219727,2019-08-07 13:27:49:343
0.11300584673881531,0.4450618326663971,9.786307334899902,-0.0037226765831523197,-0.008080672090586358,-0.006706411788334968,-151.1637574014505,162.46490145599472,0,0.4030113220214844,2019-08-07 13:27:49:346
0.08187409490346909,0.47379884123802185,9.745596885681152,-0.0037226765831523197,-0.00435133604426289,-0.00857107968145954,-151.7301333349784,162.7605544312065,0,0.40596699714660645,2019-08-07 13:27:49:349
0.14174284040927887,0.3588508367538452,9.7982816696167,-0.006386488119118891,-0.0014211433807070943,-0.006972792915924193,-152.27865409886368,163.0647460393841,0,0.40973663330078125,2019-08-07 13:27:49:353
0.10342684388160706,0.37561410665512085,9.795886039733887,-0.006120106991529666,-0.0046177169117777896,-0.01150127208494101,-152.820091684604,163.36071444028713,0,0.41317296028137207,2019-08-07 13:27:49:356
0.02918960340321064,0.4163248538970947,9.747991561889648,-0.006652869246708115,-0.00435133604426289,-0.009370223064227214,-153.35946796699943,163.6457978908211,0,0.4164085388183594,2019-08-07 13:27:49:360
0.14174284040927887,0.41393008828163147,9.8797025680542,-0.004521819705845669,-0.005949623069872562,-0.009370223064227214,-153.87467122347496,163.9257874054764,0,0.419905424118042,2019-08-07 13:27:49:363
0.08905834704637527,0.4163248538970947,9.827017784118652,-0.002390770685131872,-0.004084954916673665,-0.013632321105654805,-154.38607682975896,164.19917278822274,0,0.42302823066711426,2019-08-07 13:27:49:366
0.15132184326648712,0.38758784532546997,9.831808090209961,-0.009050299395011138,-0.0064823853250510115,-0.012300415987857336,-154.87964280572444,164.4715423157393,0,0.42598724365234375,2019-08-07 13:27:49:369
0.12497959285974503,0.4235090911388397,9.75278091430664,-0.004521819705845669,-0.008080672090586358,-0.012034034340119461,-155.3656579945168,164.73333780181284,0,0.4297518730163574,2019-08-07 13:27:49:373
0.13216383755207062,0.3780088424682617,9.71207046508789,-0.005054581961024118,-0.008613434345764809,-0.012034034340119461,-155.84109056429435,164.99506767505872,0,0.43318700790405273,2019-08-07 13:27:49:376
0.09624259918928146,0.38758784532546997,9.776728630065918,-0.008251156012243464,-0.009146196080794608,-0.010435747574584113,-156.3113202772833,165.25126663554286,0,0.4364356994628906,2019-08-07 13:27:49:380
0.10582159459590912,0.36124560236930847,9.877307891845703,-0.002390770685131872,-0.009412577728532483,-0.011234891477500435,-156.77099210339873,165.5048137099312,0,0.43988943099975586,2019-08-07 13:27:49:383
0.10582159459590912,0.41393008828163147,9.817439079284668,-0.0021243895575426474,-0.008879815473354034,-0.008038317426281092,-157.22166050327667,165.74680442510984,0,0.44301915168762207,2019-08-07 13:27:49:386
0.08666359633207321,0.3851930797100067,9.755175590515137,-0.005320963088613342,-0.009678958335973056,-0.007505555171102641,-157.66544652429903,165.98752426140516,0,0.4459648132324219,2019-08-07 13:27:49:389
0.09863734245300293,0.4594303369522095,9.83899211883545,-0.002390770685131872,-0.0064823853250510115,-0.006706411788334968,-158.09928182031072,166.21480885116623,0,0.4497237205505371,2019-08-07 13:27:49:393
0.15371659398078918,0.4043510854244232,9.853360176086426,-0.005054581961024118,-0.006748766452640236,-0.0077719362986918665,-158.51811715955165,166.44449068082614,0,0.45316410064697266,2019-08-07 13:27:49:396
0.19682207703590393,0.44027233123779297,9.81025505065918,-0.0031899140678995457,-0.0038185737890844406,-0.008304698553870315,-158.92407479505385,166.66478673321816,0,0.45639491081237793,2019-08-07 13:27:49:400
0.1201900914311409,0.3660351037979126,9.678544044494629,-0.0039890577107415445,-0.0054168602945454634,-0.00963660471196509,-159.33030036858818,166.88895713822265,0,0.45989131927490234,2019-08-07 13:27:49:403
0.17047983407974243,0.3780088424682617,9.78151798248291,-0.00425543883833077,-0.006748766452640236,-0.00617364953315652,-159.7225380476647,167.10766397702358,0,0.46302223205566406,2019-08-07 13:27:49:406
0.15371659398078918,0.44027233123779297,9.834202766418457,-0.0015916273023641983,-0.0014211433807070943,-0.007505555171102641,-160.10989046274744,167.3145639454694,0,0.4666149616241455,2019-08-07 13:27:49:410
0.17047983407974243,0.3468770980834961,9.803071022033691,-0.009316680002451712,-0.0054168602945454634,-0.011234891477500435,-160.48677087654812,167.52945459746678,0,0.46988892555236816,2019-08-07 13:27:49:413
0.17526933550834656,0.38279834389686584,9.86054515838623,-0.0026571518127210965,-0.006748766452640236,-0.012034034340119461,-160.8554837280941,167.73486873466783,0,0.47301721572875977,2019-08-07 13:27:49:416
0.18724308907985687,0.4235090911388397,9.73122787475586,-0.004788200833434893,-0.004084954916673665,-0.010169366967143538,-161.2156523063449,167.93112349150013,0,0.47596168518066406,2019-08-07 13:27:49:419
0.10582159459590912,0.4187195897102356,9.764754295349121,-0.0021243895575426474,-0.008879815473354034,-0.009103842456786639,-161.57704144849185,168.1238431759283,0,0.47973203659057617,2019-08-07 13:27:49:423
0.15371659398078918,0.3732193410396576,9.913228988647461,-0.0031899140678995457,-0.008879815473354034,-0.006440030660745744,-161.92601988345203,168.3188600354212,0,0.483168363571167,2019-08-07 13:27:49:426
0.16329558193683624,0.42829859256744385,9.714465141296387,-0.0031899140678995457,-0.011010864494067829,-0.012300415987857336,-162.26623990113563,168.50257270022718,0,0.4864017963409424,2019-08-07 13:27:49:430
0.10103209316730499,0.45464083552360535,9.747991561889648,-0.0034562954555630953,-0.007015147580229461,-0.005907268405567294,-162.6076703936913,168.67978929024483,0,0.48987579345703125,2019-08-07 13:27:49:433
0.20161157846450806,0.36124560236930847,9.73122787475586,-0.0029235329403103213,-0.006748766452640236,-0.00857107968145954,-162.93059304800525,168.864187881348,0,0.49300622940063477,2019-08-07 13:27:49:436
0.1393480896949768,0.35645610094070435,9.736018180847168,-0.0018580084299534227,-0.003285811533905992,-0.008304698553870315,-163.2550347740251,169.0452774780363,0,0.4959681034088135,2019-08-07 13:27:49:439
0.192032590508461,0.3588508367538452,9.795886039733887,-0.00425543883833077,-0.006216004197461787,-0.007505555171102641,-163.56615674984891,169.22331376373933,0,0.4997396469116211,2019-08-07 13:27:49:443
0.2111905813217163,0.36124560236930847,9.791096687316895,-0.005320963088613342,0.0007099057700438648,-0.008038317426281092,-163.87025731387936,169.39761363221876,0,0.5031733512878418,2019-08-07 13:27:49:446
0.20879583060741425,0.3660351037979126,9.762359619140625,-0.0026571518127210965,-0.005949623069872562,-0.0077719362986918665,-164.1672673630797,169.5671981899538,0,0.5064058303833008,2019-08-07 13:27:49:450
0.19682207703590393,0.38279834389686584,9.819833755493164,-0.0037226765831523197,-0.003285811533905992,-0.010435747574584113,-164.4603153122735,169.73193372486324,0,0.5098845958709717,2019-08-07 13:27:49:453
0.21598008275032043,0.3732193410396576,9.81025505065918,-0.0018580084299534227,-0.0027530490186532175,-0.007239174043513418,-164.74540079683774,169.8940477984888,0,0.5130162239074707,2019-08-07 13:27:49:456
0.18245358765125275,0.3732193410396576,9.841386795043945,-0.0007924839195965244,-0.0054168602945454634,-0.008304698553870315,-165.02835212717446,170.0528620319683,0,0.5159702301025391,2019-08-07 13:27:49:459
0.18963783979415894,0.4378775954246521,9.716859817504883,0.00027304068828824584,-0.007814290962997135,-0.009103842456786639,-165.30377513649918,170.20014290810647,0,0.5197277069091797,2019-08-07 13:27:49:463
0.2183748334646225,0.3277190923690796,9.82222843170166,-0.0037226765831523197,-0.0054168602945454634,-0.010968509829762562,-165.57118219541545,170.35863874153935,0,0.523162841796875,2019-08-07 13:27:49:466
0.17526933550834656,0.36364033818244934,9.886886596679688,-0.00425543883833077,-0.005949623069872562,-0.006706411788334968,-165.83836496362838,170.5101116780544,0,0.5264003276824951,2019-08-07 13:27:49:470
0.23992757499217987,0.38279834389686584,9.795886039733887,-0.004521819705845669,-0.0054168602945454634,-0.00963660471196509,-166.09247674953355,170.6560375774949,0,0.5298852920532227,2019-08-07 13:27:49:473
0.2710593342781067,0.433088093996048,9.841386795043945,-0.0026571518127210965,-0.00435133604426289,-0.010435747574584113,-166.33830727999262,170.79298912026843,0,0.5330212116241455,2019-08-07 13:27:49:476
0.28782257437705994,0.38998258113861084,9.774333953857422,-0.001058865047185749,-0.007814290962997135,-0.010435747574584113,-166.57651259498832,170.9316085543942,0,0.5359721183776855,2019-08-07 13:27:49:479
0.26866456866264343,0.4067458510398865,9.774333953857422,-0.006120106991529666,-0.003019430146242442,-0.010702129222321988,-166.81285497595314,171.06661092185675,0,0.5397341251373291,2019-08-07 13:27:49:483
0.23992757499217987,0.4115353524684906,9.71207046508789,0.0008058029759759856,-0.005150479166956239,-0.00963660471196509,-167.04730335932584,171.1965960459386,0,0.5431625843048096,2019-08-07 13:27:49:486
0.23513807356357574,0.40914058685302734,9.834202766418457,-0.004521819705845669,-0.004884098039367014,-0.009370223064227214,-167.27807666237055,171.32583808239053,0,0.546396017074585,2019-08-07 13:27:49:490
0.29500681161880493,0.42829859256744385,9.79349136352539,-0.0031899140678995457,-0.003019430146242442,-0.009103842456786639,-167.4974135697996,171.44986633211528,0,0.5498988628387451,2019-08-07 13:27:49:493
0.28063830733299255,0.3325085937976837,9.86054515838623,-0.001058865047185749,-0.005150479166956239,-0.00857107968145954,-167.71395463680597,171.58242832265117,0,0.5530312061309814,2019-08-07 13:27:49:496
0.23034857213497162,0.4115353524684906,9.714465141296387,-0.0034562954555630953,-0.008080672090586358,-0.006706411788334968,-167.93116608462074,171.70283847335156,0,0.55599045753479,2019-08-07 13:27:49:499
0.2519013285636902,0.4115353524684906,9.76954460144043,-0.0018580084299534227,-0.0054168602945454634,-0.00857107968145954,-168.14179515177022,171.8209534865985,0,0.5599603652954102,2019-08-07 13:27:49:503
0.31895431876182556,0.3588508367538452,9.750386238098145,-0.00025972161565413924,-0.007281528707818685,-0.007505555171102641,-168.34016720060325,171.942426536973,0,0.5631895065307617,2019-08-07 13:27:49:506
0.2375328242778778,0.34927183389663696,9.73122787475586,-0.0034562954555630953,0.00044352460994534954,-0.012300415987857336,-168.54547917353213,172.06309630455823,0,0.5664341449737549,2019-08-07 13:27:49:510
0.26866456866264343,0.33729809522628784,9.750386238098145,-0.0031899140678995457,-0.0006219999979394207,-0.004575362767621172,-168.74288236984282,172.18282645638646,0,0.569880485534668,2019-08-07 13:27:49:513
0.26866456866264343,0.4235090911388397,9.812649726867676,-0.0026571518127210965,-0.0014211433807070943,-0.008837460809048764,-168.93640843672753,172.29021019046363,0,0.5730087757110596,2019-08-07 13:27:49:516
0.26866456866264343,0.3971668481826782,9.776728630065918,-0.0026571518127210965,-0.004084954916673665,-0.010169366967143538,-169.12552343360252,172.3983193048609,0,0.5759515762329102,2019-08-07 13:27:49:519
0.2974015772342682,0.4163248538970947,9.762359619140625,6.659528697688281e-06,-0.0019539056358855436,-0.009103842456786639,-169.30770183110312,172.50151247542993,0,0.5797126293182373,2019-08-07 13:27:49:523
0.3572703003883362,0.41393008828163147,9.836597442626953,-0.0026571518127210965,-0.004084954916673665,-0.010435747574584113,-169.47915638842005,172.6038033373153,0,0.5831544399261475,2019-08-07 13:27:49:526
0.39079681038856506,0.334903359413147,9.834202766418457,-0.001058865047185749,-0.0054168602945454634,-0.008304698553870315,-169.64307738593823,172.7129103556285,0,0.5863857269287109,2019-08-07 13:27:49:530
0.3740335702896118,0.4163248538970947,9.819833755493164,0.0005394218158774704,0.00017714346610147965,-0.008038317426281092,-169.8066242068716,172.80999280254395,0,0.5898792743682861,2019-08-07 13:27:49:533
0.36445456743240356,0.36364033818244934,9.762359619140625,-0.0007924839195965244,-0.0046177169117777896,-0.0077719362986918665,-169.9669203590515,172.9112674159355,0,0.5930078029632568,2019-08-07 13:27:49:536
0.2854278087615967,0.380403608083725,9.779123306274414,-0.001058865047185749,-0.0038185737890844406,-0.007239174043513418,-170.13351108581324,173.00866471779494,0,0.5959646701812744,2019-08-07 13:27:49:539
0.3548755645751953,0.3780088424682617,9.841386795043945,0.001338565231154435,-0.0046177169117777896,-0.012833178243035783,-170.28856026250747,173.10421498622227,0,0.5997340679168701,2019-08-07 13:27:49:543
0.41713905334472656,0.4235090911388397,9.834202766418457,0.001338565231154435,-0.0064823853250510115,-0.004042600252368397,-170.4329616896725,173.1925542901078,0,0.603168249130249,2019-08-07 13:27:49:546
0.35966506600379944,0.3995615839958191,9.716859817504883,-0.0029235329403103213,-0.0011547622531178697,-0.010702129222321988,-170.5816917668597,173.28215225540936,0,0.6064765453338623,2019-08-07 13:27:49:550
0.33332282304763794,0.4426670968532562,9.82222843170166,6.659528697688281e-06,-0.0022202867634747683,-0.009103842456786639,-170.7307604879361,173.36489886156647,0,0.6098861694335938,2019-08-07 13:27:49:553
0.4267180562019348,0.3660351037979126,9.894071578979492,-0.0037226765831523197,-0.001687524508296319,-0.009370223064227214,-170.86645802478708,173.4558797095187,0,0.6130106449127197,2019-08-07 13:27:49:556
0.2974015772342682,0.48816731572151184,9.736018180847168,0.003203233254316169,-0.003019430146242442,-0.009902985319405663,-171.01363574172836,173.52882287836542,0,0.6159613132476807,2019-08-07 13:27:49:559
0.34529656171798706,0.4043510854244232,9.81025505065918,-0.0037226765831523197,0.0007099057700438648,-0.007505555171102641,-171.15319654599054,173.611829635394,0,0.6197307109832764,2019-08-07 13:27:49:563
0.3572703003883362,0.3923773467540741,9.83899211883545,-0.0026571518127210965,0.001242668025222314,-0.010169366967143538,-171.2887808437655,173.69443166145564,0,0.623171329498291,2019-08-07 13:27:49:566
0.3620598018169403,0.4306933283805847,9.764754295349121,-0.001058865047185749,0.001242668025222314,-0.008837460809048764,-171.42076142597344,173.7702248941473,0,0.6263997554779053,2019-08-07 13:27:49:570
0.40516531467437744,0.4594303369522095,9.762359619140625,-0.001058865047185749,0.00017714346610147965,-0.015230607871190155,-171.5448493511015,173.84113850692884,0,0.6298770904541016,2019-08-07 13:27:49:573
0.42432329058647156,0.5336675643920898,9.819833755493164,-0.0037226765831523197,-0.0019539056358855436,-0.012300415987857336,-171.6641235417454,173.90275583745455,0,0.6330091953277588,2019-08-07 13:27:49:576
0.39798104763031006,0.5049305558204651,9.853360176086426,-0.0015916273023641983,-0.0014211433807070943,-0.013632321105654805,-171.78434655634885,173.96629412082405,0,0.635962724685669,2019-08-07 13:27:49:579
0.3237438201904297,0.4498513340950012,9.79349136352539,-0.0007924839195965244,-0.003019430146242442,-0.014431465008571131,-171.91015413659395,174.0345366977628,0,0.6397299766540527,2019-08-07 13:27:49:583
0.29500681161880493,0.433088093996048,9.685728073120117,0.0016049463587436595,-0.0024866678910639927,-0.013898702753392682,-172.0365797722814,174.10233181020863,0,0.6431670188903809,2019-08-07 13:27:49:586
0.35248079895973206,0.4187195897102356,9.79349136352539,0.0026704709991377204,-0.0054168602945454634,-0.01602975177410648,-172.1536395476216,174.1708366994711,0,0.6464002132415771,2019-08-07 13:27:49:590
0.2782435715198517,0.4690093398094177,9.762359619140625,-0.0018580084299534227,-0.007015147580229461,-0.01602975177410648,-172.2765412330079,174.2327733486659,0,0.6498880386352539,2019-08-07 13:27:49:593
0.24711182713508606,0.44745659828186035,9.745596885681152,-0.0029235329403103213,-0.0027530490186532175,-0.019492705912617748,-172.4014715073578,174.29606084001534,0,0.6530513763427734,2019-08-07 13:27:49:596
0.3572703003883362,0.44027233123779297,9.697701454162598,0.001338565231154435,-0.004884098039367014,-0.02029184981553407,-172.51042867964233,174.35792747334781,0,0.6560273170471191,2019-08-07 13:27:49:599
0.26148033142089844,0.3923773467540741,9.939571380615234,-0.0021243895575426474,-8.92376858697129e-05,-0.0189599446977366,-172.63006204465384,174.42601793986842,0,0.6599006652832031,2019-08-07 13:27:49:603
0.3548755645751953,0.3971668481826782,9.688122749328613,-0.004521819705845669,-0.0024866678910639927,-0.013365940498214234,-172.7350461224337,174.49138071631182,0,0.6631851196289062,2019-08-07 13:27:49:606
0.3021910786628723,0.4067458510398865,9.85096549987793,-0.005320963088613342,-0.005150479166956239,-0.019759088600652924,-172.8443555537336,174.55514147195612,0,0.6661181449890137,2019-08-07 13:27:49:609
0.1201900914311409,0.46182507276535034,9.697701454162598,-0.0037226765831523197,-0.00435133604426289,-0.013632321105654805,-172.97234272847595,174.61029971275457,0,0.6699013710021973,2019-08-07 13:27:49:613
0.23274332284927368,0.4067458510398865,9.79349136352539,-0.0013252461747749735,-0.006748766452640236,-0.013898702753392682,-173.0844811301629,174.67076169091212,0,0.6730339527130127,2019-08-07 13:27:49:616
0.2519013285636902,0.3708246052265167,9.776728630065918,-0.00425543883833077,-0.007281528707818685,-0.014697845616011706,-173.19206754066087,174.73460801706312,0,0.6759824752807617,2019-08-07 13:27:49:619
0.12258484214544296,0.4235090911388397,9.668964385986328,-0.005853725863940442,-0.007814290962997135,-0.012566796595297908,-173.3120457805259,174.79099413453469,0,0.6797499656677246,2019-08-07 13:27:49:623
0.1201900914311409,0.4594303369522095,9.776728630065918,-0.0037226765831523197,-0.005150479166956239,-0.01150127208494101,-173.43072635585867,174.84208164385697,0,0.6831798553466797,2019-08-07 13:27:49:626
0.08187409490346909,0.38279834389686584,9.697701454162598,-0.005587344736351217,-0.007547909835407911,-0.006440030660745744,-173.55106441582106,174.9010470806784,0,0.6864197254180908,2019-08-07 13:27:49:630
0.15611134469509125,0.4378775954246521,9.762359619140625,-0.006919250374297341,-0.00435133604426289,-0.007505555171102641,-173.6608706342666,174.95301295775832,0,0.689896821975708,2019-08-07 13:27:49:633
0.12976908683776855,0.4235090911388397,9.728833198547363,-0.001058865047185749,-0.008080672090586358,-0.008304698553870315,-173.77094537964905,175.00428751136246,0,0.6930348873138428,2019-08-07 13:27:49:636
0.017215855419635773,0.35645610094070435,9.83899211883545,-0.005853725863940442,-0.009412577728532483,-0.004575362767621172,-173.89196041465573,175.06367540454784,0,0.6959884166717529,2019-08-07 13:27:49:639
0.06271609663963318,0.4235090911388397,9.800676345825195,-0.007185631501886564,-0.009945339983710931,-0.002177932229206663,-174.00452636117302,175.11454947174462,0,0.7000391483306885,2019-08-07 13:27:49:643
0.1273743361234665,0.3995615839958191,9.757570266723633,-0.009050299395011138,-0.007814290962997135,0.00021949806538816636,-174.10809118592238,175.16696691264107,0,0.7031998634338379,2019-08-07 13:27:49:646
0.06511084735393524,0.37561410665512085,9.726438522338867,-0.008517537139832687,-0.003019430146242442,0.002084166072295256,-174.21770910386564,175.22094648497665,0,0.7064402103424072,2019-08-07 13:27:49:650
0.053137101233005524,0.39477208256721497,9.733622550964355,-0.004521819705845669,-0.009412577728532483,0.005547121121066663,-174.3252802344996,175.2709513348526,0,0.7098820209503174,2019-08-07 13:27:49:653
0.0028473574202507734,0.4187195897102356,9.755175590515137,-0.005587344736351217,-0.007015147580229461,0.003149690712689317,-174.43721027363833,175.31735612326221,0,0.7130043506622314,2019-08-07 13:27:49:656
0.0076368567533791065,0.36124560236930847,9.846176147460938,-0.005853725863940442,-0.009412577728532483,0.0058135022486558875,-174.54601843498202,175.36995489166517,0,0.7159538269042969,2019-08-07 13:27:49:659
0.03876860439777374,0.2750346064567566,9.867729187011719,-0.007185631501886564,-0.007814290962997135,0.006346264503834336,-174.64894365026905,175.4321443595688,0,0.719719648361206,2019-08-07 13:27:49:663
0.026794854551553726,0.3325085937976837,9.76954460144043,-0.005320963088613342,-0.0035521926614952163,0.006079883376245113,-174.75213473875073,175.48554434480337,0,0.7231647968292236,2019-08-07 13:27:49:666
-0.11210063099861145,0.36124560236930847,9.867729187011719,-0.008517537139832687,-0.007015147580229461,0.009809219162494257,-167.66883553034268,175.53544836206498,0,0.7263989448547363,2019-08-07 13:27:49:670
-0.06420563161373138,0.3468770980834961,9.786307334899902,-0.005587344736351217,-0.0046177169117777896,0.010075600810232132,-160.72207406047278,175.58523153180462,0,0.7298805713653564,2019-08-07 13:27:49:673
-0.045047637075185776,0.3325085937976837,9.817439079284668,-0.0034562954555630953,-0.01154362674924628,0.009276456907315806,-153.91086278516127,175.63533766717694,0,0.7330090999603271,2019-08-07 13:27:49:676
-0.17196936905384064,0.37561410665512085,9.762359619140625,-0.004521819705845669,-0.011010864494067829,0.007944551269369684,-147.25100112356546,175.67931349743318,0,0.7359662055969238,2019-08-07 13:27:49:679
-0.1288638710975647,0.33729809522628784,9.743202209472656,-0.0005261027594980092,-0.0056832419422833385,0.00714540788660201,-140.71993311285775,175.72618419068624,0,0.7397360801696777,2019-08-07 13:27:49:683
-0.11689012497663498,0.3851930797100067,9.803071022033691,-0.004788200833434893,-0.004884098039367014,0.006612645631423561,-134.31825623086357,175.76757986922692,0,0.7431683540344238,2019-08-07 13:27:49:686
-0.15281137824058533,0.36842983961105347,9.85096549987793,-0.005853725863940442,-0.0038185737890844406,0.0058135022486558875,-128.04906468350325,175.81031158288948,0,0.7459704875946045,2019-08-07 13:27:49:689
-0.06420563161373138,0.40914058685302734,9.86054515838623,-0.009316680002451712,-0.0046177169117777896,0.0034160718402785413,-121.89456877653733,175.8485546263848,0,0.74973464012146,2019-08-07 13:27:49:693
-0.13125862181186676,0.4067458510398865,9.831808090209961,-0.0007924839195965244,-0.0054168602945454634,0.0023505473299216427,-115.87093149069067,175.8843562181678,0,0.7531652450561523,2019-08-07 13:27:49:696
-0.10012687742710114,0.3732193410396576,9.903650283813477,-0.001058865047185749,-0.0038185737890844406,0.00394883409545699,-109.96440403722488,175.92369802939606,0,0.7564008235931396,2019-08-07 13:27:49:700
0.00045260769547894597,0.3851930797100067,9.774333953857422,-0.0039890577107415445,-0.008347053218175584,-0.002977075742011499,-111.36342540584182,175.9608710208051,0,0.759894609451294,2019-08-07 13:27:49:703
-0.06420563161373138,0.3851930797100067,9.934782028198242,-0.0015916273023641983,-0.008879815473354034,0.001018641496919776,-105.54200595947826,175.9975252060542,0,0.7630164623260498,2019-08-07 13:27:49:706
-0.03546863794326782,0.38279834389686584,9.779123306274414,-0.00425543883833077,-0.009678958335973056,-0.00244431348683305,-99.83362098377741,176.03348924287062,0,0.7661464214324951,2019-08-07 13:27:49:709
-0.05941613391041756,0.3540613353252411,9.788702011108398,-0.0015916273023641983,-0.01047810223888938,-0.004308981379957623,-94.2417108806449,176.07172242713864,0,0.769874095916748,2019-08-07 13:27:49:713
-0.045047637075185776,0.4187195897102356,9.783912658691406,-0.0015916273023641983,-0.008879815473354034,-0.005907268405567294,-88.76059389848356,176.10155583597503,0,0.7730004787445068,2019-08-07 13:27:49:716
-0.016310639679431915,0.4259038269519806,9.791096687316895,-0.0039890577107415445,-0.007281528707818685,-0.007505555171102641,-83.38608202336192,176.1303721278756,0,0.7759573459625244,2019-08-07 13:27:49:719
-0.011521141044795513,0.3923773467540741,9.834202766418457,-0.0039890577107415445,-0.0046177169117777896,-0.008038317426281092,-78.11872453152255,176.1629128909386,0,0.7797305583953857,2019-08-07 13:27:49:723
-0.023494889959692955,0.3995615839958191,9.745596885681152,-0.006120106991529666,-0.0046177169117777896,-0.010169366967143538,-72.95822084410146,176.19388125467125,0,0.7831699848175049,2019-08-07 13:27:49:726
0.07229509949684143,0.380403608083725,9.762359619140625,-0.0021243895575426474,-0.007281528707818685,-0.01150127208494101,-75.08924888964818,176.22575963415437,0,0.7864024639129639,2019-08-07 13:27:49:730
0.09145309776067734,0.36842983961105347,9.774333953857422,-0.005853725863940442,-0.0056832419422833385,-0.008038317426281092,-77.17563148597795,176.25921555775463,0,0.789884090423584,2019-08-07 13:27:49:733
0.1273743361234665,0.380403608083725,9.776728630065918,-0.005587344736351217,-0.0022202867634747683,-0.013365940498214234,-79.21677377452076,176.29051549848515,0,0.7932255268096924,2019-08-07 13:27:49:736
0.1393480896949768,0.42829859256744385,9.817439079284668,-0.0026571518127210965,-0.0024866678910639927,-0.013099558850476358,-81.2157182413536,176.31523217354015,0,0.7964920997619629,2019-08-07 13:27:49:740
0.14174284040927887,0.4426670968532562,9.776728630065918,-0.00025972161565413924,-0.0038185737890844406,-0.014165083360833256,-83.17403244572287,176.33713023288786,0,0.8000326156616211,2019-08-07 13:27:49:743
0.16090083122253418,0.38279834389686584,9.764754295349121,-0.0007924839195965244,-0.004084954916673665,-0.013632321105654805,-85.0909612835211,176.36562615389477,0,0.803128719329834,2019-08-07 13:27:49:746
0.25429606437683105,0.3516665995121002,9.76954460144043,-0.00425543883833077,-0.003285811533905992,-0.014964227263749581,-86.95877185382788,176.39779428893678,0,0.8061063289642334,2019-08-07 13:27:49:749
0.2375328242778778,0.38998258113861084,9.824623107910156,0.00027304068828824584,-0.0046177169117777896,-0.013632321105654805,-88.79091061077766,176.42431752700517,0,0.8099093437194824,2019-08-07 13:27:49:753
0.24711182713508606,0.5073253512382507,9.812649726867676,-0.0026571518127210965,0.00044352460994534954,-0.012833178243035783,-90.58631871319466,176.43710477792837,0,0.8130331039428711,2019-08-07 13:27:49:756
0.2974015772342682,0.3995615839958191,9.82222843170166,-0.006386488119118891,-0.003019430146242442,-0.013632321105654805,-92.33940183719413,176.462840560777,0,0.8160092830657959,2019-08-07 13:27:49:759
0.3237438201904297,0.3732193410396576,9.724043846130371,-0.00025972161565413924,-0.004884098039367014,-0.016828894636725503,-94.05347201471027,176.48967727486283,0,0.8196730613708496,2019-08-07 13:27:49:763
0.30698058009147644,0.3588508367538452,9.836597442626953,0.0008058029759759856,-0.004084954916673665,-0.013365940498214234,-95.73585528066987,176.51794064086644,0,0.8231484889984131,2019-08-07 13:27:49:766
0.3476913273334503,0.4450618326663971,9.807860374450684,0.0016049463587436595,-0.007814290962997135,-0.016828894636725503,-97.37922263546531,176.53534907338093,0,0.8261330127716064,2019-08-07 13:27:49:769
0.37163880467414856,0.40914058685302734,9.750386238098145,0.001871327486332884,-0.007814290962997135,-0.013898702753392682,-98.98631616160183,176.55618695088742,0,0.8299305438995361,2019-08-07 13:27:49:773
0.3429018259048462,0.4235090911388397,9.855754852294922,-0.0007924839195965244,-0.00435133604426289,-0.012300415987857336,-100.56597383622707,176.57599166542673,0,0.833054780960083,2019-08-07 13:27:49:776
0.3812178075313568,0.42829859256744385,9.815044403076172,0.00027304068828824584,-0.001687524508296319,-0.014165083360833256,-102.10988736037662,176.59445367561904,0,0.836029052734375,2019-08-07 13:27:49:779
0.43629705905914307,0.36842983961105347,9.83899211883545,-0.0018580084299534227,-0.0011547622531178697,-0.01549698951892803,-103.61665468874126,176.6200836298628,0,0.8399477005004883,2019-08-07 13:27:49:783
0.37882307171821594,0.3444823622703552,9.774333953857422,-0.001058865047185749,-0.00435133604426289,-0.014165083360833256,-105.09915806649795,176.64750076368614,0,0.843113899230957,2019-08-07 13:27:49:786
0.4410865604877472,0.46182507276535034,9.83899211883545,-0.0021243895575426474,-0.00435133604426289,-0.014165083360833256,-106.54491854383323,176.66125150234444,0,0.846874475479126,2019-08-07 13:27:49:790
0.39079681038856506,0.4642198383808136,9.771939277648926,-0.0005261027594980092,-8.92376858697129e-05,-0.012034034340119461,-107.96820214442805,176.67372029586653,0,0.8499245643615723,2019-08-07 13:27:49:793
0.46263930201530457,0.41393008828163147,9.862939834594727,-0.002390770685131872,-0.006748766452640236,-0.014431465008571131,-109.35394798315652,176.692599436751,0,0.8530337810516357,2019-08-07 13:27:49:796
0.4722183048725128,0.38279834389686584,9.92999267578125,-0.0034562954555630953,-0.0054168602945454634,-0.014165083360833256,-110.71150979049813,176.71517301802848,0,0.8560142517089844,2019-08-07 13:27:49:799
0.4482707977294922,0.4306933283805847,9.7982816696167,-0.0031899140678995457,-0.007281528707818685,-0.012034034340119461,-112.0433787531099,176.731194383042,0,0.8597118854522705,2019-08-07 13:27:49:803
0.42432329058647156,0.38998258113861084,9.721649169921875,-0.0018580084299534227,-0.0046177169117777896,-0.010702129222321988,-113.35163486024783,176.75098578659055,0,0.863152027130127,2019-08-07 13:27:49:806
0.43869179487228394,0.39477208256721497,9.803071022033691,-0.001058865047185749,-0.005150479166956239,-0.018160800794820277,-114.63249348242431,176.77002203484685,0,0.8661348819732666,2019-08-07 13:27:49:809
0.38361257314682007,0.3971668481826782,9.870123863220215,-0.00025972161565413924,-0.00435133604426289,-0.012833178243035783,-115.89440948896464,176.78859049252293,0,0.8698976039886475,2019-08-07 13:27:49:813
0.4530602991580963,0.4043510854244232,9.767149925231934,-0.0029235329403103213,-0.0027530490186532175,-0.012833178243035783,-117.12292341257506,176.80591707750204,0,0.873011589050293,2019-08-07 13:27:49:816
0.48898154497146606,0.4522460997104645,9.757570266723633,-0.002390770685131872,-0.006216004197461787,-0.016296132381547052,-118.32204536081639,176.8171264302197,0,0.87599778175354,2019-08-07 13:27:49:819
0.43629705905914307,0.4378775954246521,9.827017784118652,0.00027304068828824584,-0.0019539056358855436,-0.009902985319405663,-119.50434793091378,176.82969948811612,0,0.8797702789306641,2019-08-07 13:27:49:823
0.4291127920150757,0.4043510854244232,9.815044403076172,-0.0005261027594980092,-0.005150479166956239,-0.013632321105654805,-120.66321975169642,176.84602328076127,0,0.8831374645233154,2019-08-07 13:27:49:826
0.4458760619163513,0.43548282980918884,9.805465698242188,-0.0015916273023641983,-0.0027530490186532175,-0.009902985319405663,-121.79736467018587,176.8585437425753,0,0.8864965438842773,2019-08-07 13:27:49:830
0.4027705490589142,0.42111432552337646,9.855754852294922,0.00027304068828824584,-0.004084954916673665,-0.010169366967143538,-122.91381004625532,176.87238650059598,0,0.8900008201599121,2019-08-07 13:27:49:833
0.4003758132457733,0.48098307847976685,9.836597442626953,-0.0021243895575426474,-0.0038185737890844406,-0.008038317426281092,-124.00824945856827,176.87932297272158,0,0.8931176662445068,2019-08-07 13:27:49:836
0.45066556334495544,0.4115353524684906,9.791096687316895,0.0010721841035652101,-0.005150479166956239,-0.011767653732678886,-125.07451671598078,176.89342103294607,0,0.8960936069488525,2019-08-07 13:27:49:839
0.37882307171821594,0.38279834389686584,9.76954460144043,-0.0034562954555630953,-0.0064823853250510115,-0.012833178243035783,-126.12722542735001,176.9114160976231,0,0.8999104499816895,2019-08-07 13:27:49:843
0.3812178075313568,0.3971668481826782,9.738412857055664,-0.0015916273023641983,-0.007547909835407911,-0.011767653732678886,-127.15852356762953,176.92675804971717,0,0.9030308723449707,2019-08-07 13:27:49:846
0.41713905334472656,0.42829859256744385,9.783912658691406,0.0021377086139221083,-0.003285811533905992,-0.00963660471196509,-128.16597617457697,176.93773360087476,0,0.906012773513794,2019-08-07 13:27:49:849
0.34050706028938293,0.40195634961128235,9.726438522338867,-0.0005261027594980092,-0.0006219999979394207,-0.01150127208494101,-129.16242695657866,176.9517590186412,0,0.9097177982330322,2019-08-07 13:27:49:853
0.36684930324554443,0.3923773467540741,9.728833198547363,-0.0005261027594980092,-0.0027530490186532175,-0.012566796595297908,-130.13545873732215,176.966633904828,0,0.9131503105163574,2019-08-07 13:27:49:856
0.41234955191612244,0.3923773467540741,9.803071022033691,-0.002390770685131872,-0.0024866678910639927,-0.00963660471196509,-131.08416234475794,176.98185795378188,0,0.9161198139190674,2019-08-07 13:27:49:859
0.3093753159046173,0.4187195897102356,9.750386238098145,-0.004788200833434893,-0.0008883811255286454,-0.005907268405567294,-132.02594330267772,176.99405749928366,0,0.9199008941650391,2019-08-07 13:27:49:863
0.3692440688610077,0.38279834389686584,9.747991561889648,0.0034696143819053942,-0.0003556188378409054,-0.010968509829762562,-132.94197687912038,177.0085933599592,0,0.9230146408081055,2019-08-07 13:27:49:866
0.36684930324554443,0.4067458510398865,9.815044403076172,-0.0029235329403103213,-0.0008883811255286454,-0.011234891477500435,-133.84017765790148,177.02145304585565,0,0.9260139465332031,2019-08-07 13:27:49:869
0.3548755645751953,0.3708246052265167,9.776728630065918,-0.00425543883833077,-0.0046177169117777896,-0.00963660471196509,-134.7208341839069,177.038469153695,0,0.9297308921813965,2019-08-07 13:27:49:873
0.4003758132457733,0.3540613353252411,9.889281272888184,-0.004521819705845669,-0.0014211433807070943,-0.011767653732678886,-135.5797534048155,177.05763264007234,0,0.933441162109375,2019-08-07 13:27:49:877
0.29261207580566406,0.36124560236930847,9.841386795043945,-0.0015916273023641983,-0.001687524508296319,-0.008304698553870315,-136.4338135174475,177.0747034445711,0,0.9364337921142578,2019-08-07 13:27:49:880
0.32613855600357056,0.3923773467540741,9.815044403076172,-0.0018580084299534227,-0.0011547622531178697,-0.00963660471196509,-137.26685039389577,177.08778355301382,0,0.9398865699768066,2019-08-07 13:27:49:883
0.2974015772342682,0.4043510854244232,9.843781471252441,0.0016049463587436595,-0.00435133604426289,-0.008304698553870315,-138.08614172039475,177.09870285339417,0,0.9430038928985596,2019-08-07 13:27:49:886
0.3285333216190338,0.36842983961105347,9.73122787475586,-0.00425543883833077,-0.001687524508296319,-0.012300415987857336,-138.88546259264226,177.11408075240908,0,0.9460015296936035,2019-08-07 13:27:49:889
0.29979631304740906,0.4163248538970947,9.783912658691406,-0.0013252461747749735,-0.0027530490186532175,-0.008304698553870315,-139.67204856947637,177.12335777053352,0,0.9499015808105469,2019-08-07 13:27:49:893
0.2974015772342682,0.34208759665489197,9.805465698242188,-0.0013252461747749735,-0.0035521926614952163,-0.0077719362986918665,-140.44323818036153,177.14116165138657,0,0.9530313014984131,2019-08-07 13:27:49:896
0.2590855658054352,0.4187195897102356,9.817439079284668,0.0010721841035652101,-0.003019430146242442,-0.008837460809048764,-141.2036345457447,177.1493147960835,0,0.9560086727142334,2019-08-07 13:27:49:899
0.2375328242778778,0.3851930797100067,9.877307891845703,-0.0026571518127210965,-0.0011547622531178697,-0.00857107968145954,-141.9517696151006,177.16221564799994,0,0.9597129821777344,2019-08-07 13:27:49:903
0.2519013285636902,0.3780088424682617,9.815044403076172,0.0005394218158774704,-0.0024866678910639927,-0.008837460809048764,-142.68284939722045,177.17475578714644,0,0.9631619453430176,2019-08-07 13:27:49:906
0.2830330729484558,0.3995615839958191,9.83899211883545,-0.002390770685131872,-0.0027530490186532175,-0.008837460809048764,-143.39577685660524,177.18515065318678,0,0.9661421775817871,2019-08-07 13:27:49:909
0.199216827750206,0.4522460997104645,9.762359619140625,-0.0007924839195965244,-0.0035521926614952163,-0.008837460809048764,-144.10372575673952,177.1885687986008,0,0.9699251651763916,2019-08-07 13:27:49:913
0.23992757499217987,0.40914058685302734,9.803071022033691,-0.001058865047185749,0.0015090491528115383,-0.009370223064227214,-144.7938763917966,177.19718559368448,0,0.9730589389801025,2019-08-07 13:27:49:916
0.2974015772342682,0.3971668481826782,9.92041301727295,-0.0021243895575426474,-0.003285811533905992,-0.006706411788334968,-145.46310623075962,177.2077447451559,0,0.976038932800293,2019-08-07 13:27:49:919
0.22316433489322662,0.42829859256744385,9.757570266723633,0.0010721841035652101,-0.0014211433807070943,-0.005374506150388846,-146.12731074378678,177.21307448791868,0,0.9801721572875977,2019-08-07 13:27:49:923
0.24950657784938812,0.4426670968532562,9.726438522338867,-0.0013252461747749735,-0.003285811533905992,-0.007239174043513418,-146.77484313958595,177.21691105967616,0,0.9830574989318848,2019-08-07 13:27:49:926
0.21598008275032043,0.38998258113861084,9.803071022033691,0.0021377086139221083,-0.0024866678910639927,-0.008038317426281092,-147.4136882003681,177.2266532430317,0,0.9860332012176514,2019-08-07 13:27:49:929
0.2255590856075287,0.42829859256744385,9.803071022033691,6.659528697688281e-06,-0.0035521926614952163,-0.006972792915924193,-148.03827761020668,177.2320852092006,0,0.9899191856384277,2019-08-07 13:27:49:933
0.2590855658054352,0.36842983961105347,9.76954460144043,-0.0018580084299534227,-0.0035521926614952163,-0.008038317426281092,-148.64650115979535,177.24457794216556,0,0.9930710792541504,2019-08-07 13:27:49:936
0.23274332284927368,0.4306933283805847,9.812649726867676,-0.002390770685131872,0.00044352460994534954,-0.005907268405567294,-149.24647083746174,177.24982269171943,0,0.9960520267486572,2019-08-07 13:27:49:939
0.21598008275032043,0.3995615839958191,9.767149925231934,0.0005394218158774704,-0.0019539056358855436,-0.005907268405567294,-149.83578180566107,177.2578573085626,0,0.9999186992645264,2019-08-07 13:27:49:943
0.2566908299922943,0.3995615839958191,9.848570823669434,-0.0034562954555630953,-0.003019430146242442,-0.004308981379957623,-150.40867596661957,177.26684204454114,0,1.0030453205108643,2019-08-07 13:27:49:946
0.22076958417892456,0.38998258113861084,9.896466255187988,-0.0034562954555630953,-0.0022202867634747683,-0.004042600252368397,-150.97457292318347,177.2769494964075,0,1.0060193538665771,2019-08-07 13:27:49:949
0.21598008275032043,0.4426670968532562,9.764754295349121,0.0021377086139221083,-0.0014211433807070943,-0.005374506150388846,-151.52942869929737,177.27903003703997,0,1.0099186897277832,2019-08-07 13:27:49:953
0.20161157846450806,0.42111432552337646,9.788702011108398,-0.005320963088613342,0.0007099057700438648,-0.005640887277978069,-152.07536618990622,177.28511452217757,0,1.0130398273468018,2019-08-07 13:27:49:956
0.22795382142066956,0.3708246052265167,9.716859817504883,-0.0018580084299534227,-0.0003556188378409054,-0.00617364953315652,-152.606921492421,177.2960130491321,0,1.0160226821899414,2019-08-07 13:27:49:959
0.17047983407974243,0.40914058685302734,9.78151798248291,0.0034696143819053942,-0.0027530490186532175,-0.004042600252368397,-153.13423897509526,177.3014657773728,0,1.0197372436523438,2019-08-07 13:27:49:963
0.16329558193683624,0.433088093996048,9.69051742553711,0.00027304068828824584,-0.0027530490186532175,-0.004042600252368397,-153.65171315192273,177.30420446064105,0,1.0231850147247314,2019-08-07 13:27:49:966
0.15371659398078918,0.4690093398094177,9.846176147460938,-0.0005261027594980092,-0.0011547622531178697,-0.004841743895210396,-154.1605964576764,177.30366587084862,0,1.0261781215667725,2019-08-07 13:27:49:969
0.17047983407974243,0.36842983961105347,9.807860374450684,0.0010721841035652101,-0.001687524508296319,-0.004841743895210396,-154.65711449763876,177.31434197327437,0,1.029911756515503,2019-08-07 13:27:49:973
0.23274332284927368,0.40195634961128235,9.783912658691406,0.0008058029759759856,-0.0022202867634747683,-0.0016451699740282137,-155.13632898474418,177.32086234826716,0,1.0330312252044678,2019-08-07 13:27:49:976
0.1728745847940445,0.4163248538970947,9.870123863220215,-0.0021243895575426474,-0.0019539056358855436,-0.000579645398652734,-155.61320693178598,177.32649407426098,0,1.0360107421875,2019-08-07 13:27:49:979
0.192032590508461,0.380403608083725,9.82222843170166,0.0016049463587436595,-0.0038185737890844406,-0.007239174043513418,-156.07774694206233,177.3352721806615,0,1.0397191047668457,2019-08-07 13:27:49:983
0.16329558193683624,0.39477208256721497,9.79349136352539,0.0016049463587436595,0.001242668025222314,-0.0027106946144222744,-156.53732712604116,177.342090036059,0,1.0431618690490723,2019-08-07 13:27:49:986
0.16090083122253418,0.4067458510398865,9.78151798248291,6.659528697688281e-06,-0.0054168602945454634,-0.0013787888464389891,-156.98682735140062,177.347623835316,0,1.046138048171997,2019-08-07 13:27:49:989
0.1728745847940445,0.38758784532546997,9.800676345825195,0.0029368521267269447,-0.0006219999979394207,-0.005374506150388846,-157.42674847827337,177.3547561844783,0,1.0499050617218018,2019-08-07 13:27:49:993
0.2782435715198517,0.4187195897102356,9.85096549987793,0.0005394218158774704,-0.0014211433807070943,-0.007239174043513418,-157.84560560983616,177.3588879184535,0,1.053035020828247,2019-08-07 13:27:49:996
0.16808508336544037,0.3253243565559387,9.73122787475586,0.0008058029759759856,-0.001687524508296319,-0.004042600252368397,-158.26862050262818,177.373280772307,0,1.0560095310211182,2019-08-07 13:27:49:999
0.22076958417892456,0.46661457419395447,9.7982816696167,-0.0029235329403103213,0.0007099057700438648,-0.004841743895210396,-158.6775813385283,177.37189507849524,0,1.059723138809204,2019-08-07 13:27:50:003
0.13216383755207062,0.3588508367538452,9.858149528503418,-0.0007924839195965244,-8.92376858697129e-05,0.00021949806538816636,-159.08865061024167,177.3829157092073,0,1.0631637573242188,2019-08-07 13:27:50:006
0.20161157846450806,0.4259038269519806,9.800676345825195,0.00027304068828824584,0.0031073360483840485,-0.0032434568696007235,-159.4838294278497,177.38544532871086,0,1.0661518573760986,2019-08-07 13:27:50:009
0.1201900914311409,0.43548282980918884,9.757570266723633,0.001338565231154435,-0.0027530490186532175,-0.002977075742011499,-159.87945579795476,177.38634447245659,0,1.0699219703674316,2019-08-07 13:27:50:013
0.18245358765125275,0.39477208256721497,9.771939277648926,6.659528697688281e-06,0.00044352460994534954,-0.0051081250227996205,-160.2605515253156,177.39234825506196,0,1.073051929473877,2019-08-07 13:27:50:016
0.16090083122253418,0.4642198383808136,9.750386238098145,6.659528697688281e-06,-0.0019539056358855436,-0.0027106946144222744,-160.63609985805707,177.38998381818732,0,1.0760822296142578,2019-08-07 13:27:50:019
0.146532341837883,0.40195634961128235,9.745596885681152,-0.0007924839195965244,-0.004084954916673665,-0.004308981379957623,-161.0052695631578,177.39511842052616,0,1.079918384552002,2019-08-07 13:27:50:023
0.0938478484749794,0.4235090911388397,9.779123306274414,0.0021377086139221083,-0.0038185737890844406,-0.005640887277978069,-161.3734968477021,177.39724492832636,0,1.0830459594726562,2019-08-07 13:27:50:026
0.146532341837883,0.3851930797100067,9.791096687316895,0.0008058029759759856,-0.0038185737890844406,-0.00244431348683305,-161.72824221947383,177.40410733832798,0,1.0860137939453125,2019-08-07 13:27:50:029
0.15611134469509125,0.3923773467540741,9.755175590515137,-0.00025972161565413924,-0.003285811533905992,-0.004308981379957623,-162.07462085987345,177.4100153753775,0,1.089916706085205,2019-08-07 13:27:50:033
0.16090083122253418,0.3851930797100067,9.724043846130371,-0.001058865047185749,-0.004884098039367014,-0.004841743895210396,-162.41331271438796,177.4166319309392,0,1.0930392742156982,2019-08-07 13:27:50:036
0.14892709255218506,0.4163248538970947,9.795886039733887,-0.00025972161565413924,-0.004084954916673665,-0.006972792915924193,-162.7469432822979,177.41967063956724,0,1.096017599105835,2019-08-07 13:27:50:039
0.13455858826637268,0.41393008828163147,9.704886436462402,-0.0021243895575426474,-0.0019539056358855436,-0.0037762191247791726,-163.0756904146321,177.42289566755994,0,1.0999083518981934,2019-08-07 13:27:50:043
0.11540059000253677,0.45464083552360535,9.779123306274414,-0.00025972161565413924,-0.004884098039367014,-0.004841743895210396,-163.39979716827276,177.4212469674306,0,1.1030349731445312,2019-08-07 13:27:50:046
0.14413759112358093,0.42111432552337646,9.776728630065918,-0.00025972161565413924,0.0009762868976330894,-0.005374506150388846,-163.71507194544137,177.4235378797386,0,1.106020212173462,2019-08-07 13:27:50:049
0.1201900914311409,0.3995615839958191,9.776728630065918,0.0008058029759759856,-0.0046177169117777896,-0.0077719362986918665,-164.0256722010407,177.42808461321886,0,1.109922170639038,2019-08-07 13:27:50:053
0.15850608050823212,0.45464083552360535,9.714465141296387,-0.0034562954555630953,-0.0024866678910639927,-0.005640887277978069,-164.3260262589628,177.42653987333483,0,1.1130506992340088,2019-08-07 13:27:50:056
0.16808508336544037,0.4115353524684906,9.738412857055664,-0.0039890577107415445,-0.0006219999979394207,-0.007239174043513418,-164.61962522493886,177.43027937860063,0,1.1160273551940918,2019-08-07 13:27:50:059
0.1201900914311409,0.4642198383808136,9.762359619140625,-0.0031899140678995457,-0.0024866678910639927,-0.0027106946144222744,-164.91260734898924,177.42788877362761,0,1.1197376251220703,2019-08-07 13:27:50:063
0.19682207703590393,0.4067458510398865,9.85096549987793,-0.0015916273023641983,-0.005949623069872562,-0.008038317426281092,-165.1903076556609,177.43235210650315,0,1.1231956481933594,2019-08-07 13:27:50:066
0.17766408622264862,0.3995615839958191,9.805465698242188,-0.0007924839195965244,-0.0008883811255286454,-0.00857107968145954,-165.46559168867978,177.43716937619865,0,1.126190185546875,2019-08-07 13:27:50:069
0.15371659398078918,0.3396928608417511,9.74080753326416,-0.0007924839195965244,-0.004084954916673665,-0.004841743895210396,-165.73734596292798,177.44864576519507,0,1.1299049854278564,2019-08-07 13:27:50:073
0.16329558193683624,0.38998258113861084,9.736018180847168,-0.0018580084299534227,-0.0054168602945454634,-0.006706411788334968,-166.0024315109985,177.45412271866198,0,1.1330273151397705,2019-08-07 13:27:50:076
0.1848483383655548,0.3732193410396576,9.862939834594727,-0.0039890577107415445,-0.003285811533905992,-0.008038317426281092,-166.26035891296917,177.46236662994826,0,1.1360087394714355,2019-08-07 13:27:50:079
0.15132184326648712,0.42829859256744385,9.74080753326416,-0.0021243895575426474,-0.0024866678910639927,-0.006440030660745744,-166.51683310640905,177.46320929397655,0,1.1397218704223633,2019-08-07 13:27:50:083
0.08905834704637527,0.41393008828163147,9.867729187011719,-0.0015916273023641983,0.00044352460994534954,-0.009370223064227214,-166.77624055179314,177.46621303687803,0,1.1431734561920166,2019-08-07 13:27:50:086
0.17047983407974243,0.3971668481826782,9.855754852294922,-0.0021243895575426474,-0.004884098039367014,-0.005640887277978069,-167.0200734568413,177.47109356739315,0,1.1461737155914307,2019-08-07 13:27:50:089
0.13216383755207062,0.4259038269519806,9.76954460144043,-0.0037226765831523197,-0.003019430146242442,-0.009902985319405663,-167.26353878592903,177.4725262928121,0,1.1499016284942627,2019-08-07 13:27:50:093
0.16090083122253418,0.38758784532546997,9.788702011108398,6.659528697688281e-06,-0.004084954916673665,-0.005374506150388846,-167.49871777264838,177.47772527101864,0,1.1530234813690186,2019-08-07 13:27:50:096
0.1656903326511383,0.4259038269519806,9.719254493713379,-0.0029235329403103213,-0.0046177169117777896,-0.0077719362986918665,-167.72842970077218,177.47848224557458,0,1.1560335159301758,2019-08-07 13:27:50:099
0.16090083122253418,0.4067458510398865,9.759964942932129,-0.005587344736351217,-0.0054168602945454634,-0.005374506150388846,-167.9537857663326,177.4824073021123,0,1.1599318981170654,2019-08-07 13:27:50:103
0.12497959285974503,0.45464083552360535,9.75278091430664,-0.0031899140678995457,-0.0027530490186532175,-0.007505555171102641,-168.17954208172904,177.4799401469433,0,1.1630637645721436,2019-08-07 13:27:50:106
0.20161157846450806,0.3708246052265167,9.733622550964355,-0.0026571518127210965,-0.00435133604426289,-0.008837460809048764,-168.3914899627055,177.4871516016375,0,1.1660492420196533,2019-08-07 13:27:50:109
0.10582159459590912,0.36842983961105347,9.817439079284668,-0.007452012629475789,-0.005949623069872562,-0.007239174043513418,-168.6100126041879,177.49604832181103,0,1.1699295043945312,2019-08-07 13:27:50:113
0.146532341837883,0.4067458510398865,9.805465698242188,-0.0021243895575426474,-0.00435133604426289,-0.008038317426281092,-168.81992637421163,177.49899263204034,0,1.173051357269287,2019-08-07 13:27:50:116
0.13695333898067474,0.42111432552337646,9.78151798248291,-0.002390770685131872,-0.007547909835407911,-0.00857107968145954,-169.02622543595865,177.50010807344836,0,1.1760225296020508,2019-08-07 13:27:50:119
0.17047983407974243,0.3780088424682617,9.779123306274414,-0.002390770685131872,-0.003285811533905992,-0.005640887277978069,-169.22500775242816,177.50635567440457,0,1.1799163818359375,2019-08-07 13:27:50:123
0.1656903326511383,0.40914058685302734,9.776728630065918,-0.005054581961024118,-0.0038185737890844406,-0.008304698553870315,-169.42041936987107,177.50918834294066,0,1.1830401420593262,2019-08-07 13:27:50:126
0.1656903326511383,0.40914058685302734,9.743202209472656,-0.0034562954555630953,-0.003285811533905992,-0.009902985319405663,-169.61197789865267,177.51148931461398,0,1.186009407043457,2019-08-07 13:27:50:129
0.16090083122253418,0.4570355713367462,9.831808090209961,0.0008058029759759856,-0.006748766452640236,-0.007239174043513418,-169.79950900858594,177.5078530594523,0,1.1899089813232422,2019-08-07 13:27:50:133
0.13695333898067474,0.3660351037979126,9.834202766418457,-0.0029235329403103213,-0.004084954916673665,-0.004308981379957623,-169.98683923220946,177.51558096338806,0,1.1930582523345947,2019-08-07 13:27:50:136
0.14174284040927887,0.39477208256721497,9.836597442626953,-0.005320963088613342,0.001775430280400763,-0.008837460809048764,-170.17088791326222,177.52019411620296,0,1.1960341930389404,2019-08-07 13:27:50:139
0.11779534071683884,0.3588508367538452,9.75278091430664,-0.0029235329403103213,-0.00435133604426289,-0.006972792915924193,-170.3527275797953,177.52825212267294,0,1.1997289657592773,2019-08-07 13:27:50:143
0.11540059000253677,0.38279834389686584,9.862939834594727,-0.004788200833434893,-0.0035521926614952163,-0.007505555171102641,-170.53157797934645,177.5341616985957,0,1.2031781673431396,2019-08-07 13:27:50:146
0.14892709255218506,0.380403608083725,9.843781471252441,-0.0026571518127210965,-0.003019430146242442,-0.009902985319405663,-170.7031034692708,177.53966441163632,0,1.2061724662780762,2019-08-07 13:27:50:149
0.1273743361234665,0.3923773467540741,9.762359619140625,-0.005587344736351217,-0.0054168602945454634,-0.006706411788334968,-170.8729503095582,177.5440147627073,0,1.2099225521087646,2019-08-07 13:27:50:153
0.15611134469509125,0.40914058685302734,9.85096549987793,-0.00425543883833077,-0.0046177169117777896,-0.010435747574584113,-171.0365207865073,177.54631706248634,0,1.2130556106567383,2019-08-07 13:27:50:156
0.08666359633207321,0.34208759665489197,9.819833755493164,-0.002390770685131872,-0.0038185737890844406,-0.00857107968145954,-171.2049692462026,177.5559307294298,0,1.2163589000701904,2019-08-07 13:27:50:160
0.13695333898067474,0.40195634961128235,9.759964942932129,-0.0018580084299534227,-0.006748766452640236,-0.008038317426281092,-171.36344887748913,177.55801472311182,0,1.2199013233184814,2019-08-07 13:27:50:163
0.11779534071683884,0.4306933283805847,9.803071022033691,-0.0021243895575426474,-0.0054168602945454634,-0.00963660471196509,-171.52146057634465,177.55691427733754,0,1.2230262756347656,2019-08-07 13:27:50:166
0.13216383755207062,0.4306933283805847,9.889281272888184,-0.004788200833434893,-0.0046177169117777896,-0.009902985319405663,-171.6749454390032,177.55670206726126,0,1.2260053157806396,2019-08-07 13:27:50:169
0.20640107989311218,0.380403608083725,9.767149925231934,-0.0007924839195965244,-0.00435133604426289,-0.006972792915924193,-171.8163274068844,177.56112550792867,0,1.22971773147583,2019-08-07 13:27:50:173
0.1728745847940445,0.4043510854244232,9.85096549987793,-0.005320963088613342,-0.003285811533905992,-0.005907268405567294,-171.9592568807183,177.56392368667693,0,1.2331669330596924,2019-08-07 13:27:50:176
0.1848483383655548,0.4306933283805847,9.846176147460938,-0.0013252461747749735,-0.006216004197461787,-0.011767653732678886,-172.09752152195236,177.56277396322045,0,1.2361459732055664,2019-08-07 13:27:50:179
0.1273743361234665,0.4522460997104645,9.700096130371094,-0.0015916273023641983,-0.0019539056358855436,-0.006972792915924193,-172.2401129689951,177.5584666534431,0,1.239898443222046,2019-08-07 13:27:50:183
0.146532341837883,0.3923773467540741,9.846176147460938,-0.006652869246708115,-0.008879815473354034,-0.012833178243035783,-172.3767018341247,177.56282199664204,0,1.2430200576782227,2019-08-07 13:27:50:186
0.1848483383655548,0.45464083552360535,9.815044403076172,-0.0018580084299534227,-0.0027530490186532175,-0.010702129222321988,-172.507125895239,177.55883636390777,0,1.2460167407989502,2019-08-07 13:27:50:189
0.1273743361234665,0.4259038269519806,9.755175590515137,-0.0026571518127210965,-0.0038185737890844406,-0.009103842456786639,-172.6411855165515,177.55824354143215,0,1.2499175071716309,2019-08-07 13:27:50:193
0.21598008275032043,0.3923773467540741,9.76954460144043,6.659528697688281e-06,-0.004884098039367014,-0.006706411788334968,-172.7621729456697,177.5610784467476,0,1.2530522346496582,2019-08-07 13:27:50:196
0.12976908683776855,0.42111432552337646,9.889281272888184,-0.002390770685131872,-0.006216004197461787,-0.013365940498214234,-172.8908521551469,177.56149041198978,0,1.256035566329956,2019-08-07 13:27:50:199
0.1393480896949768,0.40195634961128235,9.918018341064453,-0.005587344736351217,-0.0056832419422833385,-0.012300415987857336,-173.01569728937056,177.56506233845735,0,1.2599174976348877,2019-08-07 13:27:50:203
0.14892709255218506,0.4043510854244232,9.755175590515137,0.001338565231154435,-0.0035521926614952163,-0.014697845616011706,-173.1372663779838,177.56605494467573,0,1.263047218322754,2019-08-07 13:27:50:206
0.1848483383655548,0.44027233123779297,9.853360176086426,-0.004521819705845669,-0.006748766452640236,-0.008038317426281092,-173.25189757285494,177.56432181366432,0,1.2660257816314697,2019-08-07 13:27:50:209
0.17766408622264862,0.4259038269519806,9.815044403076172,-0.002390770685131872,-0.005949623069872562,-0.010435747574584113,-173.36481861732972,177.56386459910325,0,1.2699196338653564,2019-08-07 13:27:50:213
0.17766408622264862,0.3971668481826782,9.829413414001465,-0.0026571518127210965,-0.0064823853250510115,-0.01150127208494101,-173.47567537232766,177.5667767263711,0,1.2730433940887451,2019-08-07 13:27:50:216
0.17766408622264862,0.3995615839958191,9.79349136352539,-0.0007924839195965244,-0.0024866678910639927,-0.011767653732678886,-173.58496136144043,177.56884741280598,0,1.2760133743286133,2019-08-07 13:27:50:219
0.15371659398078918,0.380403608083725,9.791096687316895,6.659528697688281e-06,-0.004884098039367014,-0.01150127208494101,-173.69425454015183,177.5729703534763,0,1.2797276973724365,2019-08-07 13:27:50:223
0.20161157846450806,0.4522460997104645,9.743202209472656,-0.0039890577107415445,-0.0024866678910639927,-0.01549698951892803,-173.7961794327523,177.56913202564868,0,1.2831761837005615,2019-08-07 13:27:50:226
0.20640107989311218,0.4235090911388397,9.795886039733887,-0.002390770685131872,-0.004084954916673665,-0.011234891477500435,-173.8954268189371,177.568641064296,0,1.2861754894256592,2019-08-07 13:27:50:229
0.23992757499217987,0.4259038269519806,9.755175590515137,-0.0013252461747749735,-0.00435133604426289,-0.009370223064227214,-173.98843003621303,177.56754738399593,0,1.2899010181427002,2019-08-07 13:27:50:233
0.18724308907985687,0.3923773467540741,9.747991561889648,-0.004788200833434893,-0.0056832419422833385,-0.014431465008571131,-174.08564821833977,177.57094229993115,0,1.2930495738983154,2019-08-07 13:27:50:236
0.17766408622264862,0.4259038269519806,9.79349136352539,-0.0039890577107415445,-0.0054168602945454634,-0.010702129222321988,-174.18223935593807,177.57039093133517,0,1.29604172706604,2019-08-07 13:27:50:239
0.2255590856075287,0.40914058685302734,9.791096687316895,-0.0018580084299534227,-0.0027530490186532175,-0.011234891477500435,-174.27159774763996,177.57153343192175,0,1.2999415397644043,2019-08-07 13:27:50:243
0.26148033142089844,0.39477208256721497,9.853360176086426,-0.0037226765831523197,-0.004084954916673665,-0.011767653732678886,-174.35504641475248,177.57487007208812,0,1.3030681610107422,2019-08-07 13:27:50:246
0.2183748334646225,0.36842983961105347,9.738412857055664,-0.0034562954555630953,-0.0056832419422833385,-0.012034034340119461,-174.4413028234137,177.5806186107419,0,1.3060479164123535,2019-08-07 13:27:50:249
0.18963783979415894,0.3923773467540741,9.709675788879395,-0.004788200833434893,-0.0046177169117777896,-0.015763370126368605,-174.5290904500006,177.5837696040024,0,1.3099374771118164,2019-08-07 13:27:50:253
0.244717076420784,0.42829859256744385,9.800676345825195,-0.0039890577107415445,-0.0054168602945454634,-0.010702129222321988,-174.60895214975753,177.58274778826674,0,1.3130595684051514,2019-08-07 13:27:50:256
0.1656903326511383,0.3995615839958191,9.81025505065918,-0.0007924839195965244,-0.007814290962997135,-0.00963660471196509,-174.69611513965282,177.58457908596728,0,1.3160357475280762,2019-08-07 13:27:50:259
0.20879583060741425,0.3971668481826782,9.819833755493164,-0.005587344736351217,-0.00435133604426289,-0.012300415987857336,-174.77692791572989,177.58772574566478,0,1.3197331428527832,2019-08-07 13:27:50:263
0.25429606437683105,0.4426670968532562,9.721649169921875,-0.00425543883833077,-0.005150479166956239,-0.012833178243035783,-174.85042402263997,177.58465322147845,0,1.3231828212738037,2019-08-07 13:27:50:266
0.2255590856075287,0.36842983961105347,9.688122749328613,-0.0031899140678995457,-0.0038185737890844406,-0.014431465008571131,-174.92609722306273,177.58994099513728,0,1.326185941696167,2019-08-07 13:27:50:269
0.22076958417892456,0.38758784532546997,9.759964942932129,-0.0007924839195965244,-0.005150479166956239,-0.012833178243035783,-175.0005819038592,177.59282521773562,0,1.3299109935760498,2019-08-07 13:27:50:273
0.23513807356357574,0.4235090911388397,9.709675788879395,-0.002390770685131872,-0.003285811533905992,-0.010968509829762562,-175.07224846298732,177.59143834398154,0,1.3330368995666504,2019-08-07 13:27:50:276
0.244717076420784,0.40914058685302734,9.736018180847168,-0.005320963088613342,-0.007281528707818685,-0.011767653732678886,-175.14078441278517,177.59237581078818,0,1.3360264301300049,2019-08-07 13:27:50:279
0.21358533203601837,0.47379884123802185,9.831808090209961,-0.0026571518127210965,-0.003019430146242442,-0.01150127208494101,-175.21241882545652,177.58592969427977,0,1.3399195671081543,2019-08-07 13:27:50:283
0.31416481733322144,0.4498513340950012,9.853360176086426,-0.0007924839195965244,-0.0038185737890844406,-0.008837460809048764,-175.27097567264943,177.58207027417168,0,1.343047857284546,2019-08-07 13:27:50:286
0.23992757499217987,0.4067458510398865,9.759964942932129,-0.0034562954555630953,-0.0027530490186532175,-0.012833178243035783,-175.33693125053307,177.58327895745876,0,1.3460283279418945,2019-08-07 13:27:50:289
0.30698058009147644,0.4690093398094177,9.791096687316895,-0.0018580084299534227,-0.007814290962997135,-0.006972792915924193,-175.392564498439,177.57717115190547,0,1.3499300479888916,2019-08-07 13:27:50:293
0.26148033142089844,0.3732193410396576,9.831808090209961,-0.002390770685131872,-0.001687524508296319,-0.009370223064227214,-175.4539479284831,177.582569172079,0,1.3530585765838623,2019-08-07 13:27:50:296
0.22316433489322662,0.3277190923690796,9.83899211883545,-0.004521819705845669,-0.00435133604426289,-0.010435747574584113,-175.51811292038784,177.59356292853903,0,1.3562071323394775,2019-08-07 13:27:50:299
0.29500681161880493,0.41393008828163147,9.726438522338867,-0.0021243895575426474,-0.0064823853250510115,-0.007239174043513418,-175.57165917387377,177.59339523440676,0,1.3599052429199219,2019-08-07 13:27:50:303
0.27345407009124756,0.46661457419395447,9.81025505065918,-0.0034562954555630953,-0.006216004197461787,-0.006706411788334968,-175.62719996280208,177.58767166508724,0,1.3630359172821045,2019-08-07 13:27:50:306
0.30698058009147644,0.3923773467540741,9.771939277648926,-0.0018580084299534227,-0.004084954916673665,-0.006706411788334968,-175.67798640588077,177.59024111008134,0,1.366013765335083,2019-08-07 13:27:50:309
0.31416481733322144,0.43548282980918884,9.774333953857422,-0.0026571518127210965,-0.003019430146242442,-0.00617364953315652,-175.72694649322787,177.5879969801861,0,1.36991286277771,2019-08-07 13:27:50:313
0.3237438201904297,0.3971668481826782,9.805465698242188,-0.005320963088613342,-0.006216004197461787,-0.006706411788334968,-175.77349654024627,177.59078093402857,0,1.3730370998382568,2019-08-07 13:27:50:316
0.23992757499217987,0.38279834389686584,9.738412857055664,0.0005394218158774704,-0.0014211433807070943,-0.005907268405567294,-175.82956122883377,177.59385406952177,0,1.3760309219360352,2019-08-07 13:27:50:319
0.2710593342781067,0.3444823622703552,9.81025505065918,-0.004788200833434893,-0.007814290962997135,-0.007239174043513418,-175.87969208825612,177.60275040207085,0,1.379732370376587,2019-08-07 13:27:50:323
0.24232232570648193,0.36364033818244934,9.745596885681152,-0.0018580084299534227,-0.0056832419422833385,-0.005374506150388846,-175.93250993483173,177.6083173525975,0,1.383183240890503,2019-08-07 13:27:50:326
0.2638750672340393,0.40195634961128235,9.76954460144043,-0.0037226765831523197,-0.0038185737890844406,-0.0077719362986918665,-175.98227451256685,177.6096557347436,0,1.3861756324768066,2019-08-07 13:27:50:329
0.23513807356357574,0.44027233123779297,9.747991561889648,-0.0018580084299534227,-0.004884098039367014,-0.00617364953315652,-176.03396439616026,177.60613327197424,0,1.3899261951446533,2019-08-07 13:27:50:333
0.2566908299922943,0.37561410665512085,9.81025505065918,-0.005320963088613342,-0.004084954916673665,-0.005374506150388846,-176.08258624022926,177.6110980190659,0,1.3930747509002686,2019-08-07 13:27:50:336
0.199216827750206,0.39477208256721497,9.774333953857422,-0.004788200833434893,-0.005150479166956239,-0.00617364953315652,-176.1367227965296,177.6134181084095,0,1.3960461616516113,2019-08-07 13:27:50:339
0.21358533203601837,0.38279834389686584,9.803071022033691,-0.0018580084299534227,-0.0035521926614952163,-0.004042600252368397,-176.1882540333138,177.61682936588753,0,1.399914264678955,2019-08-07 13:27:50:343
0.23513807356357574,0.380403608083725,9.745596885681152,-0.004788200833434893,-0.0035521926614952163,-0.004841743895210396,-176.236217722091,177.62063353654318,0,1.4030647277832031,2019-08-07 13:27:50:346
0.2782435715198517,0.4259038269519806,9.70249080657959,-0.001058865047185749,-0.006216004197461787,-0.005640887277978069,-176.2775978173506,177.6181292245921,0,1.4060516357421875,2019-08-07 13:27:50:349
0.23513807356357574,0.41393008828163147,9.819833755493164,-0.0026571518127210965,-0.0064823853250510115,-0.007239174043513418,-176.32320509976407,177.61806871809125,0,1.409916639328003,2019-08-07 13:27:50:353
0.20879583060741425,0.34927183389663696,9.762359619140625,-0.0034562954555630953,-0.008613434345764809,-0.0035098379971899483,-176.37072586049962,177.62533294232782,0,1.413039207458496,2019-08-07 13:27:50:356
0.2638750672340393,0.34208759665489197,9.829413414001465,6.659528697688281e-06,-0.004084954916673665,-0.0011124077188497644,-176.4118729682561,177.63296059777045,0,1.4160175323486328,2019-08-07 13:27:50:359
0.17526933550834656,0.36124560236930847,9.75278091430664,-0.0034562954555630953,-0.0054168602945454634,-0.007505555171102641,-176.46185785964028,177.63863273995884,0,1.4199180603027344,2019-08-07 13:27:50:363
0.192032590508461,0.3516665995121002,9.889281272888184,-0.0037226765831523197,-0.0064823853250510115,-0.004575362767621172,-176.5092333395941,177.64578185458384,0,1.4230458736419678,2019-08-07 13:27:50:366
0.17766408622264862,0.334903359413147,9.81025505065918,-0.0026571518127210965,-0.0046177169117777896,-0.0035098379971899483,-176.55752638163935,177.6542062551824,0,1.426023244857788,2019-08-07 13:27:50:369
0.192032590508461,0.37561410665512085,9.805465698242188,-0.0031899140678995457,-0.0008883811255286454,-0.0032434568696007235,-176.6037426970404,177.65794454456145,0,1.429915189743042,2019-08-07 13:27:50:373
0.19682207703590393,0.38998258113861084,9.721649169921875,-0.002390770685131872,-0.00435133604426289,-0.002177932229206663,-176.6477076400172,177.65926151161244,0,1.433039903640747,2019-08-07 13:27:50:376
0.22076958417892456,0.3588508367538452,9.783912658691406,-0.0029235329403103213,-0.0056832419422833385,-0.0037762191247791726,-176.68794847992157,177.66455552045474,0,1.4360241889953613,2019-08-07 13:27:50:379
0.15850608050823212,0.3851930797100067,9.767149925231934,-0.0029235329403103213,-0.0046177169117777896,-0.004841743895210396,-176.73458307215165,177.66673609356633,0,1.4399256706237793,2019-08-07 13:27:50:383
0.21358533203601837,0.34208759665489197,9.834202766418457,-0.0029235329403103213,-0.003019430146242442,-0.0051081250227996205,-176.77447667720756,177.6740702739189,0,1.4430572986602783,2019-08-07 13:27:50:386
0.12976908683776855,0.4043510854244232,9.786307334899902,-0.0026571518127210965,-0.004084954916673665,-0.0051081250227996205,-176.82311122211777,177.6737121942126,0,1.4460291862487793,2019-08-07 13:27:50:389
0.15850608050823212,0.3396928608417511,9.805465698242188,-0.0039890577107415445,-0.003285811533905992,-0.0032434568696007235,-176.8674078210848,177.68142847841634,0,1.4499261379241943,2019-08-07 13:27:50:393
0.11300584673881531,0.4306933283805847,9.855754852294922,-0.0029235329403103213,-0.0011547622531178697,-0.001911551101617438,-176.91671919722208,177.67826701858954,0,1.4530415534973145,2019-08-07 13:27:50:396
0.12258484214544296,0.4235090911388397,9.81025505065918,-0.005853725863940442,-0.008080672090586358,-0.002977075742011499,-176.9627119719384,177.6762445172911,0,1.4560272693634033,2019-08-07 13:27:50:399
0.21358533203601837,0.4043510854244232,9.743202209472656,-0.0026571518127210965,-0.009146196080794608,-0.0027106946144222744,-176.99633845290293,177.67577239431802,0,1.4599277973175049,2019-08-07 13:27:50:403
0.07708460092544556,0.40914058685302734,9.783912658691406,-0.0018580084299534227,-0.008347053218175584,-0.004841743895210396,-177.0459175731307,177.67469162662363,0,1.4630556106567383,2019-08-07 13:27:50:406
0.16329558193683624,0.34208759665489197,9.848570823669434,-0.0015916273023641983,-0.00435133604426289,-0.00031326423855421875,-177.08527175208843,177.68167743001013,0,1.4660401344299316,2019-08-07 13:27:50:409
0.09863734245300293,0.3851930797100067,9.776728630065918,-0.0029235329403103213,-0.005949623069872562,-0.0051081250227996205,-177.1307092941221,177.68355628979853,0,1.4699203968048096,2019-08-07 13:27:50:413
0.09624259918928146,0.3516665995121002,9.81025505065918,-0.0018580084299534227,-0.008080672090586358,-0.0027106946144222744,-177.17543276888864,177.68915198574618,0,1.4730517864227295,2019-08-07 13:27:50:416
0.16090083122253418,0.44027233123779297,9.759964942932129,-0.0029235329403103213,-0.00435133604426289,-0.0032434568696007235,-177.21230796937036,177.6841998045095,0,1.4760253429412842,2019-08-07 13:27:50:419
0.20879583060741425,0.3780088424682617,9.755175590515137,-0.00425543883833077,-0.0038185737890844406,-0.0008460265262419585,-177.24270328597652,177.68706542516995,0,1.4799222946166992,2019-08-07 13:27:50:423
0.12976908683776855,0.3971668481826782,9.736018180847168,-0.0026571518127210965,-0.0022202867634747683,0.00021949806538816636,-177.28218648620827,177.68707078075997,0,1.4830505847930908,2019-08-07 13:27:50:426
0.17047983407974243,0.3732193410396576,9.795886039733887,-0.004521819705845669,-0.0038185737890844406,-0.002177932229206663,-177.3159592792061,177.69045282606365,0,1.486048936843872,2019-08-07 13:27:50:429
0.192032590508461,0.3923773467540741,9.692912101745605,0.0005394218158774704,-0.0035521926614952163,-0.0027106946144222744,-177.3461654089171,177.69016372800834,0,1.4899353981018066,2019-08-07 13:27:50:433
0.21358533203601837,0.3540613353252411,9.800676345825195,-0.002390770685131872,-0.006216004197461787,0.0007522603693305514,-177.3731713630666,177.69540464327784,0,1.4930922985076904,2019-08-07 13:27:50:436
0.14892709255218506,0.3588508367538452,9.862939834594727,-0.0026571518127210965,-0.0064823853250510115,-0.002977075742011499,-177.40729299764558,177.70027856510941,0,1.4961509704589844,2019-08-07 13:27:50:439
0.21598008275032043,0.36364033818244934,9.85096549987793,-0.002390770685131872,-0.009146196080794608,-0.0051081250227996205,-177.43209645159104,177.70449635178096,0,1.499910593032837,2019-08-07 13:27:50:443
0.22316433489322662,0.3540613353252411,9.843781471252441,-0.00425543883833077,-0.007814290962997135,-0.0051081250227996205,-177.45610736652526,177.70995557792546,0,1.503039836883545,2019-08-07 13:27:50:446
0.14174284040927887,0.37561410665512085,9.783912658691406,-0.0029235329403103213,-0.008080672090586358,-0.0032434568696007235,-177.4890349537498,177.71227370424228,0,1.5060155391693115,2019-08-07 13:27:50:449
0.0938478484749794,0.3732193410396576,9.862939834594727,6.659528697688281e-06,-0.007814290962997135,-0.0016451699740282137,-177.526640364189,177.71468534352843,0,1.5099141597747803,2019-08-07 13:27:50:453
0.06271609663963318,0.37561410665512085,9.791096687316895,-0.0026571518127210965,-0.006748766452640236,-0.0016451699740282137,-177.5675819632427,177.71691943465447,0,1.51304292678833,2019-08-07 13:27:50:456
0.15371659398078918,0.38758784532546997,9.81025505065918,0.00027304068828824584,-0.005949623069872562,-0.0035098379971899483,-177.59728206295458,177.71728561008655,0,1.516019582748413,2019-08-07 13:27:50:459
0.11779534071683884,0.42829859256744385,9.86054515838623,-0.0005261027594980092,-0.01047810223888938,-0.004575362767621172,-177.6293528252608,177.71331287594023,0,1.5199203491210938,2019-08-07 13:27:50:463
0.0746898502111435,0.3923773467540741,9.774333953857422,-0.0031899140678995457,-0.004884098039367014,-0.004575362767621172,-177.66715232235018,177.7136299302011,0,1.5230460166931152,2019-08-07 13:27:50:466
0.05074235051870346,0.4115353524684906,9.743202209472656,-0.0031899140678995457,-0.0011547622531178697,-0.005374506150388846,-177.70764732726815,177.71152085978514,0,1.5260396003723145,2019-08-07 13:27:50:469
0.15611134469509125,0.433088093996048,9.786307334899902,-0.0026571518127210965,-0.0038185737890844406,-0.008038317426281092,-177.73438040412142,177.7071932267632,0,1.529937982559204,2019-08-07 13:27:50:473
0.14174284040927887,0.3444823622703552,9.779123306274414,-0.0026571518127210965,-0.003019430146242442,-0.00617364953315652,-177.76255512066135,177.71316559531562,0,1.5330607891082764,2019-08-07 13:27:50:476
0.09145309776067734,0.4115353524684906,9.791096687316895,-0.005587344736351217,-0.0014211433807070943,-0.0051081250227996205,-177.79636312826582,177.7117010974456,0,1.536041498184204,2019-08-07 13:27:50:479
0.12497959285974503,0.4594303369522095,9.86054515838623,0.0010721841035652101,-0.004884098039367014,-0.005907268405567294,-177.82484993113164,177.7038809943222,0,1.5399160385131836,2019-08-07 13:27:50:483
0.1393480896949768,0.38279834389686584,9.73122787475586,-0.0007924839195965244,-0.006216004197461787,-0.0035098379971899483,-177.85084622316575,177.7048896726738,0,1.5430638790130615,2019-08-07 13:27:50:486
0.12497959285974503,0.4163248538970947,9.704886436462402,-0.0013252461747749735,-0.0054168602945454634,-0.0051081250227996205,-177.87815313476088,177.70188901481936,0,1.5460882186889648,2019-08-07 13:27:50:489
0.18005883693695068,0.3995615839958191,9.795886039733887,-0.0015916273023641983,-0.007547909835407911,-0.0051081250227996205,-177.89790842720282,177.70147849934017,0,1.549912691116333,2019-08-07 13:27:50:493
0.12976908683776855,0.4115353524684906,9.829413414001465,0.001871327486332884,-0.006216004197461787,-0.002977075742011499,-177.92373076317506,177.69917132934376,0,1.5530409812927246,2019-08-07 13:27:50:496
0.20400632917881012,0.40914058685302734,9.855754852294922,-0.0031899140678995457,-0.0038185737890844406,-0.007239174043513418,-177.94090160308366,177.69817825208364,0,1.556018352508545,2019-08-07 13:27:50:499
0.23034857213497162,0.42111432552337646,9.783912658691406,-0.0021243895575426474,-0.0054168602945454634,-0.0037762191247791726,-177.95392407184752,177.69538810911942,0,1.5599160194396973,2019-08-07 13:27:50:503
0.22795382142066956,0.4187195897102356,9.831808090209961,0.0005394218158774704,-0.006216004197461787,-0.004308981379957623,-177.96718987944314,177.69261250470944,0,1.563044786453247,2019-08-07 13:27:50:506
0.192032590508461,0.3780088424682617,9.771939277648926,-0.001058865047185749,-0.007281528707818685,-0.004308981379957623,-177.98411307262552,177.69463176244207,0,1.56602144241333,2019-08-07 13:27:50:509
0.15611134469509125,0.38998258113861084,9.819833755493164,-0.0013252461747749735,-0.007281528707818685,-0.005374506150388846,-178.00462111208444,177.69554451166115,0,1.5699200630187988,2019-08-07 13:27:50:513
0.2255590856075287,0.3780088424682617,9.759964942932129,-0.0007924839195965244,-0.006216004197461787,-0.004575362767621172,-178.01696035879024,177.6974128384719,0,1.5730435848236084,2019-08-07 13:27:50:516
0.1656903326511383,0.3971668481826782,9.788702011108398,6.659528697688281e-06,-0.0038185737890844406,-0.0011124077188497644,-178.03658550352836,177.6969945671941,0,1.5760328769683838,2019-08-07 13:27:50:519
0.199216827750206,0.40195634961128235,9.829413414001465,-0.0039890577107415445,-0.003019430146242442,-0.001911551101617438,-178.05197128869077,177.69709377320385,0,1.5799312591552734,2019-08-07 13:27:50:523
0.2375328242778778,0.44027233123779297,9.800676345825195,0.004535139152336618,-0.007814290962997135,-0.004308981379957623,-178.06179123214176,177.6909119460735,0,1.5830609798431396,2019-08-07 13:27:50:526
0.23513807356357574,0.4043510854244232,9.836597442626953,-0.0018580084299534227,-0.008613434345764809,-0.002977075742011499,-178.07172796951022,177.69032595431605,0,1.5860388278961182,2019-08-07 13:27:50:529
0.23992757499217987,0.3396928608417511,9.858149528503418,-0.004788200833434893,-0.0038185737890844406,-0.0011124077188497644,-178.0815748922487,177.6980957026533,0,1.5899319648742676,2019-08-07 13:27:50:533
0.25429606437683105,0.36364033818244934,9.86054515838623,0.0026704709991377204,-0.0064823853250510115,-0.004841743895210396,-178.08926254688322,177.70142587842116,0,1.593050479888916,2019-08-07 13:27:50:536
0.28063830733299255,0.42111432552337646,9.76954460144043,-0.0015916273023641983,-0.004884098039367014,-0.0035098379971899483,-178.09374832791855,177.6983008785421,0,1.5960428714752197,2019-08-07 13:27:50:539
0.24711182713508606,0.3971668481826782,9.764754295349121,0.0005394218158774704,-0.003285811533905992,-0.002977075742011499,-178.10216342827687,177.69763441856708,0,1.5999290943145752,2019-08-07 13:27:50:543
0.24950657784938812,0.4378775954246521,9.776728630065918,0.0021377086139221083,-0.0038185737890844406,-0.006440030660745744,-178.1102112684357,177.69201742503492,0,1.6030583381652832,2019-08-07 13:27:50:546
0.25429606437683105,0.4163248538970947,9.7982816696167,-0.0013252461747749735,-0.004084954916673665,-0.0037762191247791726,-178.11758961061705,177.68973878379228,0,1.6060404777526855,2019-08-07 13:27:50:549
0.2183748334646225,0.4306933283805847,9.7982816696167,0.0008058029759759856,-0.004884098039367014,-0.00617364953315652,-178.12863693805713,177.68543066019828,0,1.6099276542663574,2019-08-07 13:27:50:553
0.32134905457496643,0.46182507276535034,9.771939277648926,-0.0015916273023641983,-0.005949623069872562,-0.005374506150388846,-178.12734996509857,177.6778853895289,0,1.6130542755126953,2019-08-07 13:27:50:556
0.2255590856075287,0.4043510854244232,9.78151798248291,6.659528697688281e-06,-0.006216004197461787,-0.00617364953315652,-178.13734463350457,177.6769833499747,0,1.6160297393798828,2019-08-07 13:27:50:559
0.35966506600379944,0.4187195897102356,9.774333953857422,-0.0007924839195965244,-0.003019430146242442,-0.007505555171102641,-178.13179022102278,177.6745574963971,0,1.6199250221252441,2019-08-07 13:27:50:563
0.18245358765125275,0.4761935770511627,9.817439079284668,-0.0029235329403103213,-0.005949623069872562,-0.006440030660745744,-178.14681512879704,177.66604103670267,0,1.623054027557373,2019-08-07 13:27:50:566
0.22795382142066956,0.43548282980918884,9.829413414001465,-0.0007924839195965244,-0.003285811533905992,-0.0051081250227996205,-178.156758298316,177.66211743292152,0,1.6260371208190918,2019-08-07 13:27:50:569
0.23034857213497162,0.4235090911388397,9.7982816696167,6.659528697688281e-06,-0.0046177169117777896,-0.005374506150388846,-178.16567850353056,177.6593747655621,0,1.6299331188201904,2019-08-07 13:27:50:573
0.27345407009124756,0.41393008828163147,9.867729187011719,-0.0015916273023641983,-0.0046177169117777896,-0.007505555171102641,-178.16980545361426,177.65842662582656,0,1.6330649852752686,2019-08-07 13:27:50:576
0.2566908299922943,0.40914058685302734,9.771939277648926,-0.002390770685131872,-0.007281528707818685,-0.00857107968145954,-178.17508352703064,177.6577122375006,0,1.6360774040222168,2019-08-07 13:27:50:579
0.26148033142089844,0.37561410665512085,9.865334510803223,-0.0026571518127210965,-0.0046177169117777896,-0.006972792915924193,-178.18019954428289,177.66153449947402,0,1.6399996280670166,2019-08-07 13:27:50:583
0.23513807356357574,0.43548282980918884,9.795886039733887,0.0010721841035652101,-0.0038185737890844406,-0.009902985319405663,-178.18842268558254,177.6572062176868,0,1.6431331634521484,2019-08-07 13:27:50:586
0.23274332284927368,0.4067458510398865,9.858149528503418,0.00027304068828824584,-0.004084954916673665,-0.008304698553870315,-178.1969220437067,177.6567629269167,0,1.646111011505127,2019-08-07 13:27:50:589
0.16329558193683624,0.43548282980918884,9.819833755493164,-0.0007924839195965244,-0.004884098039367014,-0.012300415987857336,-178.21288699778432,177.65301190838494,0,1.6499133110046387,2019-08-07 13:27:50:593
0.23513807356357574,0.4594303369522095,9.870123863220215,-0.0026571518127210965,-0.009678958335973056,-0.013632321105654805,-178.21963488949785,177.64711728770303,0,1.6530416011810303,2019-08-07 13:27:50:596
0.20879583060741425,0.40914058685302734,9.819833755493164,0.0010721841035652101,-0.005949623069872562,-0.014431465008571131,-178.22988431922627,177.64627874442527,0,1.6560239791870117,2019-08-07 13:27:50:599
0.26866456866264343,0.5073253512382507,9.76954460144043,-0.001058865047185749,-0.007015147580229461,-0.012034034340119461,-178.2323209266486,177.6341204899576,0,1.6597323417663574,2019-08-07 13:27:50:603
0.25429606437683105,0.4426670968532562,9.779123306274414,-0.0034562954555630953,-0.005150479166956239,-0.012566796595297908,-178.23688522071066,177.63027131059877,0,1.663182020187378,2019-08-07 13:27:50:606
0.26626983284950256,0.433088093996048,9.747991561889648,-0.0026571518127210965,-0.0008883811255286454,-0.01549698951892803,-178.24070502390458,177.62723430816465,0,1.666172742843628,2019-08-07 13:27:50:609
0.24711182713508606,0.47379884123802185,9.750386238098145,-0.0013252461747749735,-0.0024866678910639927,-0.012034034340119461,-178.24633463783633,177.6193275823557,0,1.6699016094207764,2019-08-07 13:27:50:613
0.2854278087615967,0.3588508367538452,9.640227317810059,-0.002390770685131872,-0.0008883811255286454,-0.016296132381547052,-178.2473333174055,177.62472535037998,0,1.673034429550171,2019-08-07 13:27:50:616
0.26866456866264343,0.4067458510398865,9.800676345825195,-0.0029235329403103213,-0.0035521926614952163,-0.014964227263749581,-178.2503842263321,177.62519227115948,0,1.676029920578003,2019-08-07 13:27:50:619
0.24711182713508606,0.46182507276535034,9.815044403076172,-0.0018580084299534227,0.002308192665616375,-0.01549698951892803,-178.2570130601449,177.61919681175297,0,1.6797409057617188,2019-08-07 13:27:50:623
0.2902173101902008,0.4378775954246521,9.79349136352539,-0.0005261027594980092,-0.005150479166956239,-0.014964227263749581,-178.25692813961285,177.61571367784865,0,1.6831879615783691,2019-08-07 13:27:50:626
0.30698058009147644,0.43548282980918884,9.74080753326416,-0.0026571518127210965,-0.0046177169117777896,-0.014697845616011706,-178.25491012811554,177.612650652969,0,1.6861884593963623,2019-08-07 13:27:50:629
0.32134905457496643,0.4067458510398865,9.755175590515137,-0.0034562954555630953,-0.0054168602945454634,-0.015230607871190155,-178.2509442301074,177.6133690096712,0,1.6899144649505615,2019-08-07 13:27:50:633
0.2902173101902008,0.4306933283805847,9.771939277648926,0.00027304068828824584,-0.005150479166956239,-0.017095276284463376,-178.25100059581874,177.6105808140788,0,1.6930339336395264,2019-08-07 13:27:50:636
0.25429606437683105,0.5216938257217407,9.762359619140625,-0.0021243895575426474,-0.0019539056358855436,-0.01602975177410648,-178.25581214665326,177.59754451745815,0,1.6960022449493408,2019-08-07 13:27:50:639
0.23513807356357574,0.48816731572151184,9.75278091430664,-0.0037226765831523197,-0.0024866678910639927,-0.015763370126368605,-178.262529054363,177.58909852779897,0,1.6999008655548096,2019-08-07 13:27:50:643
0.28063830733299255,0.42829859256744385,9.803071022033691,0.0010721841035652101,-0.004884098039367014,-0.01602975177410648,-178.26362478626868,177.58709472329159,0,1.703028917312622,2019-08-07 13:27:50:646
0.3309280574321747,0.3660351037979126,9.75278091430664,-0.0007924839195965244,-0.0038185737890844406,-0.013632321105654805,-178.25885003655185,177.59249688664266,0,1.7059874534606934,2019-08-07 13:27:50:649
0.244717076420784,0.38998258113861084,9.783912658691406,-0.004521819705845669,-0.0027530490186532175,-0.014165083360833256,-178.264413717138,177.59598653863722,0,1.7098910808563232,2019-08-07 13:27:50:653
0.24950657784938812,0.41393008828163147,9.78151798248291,6.659528697688281e-06,-0.003019430146242442,-0.014964227263749581,-178.26937131641574,177.59560218798296,0,1.7130200862884521,2019-08-07 13:27:50:656
0.24950657784938812,0.4450618326663971,9.788702011108398,-0.001058865047185749,-0.004884098039367014,-0.009370223064227214,-178.2739479153626,177.59180554635736,0,1.7160604000091553,2019-08-07 13:27:50:659
0.26148033142089844,0.4187195897102356,9.86054515838623,-0.0013252461747749735,-0.0046177169117777896,-0.01150127208494101,-178.2770894594052,177.59162515319107,0,1.7199149131774902,2019-08-07 13:27:50:663
0.2902173101902008,0.433088093996048,9.786307334899902,-0.00025972161565413924,-0.0027530490186532175,-0.014697845616011706,-178.2770918496028,177.5891593798724,0,1.7230403423309326,2019-08-07 13:27:50:666
0.3764283061027527,0.4163248538970947,9.824623107910156,-0.0031899140678995457,-0.0008883811255286454,-0.010702129222321988,-178.26751451465438,177.58939013575815,0,1.726076602935791,2019-08-07 13:27:50:669
0.2758488357067108,0.41393008828163147,9.800676345825195,-0.0029235329403103213,-0.005150479166956239,-0.010968509829762562,-178.2688022977947,177.58986789212113,0,1.7299411296844482,2019-08-07 13:27:50:673
0.3165595531463623,0.4306933283805847,9.759964942932129,-0.006120106991529666,-0.0024866678910639927,-0.009902985319405663,-178.26584191491537,177.58859441114078,0,1.7330219745635986,2019-08-07 13:27:50:676
0.22316433489322662,0.4067458510398865,9.75278091430664,-0.0021243895575426474,-0.0038185737890844406,-0.00857107968145954,-178.27365816905302,177.58942096703848,0,1.736055850982666,2019-08-07 13:27:50:679
0.2519013285636902,0.38998258113861084,9.73122787475586,-0.0013252461747749735,-0.0038185737890844406,-0.010702129222321988,-178.27770475482944,177.59202003339104,0,1.7398982048034668,2019-08-07 13:27:50:683
0.2638750672340393,0.42829859256744385,9.707281112670898,-0.0031899140678995457,-0.0022202867634747683,-0.010702129222321988,-178.28061875289754,177.5902132206855,0,1.743025779724121,2019-08-07 13:27:50:686
0.25429606437683105,0.40195634961128235,9.827017784118652,0.0005394218158774704,-0.007281528707818685,-0.010968509829762562,-178.28411408271205,177.59147118118753,0,1.746072769165039,2019-08-07 13:27:50:689
0.3309280574321747,0.4642198383808136,9.817439079284668,-0.005320963088613342,-0.006748766452640236,-0.011234891477500435,-178.27836889525636,177.58664106193703,0,1.749901294708252,2019-08-07 13:27:50:693
0.29261207580566406,0.4378775954246521,9.843781471252441,0.001871327486332884,-0.003019430146242442,-0.0077719362986918665,-178.2782188182662,177.58364014282935,0,1.753025770187378,2019-08-07 13:27:50:696
0.2111905813217163,0.4043510854244232,9.726438522338867,-0.005587344736351217,-0.0056832419422833385,-0.011234891477500435,-178.2868101792569,177.58530687273625,0,1.7560555934906006,2019-08-07 13:27:50:699
0.25429606437683105,0.4306933283805847,9.747991561889648,-0.002390770685131872,-0.0014211433807070943,-0.006440030660745744,-178.2908806592781,177.58351964901695,0,1.7598974704742432,2019-08-07 13:27:50:703
0.19682207703590393,0.40195634961128235,9.779123306274414,-0.0015916273023641983,-0.0027530490186532175,-0.005640887277978069,-178.30151978289507,177.5850537221278,0,1.7630207538604736,2019-08-07 13:27:50:706
0.3357175588607788,0.41393008828163147,9.800676345825195,-0.0029235329403103213,0.002840954920794824,-0.00857107968145954,-178.29673668986862,177.5854826724417,0,1.7660596370697021,2019-08-07 13:27:50:709
0.2519013285636902,0.38279834389686584,9.79349136352539,-0.0026571518127210965,-0.004084954916673665,-0.008038317426281092,-178.30045132832123,177.5895795519596,0,1.7699079513549805,2019-08-07 13:27:50:713
0.26626983284950256,0.40195634961128235,9.73122787475586,-0.0034562954555630953,-0.0046177169117777896,-0.008038317426281092,-178.302285851275,177.59108759016308,0,1.773029088973999,2019-08-07 13:27:50:716
0.22076958417892456,0.36842983961105347,9.728833198547363,-0.00025972161565413924,-0.003019430146242442,-0.007239174043513418,-178.3097271365744,177.59593508132224,0,1.7760608196258545,2019-08-07 13:27:50:719
0.26866456866264343,0.42829859256744385,9.726438522338867,-0.00425543883833077,-0.0054168602945454634,-0.010169366967143538,-178.3107201060134,177.59450669856201,0,1.7799007892608643,2019-08-07 13:27:50:723
0.22795382142066956,0.40195634961128235,9.76954460144043,-0.0015916273023641983,-0.0022202867634747683,-0.006440030660745744,-178.3173840921411,177.59577443750126,0,1.7830185890197754,2019-08-07 13:27:50:726
0.24711182713508606,0.3851930797100067,9.795886039733887,-0.0018580084299534227,-0.00435133604426289,-0.007239174043513418,-178.3213960103122,177.59913833983626,0,1.7860455513000488,2019-08-07 13:27:50:729
0.199216827750206,0.4259038269519806,9.862939834594727,-0.004521819705845669,-0.0064823853250510115,-0.0077719362986918665,-178.3304201918857,177.59868332787437,0,1.7899062633514404,2019-08-07 13:27:50:733
0.23992757499217987,0.40914058685302734,9.827017784118652,-0.00425543883833077,-0.007281528707818685,-0.006440030660745744,-178.334559026931,177.59977630414758,0,1.7930386066436768,2019-08-07 13:27:50:736
0.19442732632160187,0.4426670968532562,9.75278091430664,-0.0039890577107415445,-0.007281528707818685,-0.0051081250227996205,-178.34378508372697,177.59648473248222,0,1.796074628829956,2019-08-07 13:27:50:739
0.21598008275032043,0.4642198383808136,9.666569709777832,-0.0021243895575426474,-0.0019539056358855436,-0.0077719362986918665,-178.35089134127045,177.59002241034028,0,1.7998948097229004,2019-08-07 13:27:50:743
0.15371659398078918,0.3851930797100067,9.824623107910156,-0.002390770685131872,-0.005150479166956239,-0.00963660471196509,-178.36504328987346,177.59373614227232,0,1.803015947341919,2019-08-07 13:27:50:746
0.23274332284927368,0.39477208256721497,9.800676345825195,-0.0037226765831523197,-0.0046177169117777896,-0.010169366967143538,-178.3697504762688,177.59636100122424,0,1.8060405254364014,2019-08-07 13:27:50:749
0.14892709255218506,0.36124560236930847,9.834202766418457,-0.004788200833434893,-0.0024866678910639927,-0.008038317426281092,-178.38446260192336,177.60340022172895,0,1.809912919998169,2019-08-07 13:27:50:753
0.14892709255218506,0.4426670968532562,9.824623107910156,-0.0037226765831523197,-0.001687524508296319,-0.009370223064227214,-178.3991092823205,177.60038641589404,0,1.813025951385498,2019-08-07 13:27:50:756
0.18724308907985687,0.41393008828163147,9.803071022033691,-0.004521819705845669,-0.0019539056358855436,-0.009902985319405663,-178.40891246105954,177.6007848802851,0,1.8160319328308105,2019-08-07 13:27:50:759
0.18245358765125275,0.39477208256721497,9.757570266723633,-0.008251156012243464,-0.0038185737890844406,-0.009902985319405663,-178.41847052892928,177.6042460492079,0,1.8199453353881836,2019-08-07 13:27:50:763
0.16090083122253418,0.3971668481826782,9.812649726867676,-0.005587344736351217,-0.0056832419422833385,-0.00857107968145954,-178.43027003234482,177.60683078105492,0,1.8232133388519287,2019-08-07 13:27:50:766
0.2111905813217163,0.4115353524684906,9.73122787475586,-0.00425543883833077,-0.006216004197461787,-0.00963660471196509,-178.43573598176064,177.606990105811,0,1.8262603282928467,2019-08-07 13:27:50:769
0.15371659398078918,0.42111432552337646,9.747991561889648,-0.0034562954555630953,-0.007015147580229461,-0.00963660471196509,-178.44742244420738,177.60613135296347,0,1.8301453590393066,2019-08-07 13:27:50:773
0.199216827750206,0.48098307847976685,9.788702011108398,-0.006120106991529666,-0.0054168602945454634,-0.010169366967143538,-178.454211853281,177.59881420989385,0,1.8332490921020508,2019-08-07 13:27:50:776
0.10103209316730499,0.45464083552360535,9.779123306274414,-0.0039890577107415445,-0.007015147580229461,-0.010702129222321988,-178.47209529642365,177.59428039108352,0,1.8362798690795898,2019-08-07 13:27:50:779
0.15132184326648712,0.44745659828186035,9.75278091430664,-0.005853725863940442,-0.00435133604426289,-0.007505555171102641,-178.48392642652436,177.59113330616614,0,1.8401625156402588,2019-08-07 13:27:50:783
0.18005883693695068,0.4426670968532562,9.817439079284668,-0.004788200833434893,-0.00435133604426289,-0.013099558850476358,-178.49246832006148,177.58851825466323,0,1.8432936668395996,2019-08-07 13:27:50:786
0.14892709255218506,0.47379884123802185,9.819833755493164,-0.006120106991529666,-0.006748766452640236,-0.0077719362986918665,-178.50410383144035,177.58253284859853,0,1.8462955951690674,2019-08-07 13:27:50:789
0.12258484214544296,0.39477208256721497,9.831808090209961,-0.004788200833434893,-0.0024866678910639927,-0.012034034340119461,-178.51919741157397,177.5859306297291,0,1.8501458168029785,2019-08-07 13:27:50:793
0.13216383755207062,0.4594303369522095,9.767149925231934,-0.0034562954555630953,-0.0054168602945454634,-0.008837460809048764,-178.5323630248033,177.5809530416913,0,1.8532543182373047,2019-08-07 13:27:50:796
0.08905834704637527,0.5145095586776733,9.759964942932129,-0.006919250374297341,-0.004884098039367014,-0.01150127208494101,-178.55041705898208,177.57017518384774,0,1.8563270568847656,2019-08-07 13:27:50:800
0.09863734245300293,0.3732193410396576,9.819833755493164,-0.006652869246708115,-0.004084954916673665,-0.013898702753392682,-178.56701761910466,177.57667516289206,0,1.86016845703125,2019-08-07 13:27:50:803
0.18005883693695068,0.46661457419395447,9.81025505065918,-0.006919250374297341,-0.0056832419422833385,-0.00963660471196509,-178.5736577224084,177.57188325123025,0,1.863269567489624,2019-08-07 13:27:50:806
0.15132184326648712,0.4115353524684906,9.872518539428711,-0.00425543883833077,-0.0064823853250510115,-0.009103842456786639,-178.58352136007474,177.57342821594605,0,1.866292953491211,2019-08-07 13:27:50:809
0.15850608050823212,0.3732193410396576,9.889281272888184,-0.004788200833434893,-0.004884098039367014,-0.011234891477500435,-178.5923844899152,177.57981313892918,0,1.8703083992004395,2019-08-07 13:27:50:814
0.1201900914311409,0.47379884123802185,9.82222843170166,-0.0039890577107415445,-0.00435133604426289,-0.012300415987857336,-178.60579319038754,177.57364582520563,0,1.8732645511627197,2019-08-07 13:27:50:816
0.05074235051870346,0.4235090911388397,9.81025505065918,-0.007185631501886564,-0.007015147580229461,-0.01150127208494101,-178.62656029912995,177.5739532753789,0,1.8762855529785156,2019-08-07 13:27:50:819
0.10342684388160706,0.4306933283805847,9.858149528503418,-0.0031899140678995457,-0.013141913514781627,-0.012566796595297908,-178.6391503521829,177.5731354728352,0,1.8801569938659668,2019-08-07 13:27:50:823
0.15132184326648712,0.44745659828186035,9.74080753326416,-0.005054581961024118,-0.007547909835407911,-0.009902985319405663,-178.64725428696002,177.56994981802535,0,1.8832547664642334,2019-08-07 13:27:50:826
0.06990034878253937,0.3468770980834961,9.891676902770996,-0.0037226765831523197,-0.008080672090586358,-0.01150127208494101,-178.66483572164333,177.57901666887685,0,1.8862872123718262,2019-08-07 13:27:50:829
0.060321349650621414,0.3708246052265167,9.836597442626953,-0.0077183937570650145,-0.007547909835407911,-0.014697845616011706,-178.68287239375255,177.58593411737425,0,1.8901557922363281,2019-08-07 13:27:50:833
0.024400103837251663,0.43548282980918884,9.745596885681152,-0.0039890577107415445,-0.0056832419422833385,-0.012833178243035783,-178.7053464966675,177.5837456309518,0,1.8932876586914062,2019-08-07 13:27:50:836
0.026794854551553726,0.44027233123779297,9.886886596679688,-0.0026571518127210965,-0.005949623069872562,-0.012566796595297908,-178.727126028479,177.58152587295723,0,1.8963048458099365,2019-08-07 13:27:50:840
0.16329558193683624,0.3444823622703552,9.743202209472656,-0.0018580084299534227,-0.006748766452640236,-0.013898702753392682,-178.73192161906076,177.5897984907488,0,1.9001529216766357,2019-08-07 13:27:50:843
0.10582159459590912,0.36364033818244934,9.827017784118652,-0.005320963088613342,-0.0035521926614952163,-0.010435747574584113,-178.7443242732625,177.5965464716149,0,1.9032597541809082,2019-08-07 13:27:50:846
0.019610606133937836,0.38758784532546997,9.79349136352539,-0.0037226765831523197,-0.010211721631448806,-0.009370223064227214,-178.7653798240734,177.5999312037933,0,1.9063351154327393,2019-08-07 13:27:50:850
0.10821634531021118,0.380403608083725,9.767149925231934,-0.007185631501886564,-0.004084954916673665,-0.010968509829762562,-178.7764971375849,177.6048715910037,0,1.9101686477661133,2019-08-07 13:27:50:853
0.060321349650621414,0.37561410665512085,9.73122787475586,-0.0026571518127210965,-0.007547909835407911,-0.010968509829762562,-178.79255208288842,177.60902695687187,0,1.913264274597168,2019-08-07 13:27:50:856
0.1273743361234665,0.3468770980834961,9.85096549987793,-0.0018580084299534227,-0.010211721631448806,-0.013632321105654805,-178.8001558260345,177.61682715722654,0,1.9162800312042236,2019-08-07 13:27:50:859
0.12976908683776855,0.38279834389686584,9.776728630065918,-0.006919250374297341,-0.003019430146242442,-0.012034034340119461,-178.80828501491516,177.62115541995226,0,1.9201643466949463,2019-08-07 13:27:50:863
0.0675055980682373,0.4115353524684906,9.7982816696167,-0.0018580084299534227,-0.0056832419422833385,-0.010702129222321988,-178.8232290748001,177.62095671762046,0,1.9232840538024902,2019-08-07 13:27:50:866
0.06990034878253937,0.3851930797100067,9.886886596679688,-0.0034562954555630953,-0.006216004197461787,-0.014431465008571131,-178.83761332769794,177.62449893242263,0,1.9262914657592773,2019-08-07 13:27:50:869
