ACCELEROMETER X (m/s²),ACCELEROMETER Y (m/s²),ACCELEROMETER Z (m/s²),GYROSCOPE X (rad/s),GYROSCOPE Y (rad/s),GYROSCOPE Z (rad/s),Time since start in ms ,YYYY-MO-DD HH-MI-SS_SSS,Pitch (Deg),Roll (Deg),Heading (Deg),MagX,MagY,MagZ
0.0779874175786972,0.1786794662475586,9.799490928649902,-0.0029192708422688934,0.002517568101864343,-0.05157431993966217,0.0,2019-07-25 15:43:54:871,-3.590880637403388,3.5791082106888794,0,-28.33846092224121,16.64322280883789,-38.83418655395508
0.10193491727113724,0.12838971614837646,9.859359741210938,-0.0018537463319119952,-0.0001462432553011296,-0.04544755140436675,0.01000213623046875,2019-07-25 15:43:54:881,-7.10713380913335,7.093645743699328,0,-28.33846092224121,16.64322280883789,-38.83418655395508
0.06840842217206955,0.13078446686267853,9.732437133789062,-0.003452033357521668,0.0027839492294535677,-0.05157431993966217,0.020004749298095703,2019-07-25 15:43:54:891,-10.558500320512984,10.53831376320272,0,-28.33846092224121,16.64322280883789,-38.83418655395508
0.05164517089724541,0.14754770696163177,9.833017349243164,-0.003452033357521668,-0.0009453866868327393,-0.045713934092401924,0.030002832412719727,2019-07-25 15:43:54:901,-13.940781037019423,13.91229187291003,0,-28.33846092224121,16.64322280883789,-38.83418655395508
0.1043296679854393,0.1331792175769806,9.849780082702637,0.0002773027863296734,-0.002277292454816025,-0.049443270918948366,0.0400083065032959,2019-07-25 15:43:54:911,-17.248548842884563,17.218397224793744,0,-28.33846092224121,16.64322280883789,-38.83418655395508
0.07319791615009308,0.16910046339035034,9.758779525756836,-0.00212012745950122,-0.00787129665433839,-0.04544755140436675,0.05000567436218262,2019-07-25 15:43:54:921,-20.490564271104727,20.45536493834728,0,-28.188522338867188,17.992673873901367,-39.28400421142578
0.00853967759758234,0.13557396829128265,9.751595497131348,-0.0018537463319119952,-0.0001462432553011296,-0.04757860042508055,0.059984683990478516,2019-07-25 15:43:54:931,-23.679667540492062,23.63136598218946,0,-28.188522338867188,17.992673873901367,-39.28400421142578
0.037276674062013626,0.2169954478740692,9.897675514221191,-0.005050319862982691,-0.0025436735824052492,-0.04358288507168813,0.07000494003295898,2019-07-25 15:43:54:941,-26.800327294808064,26.73646126276725,0,-28.188522338867188,17.992673873901367,-39.28400421142578
-0.017802570015192032,0.20023220777511597,9.816253662109375,-0.0031856519698581177,-0.002277292454816025,-0.04358288507168813,0.08000040054321289,2019-07-25 15:43:54:951,-22.66512084109359,29.780148788612095,0,-28.188522338867188,17.992673873901367,-39.28400421142578
-0.041750065982341766,0.14275822043418884,9.763568878173828,-0.0018537463319119952,0.0017184247190966692,-0.04278374116877181,0.09000754356384277,2019-07-25 15:43:54:961,-18.61768403453841,32.76883359819103,0,-28.188522338867188,17.992673873901367,-39.28400421142578
0.042066171765327454,0.19304795563220978,9.792305946350098,-0.0010546029491443213,0.0014520435915074442,-0.0438492677597233,0.0999901294708252,2019-07-25 15:43:54:971,-21.841221615707518,35.691460114098604,0,-28.188522338867188,17.992673873901367,-39.28400421142578
0.010934427380561829,0.1858637034893036,9.804280281066895,-0.004251176740289341,-0.0025436735824052492,-0.03718973800954674,0.10998797416687012,2019-07-25 15:43:54:981,-25.001691216321856,38.55829644415338,0,-28.188522338867188,17.992673873901367,-39.28400421142578
0.03488192334771156,0.20981121063232422,9.804280281066895,-0.005316700990571915,-0.00041262439914499955,-0.0438492677597233,0.11999177932739258,2019-07-25 15:43:54:991,-28.097348664710932,41.36559816565601,0,-28.188522338867188,17.992673873901367,-39.28400421142578
-0.010618319734930992,0.22896920144557953,9.787516593933105,-0.006914988276255913,0.004115855127474016,-0.042517362641925835,0.12999868392944336,2019-07-25 15:43:55:001,-23.938957519108673,44.11536897474488,0,-28.188522338867188,17.992673873901367,-39.28400421142578
0.06601367145776749,0.2433377057313919,9.861754417419434,-0.005316700990571915,-0.0020109111971896377,-0.03985354824514169,0.13998746871948242,2019-07-25 15:43:55:011,-27.05137997281112,46.80777396273795,0,-28.188522338867188,17.992673873901367,-39.28400421142578
0.08996116369962692,0.21460069715976715,9.782727241516113,-0.0031856519698581177,0.002517568101864343,-0.03452592569335719,0.14998984336853027,2019-07-25 15:43:55:021,-30.1012288706017,49.44827407852927,0,-28.188522338867188,17.992673873901367,-39.28400421142578
0.07559266686439514,0.14275822043418884,9.74441146850586,-0.0023865085870904443,0.0009192813363289952,-0.04171821873900951,0.15999627113342285,2019-07-25 15:43:55:031,-33.09083149187908,52.04386271227251,0,-28.188522338867188,17.992673873901367,-39.28400421142578
-0.05611856281757355,0.1523372083902359,9.907254219055176,-0.009046037296969709,-0.0025436735824052492,-0.04011993093317686,0.1699967384338379,2019-07-25 15:43:55:041,-28.83407737071679,54.5904464454086,0,-27.88864517211914,17.992673873901367,-38.984127044677734
-0.0656975656747818,-0.017690015956759453,9.84738540649414,-0.007447750531434362,-0.0030764358375836983,-0.04438202897460446,0.1799938678741455,2019-07-25 15:43:55:051,-24.663313852473323,49.90487675851099,0,-27.88864517211914,17.992673873901367,-38.984127044677734
0.05403992161154747,-0.07516400516033173,9.895280838012695,-0.011177086317683507,-0.004408341475529821,-0.03958716971829571,0.18997478485107422,2019-07-25 15:43:55:061,-27.761319030805385,45.32174730969905,0,-27.88864517211914,17.992673873901367,-38.984127044677734
0.0851716697216034,0.14275822043418884,9.813858985900879,-0.004517557607804241,-0.008670440037106066,-0.04171821873900951,0.19999456405639648,2019-07-25 15:43:55:071,-30.791269757179602,48.00118599011536,0,-27.88864517211914,17.992673873901367,-38.984127044677734
0.07080317288637161,0.23375870287418365,9.689332008361816,0.004273019862714496,0.002251186974275118,-0.04518117287752078,0.20999383926391602,2019-07-25 15:43:55:081,-33.7683348713842,50.61112287545512,0,-27.88864517211914,17.992673873901367,-38.984127044677734
0.17138265073299408,0.0996527224779129,9.854569435119629,-0.010111561807326608,-0.0012117678144219638,-0.044914790189485604,0.21999406814575195,2019-07-25 15:43:55:091,-36.67236092996425,53.19299068697477,0,-27.88864517211914,17.992673873901367,-38.984127044677734
0.0588294193148613,0.12360021471977234,9.720463752746582,-0.001320984076733546,0.0003865190486412555,-0.047844983113115726,0.22998642921447754,2019-07-25 15:43:55:101,-39.53219544077379,55.71530197324851,0,-27.88864517211914,17.992673873901367,-38.984127044677734
0.03967142477631569,0.12120546400547028,9.866543769836426,-0.006115844893488239,-0.005207484858297496,-0.04038631362121203,0.2399921417236328,2019-07-25 15:43:55:111,-42.33401839041375,58.19035565284102,0,-27.88864517211914,17.992673873901367,-38.984127044677734
0.08996116369962692,0.2050217092037201,9.816253662109375,-0.007181369403845137,-0.0030764358375836983,-0.04278374116877181,0.24999308586120605,2019-07-25 15:43:55:121,-45.07510898305125,60.606651201756726,0,-27.88864517211914,17.992673873901367,-38.984127044677734
0.12827716767787933,0.2313639521598816,9.80667495727539,-0.00558308263830979,-0.0033428169651729235,-0.04544755140436675,0.25998997688293457,2019-07-25 15:43:55:131,-47.756741993998425,62.97062210023353,0,-27.88864517211914,17.992673873901367,-38.984127044677734
0.12348766624927521,0.291232705116272,9.787516593933105,-0.007447750531434362,0.003583092872295566,-0.041451836050974335,0.26999402046203613,2019-07-25 15:43:55:141,-50.38916278699644,65.28130598760406,0,-27.88864517211914,17.992673873901367,-38.984127044677734
0.14504040777683258,0.2624956965446472,9.789911270141602,0.0002773027863296734,0.0033167117447063417,-0.04438202897460446,0.27999424934387207,2019-07-25 15:43:55:151,-52.966266069290135,67.54480622416975,0,-27.88864517211914,17.992673873901367,-38.984127044677734
0.14264565706253052,0.2624956965446472,9.849780082702637,-0.0029192708422688934,0.004648617382652464,-0.03905440434222536,0.2899904251098633,2019-07-25 15:43:55:161,-55.49295581965341,69.76501732521238,0,-27.88864517211914,17.992673873901367,-38.984127044677734
0.1570141613483429,0.2505219578742981,9.739622116088867,-0.00212012745950122,-0.0020109111971896377,-0.03825526043930904,0.29999303817749023,2019-07-25 15:43:55:171,-57.96349537763747,71.94143906635867,0,-28.788278579711914,16.793163299560547,-38.984127044677734
0.10193491727113724,0.22657445073127747,9.758779525756836,0.0002773027863296734,-0.002277292454816025,-0.03612421141859524,0.3099956512451172,2019-07-25 15:43:55:181,-60.39097726198144,74.07585402450852,0,-28.788278579711914,16.793163299560547,-38.984127044677734
0.10911916196346283,0.17628471553325653,9.789911270141602,-0.0047839387353934655,0.0009192813363289952,-0.03559145020371409,0.3199903964996338,2019-07-25 15:43:55:191,-62.77090167952395,76.17638969476704,0,-28.788278579711914,16.793163299560547,-38.984127044677734
0.1306719183921814,0.15712670981884003,9.787516593933105,0.0013428273291958624,0.002517568101864343,-0.032661259360678575,0.32999348640441895,2019-07-25 15:43:55:201,-65.10159962596747,78.2337129671443,0,-28.788278579711914,16.793163299560547,-38.984127044677734
0.12109291553497314,0.11402121931314468,9.809069633483887,-0.003452033357521668,-0.001744530069600413,-0.033460401183000296,0.3399956226348877,2019-07-25 15:43:55:211,-67.38444226926856,80.25765784158872,0,-28.788278579711914,16.793163299560547,-38.984127044677734
0.11151391267776489,0.16191621124744415,9.86414909362793,-0.00212012745950122,0.0017184247190966692,-0.032661259360678575,0.34999847412109375,2019-07-25 15:43:55:221,-69.62476460226344,82.23488739856779,0,-28.788278579711914,16.793163299560547,-38.984127044677734
0.08756642043590546,0.08528421819210052,9.804280281066895,-0.004517557607804241,0.003583092872295566,-0.032394876672643395,0.3599865436553955,2019-07-25 15:43:55:231,-71.82404439821227,84.18275553432441,0,-28.788278579711914,16.793163299560547,-38.984127044677734
0.09954016655683517,0.08288946747779846,9.758779525756836,-0.0039847956127001165,0.0006529002087397708,-0.03772249922442789,0.3699946403503418,2019-07-25 15:43:55:241,-73.97624240370477,86.09160670814884,0,-28.788278579711914,16.793163299560547,-38.984127044677734
0.015723926946520805,0.10923171788454056,9.821043014526367,-0.0047839387353934655,-0.0001462432553011296,-0.04198459726585548,0.3799898624420166,2019-07-25 15:43:55:251,-76.09480081918507,87.95971487555184,0,-28.788278579711914,16.793163299560547,-38.984127044677734
0.015723926946520805,0.1451529562473297,9.792305946350098,-0.00212012745950122,0.00118566246391822,-0.04011993093317686,0.38999485969543457,2019-07-25 15:43:55:261,-78.17173083897066,89.78472677091554,0,-28.788278579711914,16.793163299560547,-38.984127044677734
0.027697674930095673,0.15712670981884003,9.777937889099121,-0.004251176740289341,-0.0014781489420111885,-0.04651307799531825,0.3999919891357422,2019-07-25 15:43:55:271,-80.2042204893659,91.57300585841027,0,-28.788278579711914,16.793163299560547,-38.984127044677734
-0.005828820634633303,0.15473195910453796,9.823437690734863,-0.0039847956127001165,-0.001744530069600413,-0.04358288507168813,0.4099888801574707,2019-07-25 15:43:55:281,-74.99983677157924,93.32573432995545,0,-28.788278579711914,16.793163299560547,-38.984127044677734
0.01811867579817772,0.15712670981884003,9.792305946350098,-0.006914988276255913,-0.0020109111971896377,-0.043316502383652956,0.41999387741088867,2019-07-25 15:43:55:291,-77.09659006606225,95.04471863032863,0,-29.537973403930664,16.94310188293457,-38.53430938720703
-0.015407819300889969,0.16431096196174622,9.74441146850586,-0.006648607148666687,-0.0001462432553011296,-0.05077517603674584,0.4299957752227783,2019-07-25 15:43:55:301,-71.9563880488019,96.72823747057936,0,-29.537973403930664,16.94310188293457,-38.53430938720703
0.001355428365059197,0.15712670981884003,9.828227996826172,-0.005316700990571915,0.0027839492294535677,-0.052373463842578495,0.43999218940734863,2019-07-25 15:43:55:311,-74.11866487574936,98.37833844928214,0,-29.537973403930664,16.94310188293457,-38.53430938720703
-0.008223570883274078,0.1714952141046524,9.792305946350098,-0.003718414485110892,-0.0014781489420111885,-0.045980316780437104,0.44998764991760254,2019-07-25 15:43:55:321,-69.03642431517399,99.99279194927085,0,-29.537973403930664,16.94310188293457,-38.53430938720703
0.0324871726334095,0.14036346971988678,9.777937889099121,-0.0058494637658990135,-0.0014781489420111885,-0.05077517603674584,0.4599905014038086,2019-07-25 15:43:55:331,-71.251058326092,101.57977288701214,0,-29.537973403930664,16.94310188293457,-38.53430938720703
0.0324871726334095,0.12838971614837646,9.866543769836426,-0.0026528897146796686,0.0019848058466858938,-0.052107081154543315,0.46999120712280273,2019-07-25 15:43:55:341,-73.42337860736997,103.13475659053152,0,-29.537973403930664,16.94310188293457,-38.53430938720703
0.020513426512479782,0.13557396829128265,9.873727798461914,-0.0039847956127001165,-0.0012117678144219638,-0.04864412701603205,0.4799923896789551,2019-07-25 15:43:55:351,-75.55184982471197,104.65856585630979,0,-29.537973403930664,16.94310188293457,-38.53430938720703
-0.034565817564725876,0.1331792175769806,9.780332565307617,-0.007714131659023586,0.00012013789667006295,-0.053172607745494815,0.48999571800231934,2019-07-25 15:43:55:361,-70.44493020542666,106.15412443675017,0,-29.537973403930664,16.94310188293457,-38.53430938720703
-0.027381567284464836,0.11881071329116821,9.849780082702637,-0.0026528897146796686,-0.0012117678144219638,-0.05184070262769734,0.49999260902404785,2019-07-25 15:43:55:371,-65.43853694845637,107.6187094051838,0,-29.537973403930664,16.94310188293457,-38.53430938720703
-0.005828820634633303,0.1595214605331421,9.76596450805664,-0.005316700990571915,-0.0020109111971896377,-0.05557003529305459,0.5099949836730957,2019-07-25 15:43:55:381,-60.52932075765154,109.05060503319136,0,-29.537973403930664,16.94310188293457,-38.53430938720703
0.01811867579817772,0.14036346971988678,9.787516593933105,-0.005316700990571915,-0.007072152751422067,-0.05690194041085206,0.519993782043457,2019-07-25 15:43:55:391,-62.912642496066034,110.4561453638897,0,-29.537973403930664,16.94310188293457,-38.53430938720703
-0.0656975656747818,0.1523372083902359,9.794700622558594,-0.003718414485110892,-0.0001462432553011296,-0.05370536896037596,0.5299947261810303,2019-07-25 15:43:55:401,-58.06199359107932,111.83128952322711,0,-29.537973403930664,16.94310188293457,-38.53430938720703
-0.017802570015192032,0.18346895277500153,9.840201377868652,-0.006648607148666687,-0.0001462432553011296,-0.05716832309888723,0.5399866104125977,2019-07-25 15:43:55:411,-53.30274482120119,113.17703095246615,0,-29.537973403930664,16.94310188293457,-38.53430938720703
0.013329177163541317,0.1595214605331421,9.801885604858398,-0.004517557607804241,0.0038494739998847904,-0.05663556188400609,0.5499889850616455,2019-07-25 15:43:55:421,-55.83729363040316,114.4973799024689,0,-28.938217163085938,18.14261245727539,-37.93455505371094
0.0324871726334095,0.19544270634651184,9.852174758911133,-0.0031856519698581177,0.00012013789667006295,-0.056369179195970905,0.5599937438964844,2019-07-25 15:43:55:431,-58.31683664765642,115.78649275352537,0,-28.938217163085938,18.14261245727539,-37.93455505371094
0.01811867579817772,0.17628471553325653,9.792305946350098,-0.0005218406614565815,0.003050330357042792,-0.05290622505745964,0.5699961185455322,2019-07-25 15:43:55:441,-60.75009279583475,117.05042901243262,0,-28.938217163085938,18.14261245727539,-37.93455505371094
0.0588294193148613,0.1595214605331421,9.706095695495605,-0.0031856519698581177,0.0003865190486412555,-0.05263984236942447,0.5799903869628906,2019-07-25 15:43:55:451,-63.128362444804914,118.29237650903514,0,-28.938217163085938,18.14261245727539,-37.93455505371094
0.06840842217206955,0.19304795563220978,9.76596450805664,-0.0029192708422688934,-0.0025436735824052492,-0.052373463842578495,0.5899903774261475,2019-07-25 15:43:55:461,-65.4563401739433,119.50551929492205,0,-28.938217163085938,18.14261245727539,-37.93455505371094
0.07080317288637161,0.16910046339035034,9.799490928649902,-0.003718414485110892,0.0019848058466858938,-0.05077517603674584,0.599994421005249,2019-07-25 15:43:55:471,-67.74004897437676,120.69772562850076,0,-28.938217163085938,18.14261245727539,-37.93455505371094
0.08277691900730133,0.1786794662475586,9.821043014526367,-0.0047839387353934655,-0.0009453866868327393,-0.04518117287752078,0.609990119934082,2019-07-25 15:43:55:481,-69.97505923891596,121.86561018286254,0,-28.938217163085938,18.14261245727539,-37.93455505371094
0.09714541584253311,0.16670571267604828,9.801885604858398,-0.004251176740289341,-0.0038755792203513722,-0.045713934092401924,0.6199977397918701,2019-07-25 15:43:55:491,-72.1620235912819,123.01119953068581,0,-28.938217163085938,18.14261245727539,-37.93455505371094
0.14264565706253052,0.2169954478740692,9.789911270141602,-0.003452033357521668,-0.001744530069600413,-0.03985354824514169,0.6299943923950195,2019-07-25 15:43:55:501,-74.30110830902083,124.12751790088765,0,-28.938217163085938,18.14261245727539,-37.93455505371094
0.06122417002916336,0.1451529562473297,9.770753860473633,-0.006382226021077464,0.0019848058466858938,-0.04198459726585548,0.6399924755096436,2019-07-25 15:43:55:511,-76.40902010841992,125.23152815719648,0,-28.938217163085938,18.14261245727539,-37.93455505371094
0.11630341410636902,0.1595214605331421,9.780332565307617,-0.006115844893488239,-0.0012117678144219638,-0.03425954508591662,0.6499934196472168,2019-07-25 15:43:55:521,-78.46653315399371,126.31164323436055,0,-28.938217163085938,18.14261245727539,-37.93455505371094
0.027697674930095673,0.20023220777511597,9.919227600097656,-0.005050319862982691,-0.003609198092762148,-0.042517362641925835,0.6599934101104736,2019-07-25 15:43:55:531,-80.4919761763233,127.36511749423782,0,-28.938217163085938,18.14261245727539,-37.93455505371094
0.04446092247962952,0.2050217092037201,9.751595497131348,-0.0007882218215550968,0.00012013789667006295,-0.03772249922442789,0.6704299449920654,2019-07-25 15:43:55:542,-82.47698246246102,128.39418838023548,0,-29.08815574645996,18.292551040649414,-38.08449172973633
0.12348766624927521,0.1451529562473297,9.701305389404297,-0.005316700990571915,0.004115855127474016,-0.032394876672643395,0.6799991130828857,2019-07-25 15:43:55:551,-84.41506875068688,129.41201716688337,0,-29.08815574645996,18.292551040649414,-38.08449172973633
0.06840842217206955,0.20741645991802216,9.78512191772461,-0.003452033357521668,-0.0025436735824052492,-0.03186211545776225,0.6899893283843994,2019-07-25 15:43:55:561,-86.31732946421089,130.4014267591318,0,-29.08815574645996,18.292551040649414,-38.08449172973633
0.05164517089724541,0.18107420206069946,9.828227996826172,-0.006382226021077464,-0.004674722603119046,-0.02946468374901328,0.6999921798706055,2019-07-25 15:43:55:571,-88.18233579775591,131.37587302131215,0,-29.08815574645996,18.292551040649414,-38.08449172973633
0.09714541584253311,0.16670571267604828,9.813858985900879,-0.003718414485110892,-0.00041262439914499955,-0.03425954508591662,0.7099931240081787,2019-07-25 15:43:55:581,-90.00711455445428,132.33098011619418,0,-29.08815574645996,18.292551040649414,-38.08449172973633
0.04446092247962952,0.20262695848941803,9.74441146850586,-0.0058494637658990135,0.00118566246391822,-0.028665541926691556,0.7199923992156982,2019-07-25 15:43:55:591,-91.8024095188696,133.26381981056142,0,-29.08815574645996,18.292551040649414,-38.08449172973633
0.12348766624927521,0.1978374570608139,9.868938446044922,-0.004517557607804241,-0.001744530069600413,-0.02733363472829948,0.7299954891204834,2019-07-25 15:43:55:601,-93.55104365512334,134.17811230534647,0,-29.08815574645996,18.292551040649414,-38.08449172973633
0.11630341410636902,0.16670571267604828,9.854569435119629,0.0018755895843743117,-0.0025436735824052492,-0.03079659094740535,0.739990234375,2019-07-25 15:43:55:611,-95.26507182027096,135.074114336024,0,-29.08815574645996,18.292551040649414,-38.08449172973633
0.04446092247962952,0.15712670981884003,9.777937889099121,-0.001320984076733546,0.0027839492294535677,-0.031062971554845924,0.7499978542327881,2019-07-25 15:43:55:621,-96.95612424153975,135.95496162342278,0,-29.08815574645996,18.292551040649414,-38.08449172973633
0.07559266686439514,0.14994245767593384,9.837806701660156,-0.0010546029491443213,0.0033167117447063417,-0.03186211545776225,0.7599866390228271,2019-07-25 15:43:55:631,-98.61005707620856,136.8189898198312,0,-29.08815574645996,18.292551040649414,-38.08449172973633
0.09475066512823105,0.16191621124744415,9.900070190429688,-0.003452033357521668,-0.0038755792203513722,-0.03212849606520282,0.7699921131134033,2019-07-25 15:43:55:641,-100.22471172415985,137.6658095526138,0,-29.08815574645996,18.292551040649414,-38.08449172973633
0.09714541584253311,0.14754770696163177,9.809069633483887,-0.0023865085870904443,0.00012013789667006295,-0.03878802581537939,0.7799882888793945,2019-07-25 15:43:55:651,-101.80893656585721,138.49659734515464,0,-29.08815574645996,18.292551040649414,-38.08449172973633
0.08996116369962692,0.11641597002744675,9.758779525756836,0.0008100650740174133,0.0033167117447063417,-0.03612421141859524,0.7899980545043945,2019-07-25 15:43:55:661,-103.36405867577011,139.31254071525217,0,-29.08815574645996,18.292551040649414,-38.08449172973633
0.11869816482067108,0.14754770696163177,9.761174201965332,0.0024083519695899235,-0.0025436735824052492,-0.028665541926691556,0.7999918460845947,2019-07-25 15:43:55:671,-104.88141620450592,140.10761837167925,0,-29.238094329833984,16.94310188293457,-39.13406753540039
-0.15909279882907867,0.4540756642818451,9.940780639648438,0.02398522356439144,0.007046047530955486,-0.023337919374907066,0.8099896907806396,2019-07-25 15:43:55:681,-99.20608110428296,140.8396943840616,0,-29.238094329833984,16.94310188293457,-39.13406753540039
0.1043296679854393,-0.9276949167251587,9.452251434326172,-0.08070256113861977,-0.010801489057819861,-0.029997447044489024,0.8199942111968994,2019-07-25 15:43:55:691,-100.80324413573193,134.5803426542259,0,-29.238094329833984,16.94310188293457,-39.13406753540039
0.20730389654636383,-0.6403249502182007,10.319150924682617,0.023718842956950863,0.05233084078156962,-0.052107081154543315,0.829993724822998,2019-07-25 15:43:55:701,-102.39354404288997,128.34643376178425,0,-29.238094329833984,16.94310188293457,-39.13406753540039
0.2791464030742645,-0.24998073279857635,10.034175872802734,-0.01890213953791967,-0.029181787381625007,-0.053172607745494815,0.8399984836578369,2019-07-25 15:43:55:711,-103.89740917799631,122.2186658752278,0,-29.238094329833984,16.94310188293457,-39.13406753540039
0.2743569016456604,1.2108166217803955,10.043754577636719,0.01759207650225005,0.017434912547232544,-0.01641200901728992,0.8499889373779297,2019-07-25 15:43:55:721,-105.39794708629356,123.22694260184974,0,-29.238094329833984,16.94310188293457,-39.13406753540039
-0.48717349767684937,-0.07755875587463379,9.80667495727539,-0.02476252538517991,-0.01746101776769913,-0.04198459726585548,0.8599789142608643,2019-07-25 15:43:55:731,-99.73707337631294,117.185356533989,0,-29.238094329833984,16.94310188293457,-39.13406753540039
-0.22614578902721405,0.8851306438446045,9.804280281066895,0.007203212526270291,0.02489358411973083,-0.042517362641925835,0.8699913024902344,2019-07-25 15:43:55:741,-94.18275397161325,118.33442621172367,0,-29.238094329833984,16.94310188293457,-39.13406753540039
0.2551988959312439,0.33912768959999084,9.720463752746582,0.009067880419394863,-0.008404058909516841,-0.05503727407817343,0.8799896240234375,2019-07-25 15:43:55:751,-95.86430311243942,119.52268442727525,0,-29.238094329833984,16.94310188293457,-39.13406753540039
0.17377740144729614,-0.19250674545764923,9.531278610229492,-0.010910705710242932,0.008910715424080057,-0.05263984236942447,0.8899941444396973,2019-07-25 15:43:55:761,-97.53113227174414,113.56150118747217,0,-29.238094329833984,16.94310188293457,-39.13406753540039
0.29112014174461365,-0.07516400516033173,10.09404468536377,-0.017836615027562768,-0.00893682064454664,-0.051307937251626995,0.899986982345581,2019-07-25 15:43:55:771,-99.14245526469794,107.70881198109845,0,-29.238094329833984,16.94310188293457,-39.13406753540039
0.037276674062013626,0.2960222065448761,9.425909996032715,0.009867024322311187,0.016369388036875647,-0.04171821873900951,0.9099936485290527,2019-07-25 15:43:55:781,-100.76427194352058,109.11311588997486,0,-29.238094329833984,16.94310188293457,-39.13406753540039
0.28393590450286865,-0.1613750010728836,10.029386520385742,-0.015705566006848973,-0.008670440037106066,-0.04011993093317686,0.9199893474578857,2019-07-25 15:43:55:791,-102.31168749696438,103.35810487223246,0,-27.58876609802246,18.292551040649414,-37.484737396240234
-0.07048705965280533,0.08528421819210052,9.627068519592285,-0.007447750531434362,0.0049149985102416895,-0.04278374116877181,0.930001974105835,2019-07-25 15:43:55:801,-96.67660696262794,104.88497879214304,0,-27.58876609802246,18.292551040649414,-37.484737396240234
0.2096986472606659,0.1714952141046524,9.95514965057373,-0.010910705710242932,-0.007604915006600516,-0.03665697679466559,0.9399969577789307,2019-07-25 15:43:55:811,-98.31467243061435,106.37366400140913,0,-27.58876609802246,18.292551040649414,-37.484737396240234
0.07319791615009308,0.14994245767593384,9.70370101928711,-0.006648607148666687,0.0014520435915074442,-0.04358288507168813,0.9499988555908203,2019-07-25 15:43:55:821,-99.94055063749654,107.83221923241652,0,-27.58876609802246,18.292551040649414,-37.484737396240234
0.21688289940357208,0.11641597002744675,9.885701179504395,-0.012775373083218853,-0.0006790055592435148,-0.04518117287752078,0.9599926471710205,2019-07-25 15:43:55:831,-101.51622233287819,109.26924984423171,0,-27.58876609802246,18.292551040649414,-37.484737396240234
0.1043296679854393,0.25291669368743896,9.823437690734863,-0.0047839387353934655,-0.008137677781927616,-0.046779460683353424,0.9699914455413818,2019-07-25 15:43:55:841,-103.06915941903151,110.65705418539889,0,-27.58876609802246,18.292551040649414,-37.484737396240234
-0.017802570015192032,0.2433377057313919,9.842596054077148,-0.008246893914202035,-0.0012117678144219638,-0.04917688823091319,0.9799973964691162,2019-07-25 15:43:55:851,-97.409168066066,112.02022186858645,0,-27.58876609802246,18.292551040649414,-37.484737396240234
0.05403992161154747,0.23854820430278778,9.761174201965332,-0.0015873652043227706,-0.0006790055592435148,-0.04864412701603205,0.9900035858154297,2019-07-25 15:43:55:861,-99.05425924219831,113.35271043075534,0,-27.58876609802246,18.292551040649414,-37.484737396240234
0.020513426512479782,0.1786794662475586,9.818648338317871,-0.0023865085870904443,0.006246904148187811,-0.05690194041085206,0.9999809265136719,2019-07-25 15:43:55:871,-100.67427965836468,114.66614217124406,0,-27.58876609802246,18.292551040649414,-37.484737396240234
0.06601367145776749,0.1858637034893036,9.837806701660156,-0.0015873652043227706,-0.004674722603119046,-0.05184070262769734,1.0099925994873047,2019-07-25 15:43:55:881,-102.25047694101,115.95206469414762,0,-27.58876609802246,18.292551040649414,-37.484737396240234
0.04925042390823364,0.09007371962070465,9.76596450805664,-0.006115844893488239,0.003050330357042792,-0.052107081154543315,1.0199992656707764,2019-07-25 15:43:55:891,-103.80140241894067,117.22589098669312,0,-27.58876609802246,18.292551040649414,-37.484737396240234
0.09714541584253311,0.13796871900558472,9.823437690734863,-0.0029192708422688934,-0.0030764358375836983,-0.052373463842578495,1.0299980640411377,2019-07-25 15:43:55:901,-105.31231540567393,118.46691898094653,0,-27.58876609802246,18.292551040649414,-37.484737396240234
0.030092423781752586,0.1786794662475586,9.753990173339844,-0.005316700990571915,-0.0020109111971896377,-0.050242414821864693,1.0399868488311768,2019-07-25 15:43:55:911,-106.80140594135975,119.67957334928272,0,-27.58876609802246,18.292551040649414,-37.484737396240234
0.020513426512479782,0.15712670981884003,9.801885604858398,-0.005050319862982691,-0.005207484858297496,-0.05530365676620862,1.0499911308288574,2019-07-25 15:43:55:921,-108.2600544014569,120.87045110023965,0,-29.08815574645996,18.292551040649414,-38.38437271118164
-0.05851331353187561,0.1259949654340744,9.777937889099121,-0.0058494637658990135,-0.001744530069600413,-0.057434705786922405,1.059992790222168,2019-07-25 15:43:55:931,-102.50073092665744,122.0415620531884,0,-29.08815574645996,18.292551040649414,-38.38437271118164
0.02530292607843876,0.1331792175769806,9.849780082702637,-0.005316700990571915,0.00012013789667006295,-0.05663556188400609,1.0699985027313232,2019-07-25 15:43:55:941,-104.04784008808056,123.18822481757651,0,-29.08815574645996,18.292551040649414,-38.38437271118164
0.042066171765327454,0.13796871900558472,9.792305946350098,-0.0015873652043227706,0.0017184247190966692,-0.05477089139013826,1.079991102218628,2019-07-25 15:43:55:951,-105.56292482655579,124.30920665269016,0,-29.08815574645996,18.292551040649414,-38.38437271118164
0.09235591441392899,0.13078446686267853,9.773148536682129,-0.0031856519698581177,0.00118566246391822,-0.05423813017525712,1.0899925231933594,2019-07-25 15:43:55:961,-107.04150363226483,125.40947776325346,0,-29.08815574645996,18.292551040649414,-38.38437271118164
0.09235591441392899,0.11881071329116821,9.753990173339844,-0.00558308263830979,-0.002277292454816025,-0.05397175164841114,1.0999915599822998,2019-07-25 15:43:55:971,-108.48854517827155,126.49046540206137,0,-29.08815574645996,18.292551040649414,-38.38437271118164
0.07319791615009308,0.1259949654340744,9.811464309692383,-0.0010546029491443213,0.005447760765420138,-0.05343898627234079,1.1099953651428223,2019-07-25 15:43:55:981,-109.91328546422301,127.54653388899975,0,-29.08815574645996,18.292551040649414,-38.38437271118164
0.16419841349124908,0.080494724214077,9.804280281066895,-0.003718414485110892,0.0038494739998847904,-0.05263984236942447,1.1199910640716553,2019-07-25 15:43:55:991,-111.2979907286185,128.5882822572335,0,-29.08815574645996,18.292551040649414,-38.38437271118164
0.14504040777683258,0.12838971614837646,9.782727241516113,-0.0039847956127001165,-0.0006790055592435148,-0.04917688823091319,1.1299903392791748,2019-07-25 15:43:56:001,-112.65466138273754,129.60371563338532,0,-29.08815574645996,18.292551040649414,-38.38437271118164
0.2025144100189209,0.11162646859884262,9.773148536682129,-0.0015873652043227706,-0.001744530069600413,-0.04624669530728308,1.13999342918396,2019-07-25 15:43:56:011,-113.97684659573298,130.59944510614955,0,-29.08815574645996,18.292551040649414,-38.38437271118164
0.14264565706253052,0.15712670981884003,9.797096252441406,0.0010764462016066379,0.0019848058466858938,-0.04198459726585548,1.1499924659729004,2019-07-25 15:43:56:021,-115.28174067764202,131.56847511750195,0,-29.08815574645996,18.292551040649414,-38.38437271118164
0.18096165359020233,0.14036346971988678,9.833017349243164,-0.0002554595176127117,-0.0025436735824052492,-0.04411564628656928,1.1599931716918945,2019-07-25 15:43:56:031,-116.55359104960151,132.5208925637832,0,-29.08815574645996,18.292551040649414,-38.38437271118164
0.10672441124916077,0.11641597002744675,9.737227439880371,-0.0018537463319119952,0.0006529002087397708,-0.04225097995389066,1.1699731349945068,2019-07-25 15:43:56:041,-117.81032584703897,133.45781386207298,0,-28.488401412963867,17.39291763305664,-37.484737396240234
0.08277691900730133,0.13796871900558472,9.763568878173828,0.003740257607536046,-0.0033428169651729235,-0.04225097995389066,1.1799957752227783,2019-07-25 15:43:56:051,-119.0425230915611,134.37036085699498,0,-28.488401412963867,17.39291763305664,-37.484737396240234
0.10672441124916077,0.20023220777511597,9.751595497131348,0.0016092084567850867,-0.0012117678144219638,-0.03878802581537939,1.189990520477295,2019-07-25 15:43:56:061,-120.24845183508076,135.258524450457,0,-28.488401412963867,17.39291763305664,-37.484737396240234
0.0851716697216034,0.17388996481895447,9.797096252441406,-0.0010546029491443213,0.0033167117447063417,-0.042517362641925835,1.1999967098236084,2019-07-25 15:43:56:071,-121.43538444219469,136.13360961321573,0,-28.488401412963867,17.39291763305664,-37.484737396240234
0.04925042390823364,0.1714952141046524,9.751595497131348,-0.00212012745950122,0.0003865190486412555,-0.04225097995389066,1.21000337600708,2019-07-25 15:43:56:081,-122.60110653154047,136.991978239264,0,-28.488401412963867,17.39291763305664,-37.484737396240234
0.04685567319393158,0.19065320491790771,9.80667495727539,0.0002773027863296734,0.0019848058466858938,-0.03958716971829571,1.220008373260498,2019-07-25 15:43:56:091,-123.74472435300922,137.82970776132746,0,-28.488401412963867,17.39291763305664,-37.484737396240234
0.07080317288637161,0.1714952141046524,9.82583236694336,0.0018755895843743117,0.0017184247190966692,-0.03825526043930904,1.2300009727478027,2019-07-25 15:43:56:101,-124.86253692721121,138.6520630315096,0,-28.488401412963867,17.39291763305664,-37.484737396240234
0.0588294193148613,0.16191621124744415,9.852174758911133,-0.0015873652043227706,0.0003865190486412555,-0.04464841166263963,1.2400016784667969,2019-07-25 15:43:56:111,-125.95866081086373,139.46108220763136,0,-28.488401412963867,17.39291763305664,-37.484737396240234
0.06840842217206955,0.17388996481895447,9.777937889099121,-0.003452033357521668,0.002251186974275118,-0.03932078703026053,1.2500102519989014,2019-07-25 15:43:56:121,-127.03273579140662,140.25342382589022,0,-28.488401412963867,17.39291763305664,-37.484737396240234
0.07559266686439514,0.20262695848941803,9.773148536682129,-0.004517557607804241,-0.0009453866868327393,-0.043316502383652956,1.2599921226501465,2019-07-25 15:43:56:131,-128.0826880334624,141.02713245690768,0,-28.488401412963867,17.39291763305664,-37.484737396240234
0.08038216829299927,0.2050217092037201,9.797096252441406,-0.0018537463319119952,0.002251186974275118,-0.041451836050974335,1.2700040340423584,2019-07-25 15:43:56:141,-129.1128981420537,141.7836550961756,0,-28.488401412963867,17.39291763305664,-37.484737396240234
0.08996116369962692,0.19304795563220978,9.794700622558594,-0.0026528897146796686,-0.0006790055592435148,-0.03718973800954674,1.2800014019012451,2019-07-25 15:43:56:151,-130.11973444998685,142.52688877810078,0,-28.488401412963867,17.39291763305664,-37.484737396240234
0.04446092247962952,0.21460069715976715,9.775543212890625,-0.0029192708422688934,0.002251186974275118,-0.0438492677597233,1.2899999618530273,2019-07-25 15:43:56:161,-131.1133918238464,143.25283789944982,0,-28.488401412963867,17.39291763305664,-37.484737396240234
0.07559266686439514,0.16191621124744415,9.859359741210938,-0.0058494637658990135,0.002251186974275118,-0.04438202897460446,1.300001859664917,2019-07-25 15:43:56:171,-132.08360259192244,143.97224902170652,0,-28.63833999633789,17.242979049682617,-37.63467788696289
0.06840842217206955,0.18346895277500153,9.799490928649902,-0.003452033357521668,-0.002277292454816025,-0.044914790189485604,1.310002088546753,2019-07-25 15:43:56:181,-133.03265252069684,144.6732907349992,0,-28.63833999633789,17.242979049682617,-37.63467788696289
0.06601367145776749,0.17628471553325653,9.746806144714355,-0.008246893914202035,0.0027839492294535677,-0.04464841166263963,1.3200018405914307,2019-07-25 15:43:56:191,-133.9658016176719,145.36373218740297,0,-28.63833999633789,17.242979049682617,-37.63467788696289
0.08038216829299927,0.19544270634651184,9.82583236694336,-0.0058494637658990135,0.00118566246391822,-0.04091907483609319,1.3300018310546875,2019-07-25 15:43:56:201,-134.87777715215282,146.0369519458503,0,-28.63833999633789,17.242979049682617,-37.63467788696289
0.04446092247962952,0.15712670981884003,9.777937889099121,-0.0031856519698581177,-0.004408341475529821,-0.04438202897460446,1.3400030136108398,2019-07-25 15:43:56:211,-135.77253552150094,146.69958913587732,0,-28.63833999633789,17.242979049682617,-37.63467788696289
0.04925042390823364,0.16191621124744415,9.840201377868652,-0.003718414485110892,0.0006529002087397708,-0.04171821873900951,1.350367784500122,2019-07-25 15:43:56:222,-136.65172950144995,147.34890755923104,0,-28.63833999633789,17.242979049682617,-37.63467788696289
0.042066171765327454,0.14994245767593384,9.773148536682129,-0.0002554595176127117,-0.0001462432553011296,-0.04171821873900951,1.360013723373413,2019-07-25 15:43:56:231,-137.5136834153048,147.98448818200723,0,-28.63833999633789,17.242979049682617,-37.63467788696289
0.0779874175786972,0.19544270634651184,9.746806144714355,-0.0039847956127001165,0.0003865190486412555,-0.04038631362121203,1.3700058460235596,2019-07-25 15:43:56:241,-138.3544579522186,148.60405932210628,0,-28.63833999633789,17.242979049682617,-37.63467788696289
0.07080317288637161,0.16191621124744415,9.82583236694336,-0.003718414485110892,0.00012013789667006295,-0.03878802581537939,1.3800015449523926,2019-07-25 15:43:56:251,-139.1791791036171,149.21518371744878,0,-28.63833999633789,17.242979049682617,-37.63467788696289
0.06122417002916336,0.1858637034893036,9.792305946350098,-0.0010546029491443213,0.0003865190486412555,-0.03878802581537939,1.3900084495544434,2019-07-25 15:43:56:261,-139.9886482175698,149.80972507222486,0,-28.63833999633789,17.242979049682617,-37.63467788696289
0.06840842217206955,0.16191621124744415,9.75638484954834,-0.006115844893488239,-0.002277292454816025,-0.04065269214805801,1.40000319480896,2019-07-25 15:43:56:271,-140.779562593354,150.39794702369792,0,-28.63833999633789,17.242979049682617,-37.63467788696289
0.08038216829299927,0.16431096196174622,9.773148536682129,-0.0047839387353934655,-0.0014781489420111885,-0.04651307799531825,1.4099996089935303,2019-07-25 15:43:56:281,-141.5537169492401,150.97340941561322,0,-28.63833999633789,17.242979049682617,-37.63467788696289
0.06601367145776749,0.19065320491790771,9.775543212890625,-0.003718414485110892,0.0014520435915074442,-0.042517362641925835,1.4200003147125244,2019-07-25 15:43:56:291,-142.31571980497327,151.53368320843862,0,-30.58754539489746,17.093040466308594,-37.78461456298828
0.02530292607843876,0.15473195910453796,9.773148536682129,-0.003718414485110892,-0.00547386598588672,-0.046779460683353424,1.430001974105835,2019-07-25 15:43:56:301,-143.06336453304127,152.08695674840843,0,-30.58754539489746,17.093040466308594,-37.78461456298828
0.010934427380561829,0.1259949654340744,9.770753860473633,0.000543683913918898,-0.0033428169651729235,-0.04171821873900951,1.4400055408477783,2019-07-25 15:43:56:311,-143.7989371948572,152.63013633585084,0,-30.58754539489746,17.093040466308594,-37.78461456298828
-0.005828820634633303,0.14036346971988678,9.763568878173828,-0.0029192708422688934,0.004648617382652464,-0.04464841166263963,1.449995517730713,2019-07-25 15:43:56:321,-137.32625013507516,153.16269830295045,0,-30.58754539489746,17.093040466308594,-37.78461456298828
-0.0393553152680397,0.1451529562473297,9.840201377868652,-0.009312417904410284,-0.002277292454816025,-0.04305012385680698,1.460005283355713,2019-07-25 15:43:56:331,-130.98302818560495,153.68777616124703,0,-30.58754539489746,17.093040466308594,-37.78461456298828
-0.0010393214179202914,0.14275822043418884,9.828227996826172,-0.0029192708422688934,0.0017184247190966692,-0.0470458392101994,1.4700069427490234,2019-07-25 15:43:56:341,-124.7644538541247,154.199016449009,0,-30.58754539489746,17.093040466308594,-37.78461456298828
0.006144927814602852,0.1523372083902359,9.809069633483887,-0.0039847956127001165,0.0003865190486412555,-0.0438492677597233,1.4800043106079102,2019-07-25 15:43:56:351,-125.86866388688684,154.6994780744984,0,-30.58754539489746,17.093040466308594,-37.78461456298828
-0.020197318866848946,0.1331792175769806,9.770753860473633,-0.0005218406614565815,0.0003865190486412555,-0.04091907483609319,1.490001916885376,2019-07-25 15:43:56:361,-119.75387632856173,155.19016314273296,0,-30.58754539489746,17.093040466308594,-37.78461456298828
0.030092423781752586,0.13078446686267853,9.84738540649414,-0.0031856519698581177,0.0017184247190966692,-0.03985354824514169,1.5000052452087402,2019-07-25 15:43:56:371,-120.95626224715019,155.6729310481673,0,-30.58754539489746,17.093040466308594,-37.78461456298828
-0.024986818432807922,0.17628471553325653,9.837806701660156,-0.003452033357521668,-0.0006790055592435148,-0.04544755140436675,1.5100009441375732,2019-07-25 15:43:56:381,-114.93966638382295,156.14087831828203,0,-30.58754539489746,17.093040466308594,-37.78461456298828
0.00853967759758234,0.18346895277500153,9.787516593933105,-0.00558308263830979,0.0019848058466858938,-0.04624669530728308,1.5200037956237793,2019-07-25 15:43:56:391,-116.24098802049642,156.5997186380099,0,-30.58754539489746,17.093040466308594,-37.78461456298828
0.05164517089724541,0.1068369671702385,9.900070190429688,-0.0010546029491443213,-0.0001462432553011296,-0.04171821873900951,1.5300028324127197,2019-07-25 15:43:56:401,-117.51010836977078,157.05595065661578,0,-30.58754539489746,17.093040466308594,-37.78461456298828
0.01811867579817772,0.1523372083902359,9.823437690734863,-0.0005218406614565815,0.0014520435915074442,-0.03825526043930904,1.5400044918060303,2019-07-25 15:43:56:411,-118.75860809566946,157.49735581421757,0,-30.58754539489746,17.093040466308594,-37.78461456298828
0.06840842217206955,0.13078446686267853,9.753990173339844,-0.006115844893488239,0.0017184247190966692,-0.03639059410663042,1.5500009059906006,2019-07-25 15:43:56:421,-119.97636387323493,157.93547764105253,0,-29.537973403930664,15.743589401245117,-38.83418655395508
0.10193491727113724,0.17628471553325653,9.799490928649902,-0.0026528897146796686,0.0033167117447063417,-0.03665697679466559,1.560002088546753,2019-07-25 15:43:56:431,-121.16677968941795,158.35764601034617,0,-29.537973403930664,15.743589401245117,-38.83418655395508
0.0588294193148613,0.13557396829128265,9.792305946350098,-0.0026528897146796686,0.004115855127474016,-0.035058688988832944,1.5700011253356934,2019-07-25 15:43:56:441,-122.33887066441056,158.7761184122444,0,-29.537973403930664,15.743589401245117,-38.83418655395508
0.14025090634822845,0.18346895277500153,9.792305946350098,0.0008100650740174133,-0.0038755792203513722,-0.041185453362939155,1.579967975616455,2019-07-25 15:43:56:451,-123.47351300783046,159.17867530249995,0,-29.537973403930664,15.743589401245117,-38.83418655395508
0.1498299092054367,0.1331792175769806,9.763568878173828,-0.0029192708422688934,0.0027839492294535677,-0.03665697679466559,1.5900068283081055,2019-07-25 15:43:56:461,-124.58802837777804,159.5811175266545,0,-29.537973403930664,15.743589401245117,-38.83418655395508
0.1306719183921814,0.1451529562473297,9.82583236694336,-0.003718414485110892,0.0038494739998847904,-0.03958716971829571,1.6000020503997803,2019-07-25 15:43:56:471,-125.68318983175604,159.97465515755934,0,-29.537973403930664,15.743589401245117,-38.83418655395508
0.15940891206264496,0.16670571267604828,9.782727241516113,-0.0031856519698581177,0.0027839492294535677,-0.03905440434222536,1.6100032329559326,2019-07-25 15:43:56:481,-126.75241843515714,160.35742555153996,0,-29.537973403930664,15.743589401245117,-38.83418655395508
0.1833564043045044,0.1714952141046524,9.782727241516113,-0.0031856519698581177,0.00012013789667006295,-0.04091907483609319,1.6199994087219238,2019-07-25 15:43:56:491,-127.79596226319438,160.73197878364584,0,-29.537973403930664,15.743589401245117,-38.83418655395508
0.17856690287590027,0.1595214605331421,9.854569435119629,-0.0007882218215550968,0.0038494739998847904,-0.04438202897460446,1.6300041675567627,2019-07-25 15:43:56:501,-128.82144355785968,161.09923404358716,0,-29.537973403930664,15.743589401245117,-38.83418655395508
0.1833564043045044,0.1714952141046524,9.775543212890625,-0.001320984076733546,0.002517568101864343,-0.03718973800954674,1.640000581741333,2019-07-25 15:43:56:511,-129.82493677773192,161.4578897570855,0,-29.537973403930664,15.743589401245117,-38.83418655395508
0.12348766624927521,0.21460069715976715,9.739622116088867,-0.0007882218215550968,0.003583092872295566,-0.03985354824514169,1.6500020027160645,2019-07-25 15:43:56:521,-130.81592206247853,161.80392984238478,0,-29.537973403930664,15.743589401245117,-38.83418655395508
0.14504040777683258,0.13557396829128265,9.856964111328125,-0.003452033357521668,-0.0001462432553011296,-0.03852164312734421,1.660001516342163,2019-07-25 15:43:56:531,-131.78266113894858,162.15402938476743,0,-29.537973403930664,15.743589401245117,-38.83418655395508
0.12348766624927521,0.14754770696163177,9.794700622558594,0.0002773027863296734,0.0006529002087397708,-0.03932078703026053,1.6699960231781006,2019-07-25 15:43:56:541,-132.732927837524,162.49353237117106,0,-28.33846092224121,16.343345642089844,-37.63467788696289
0.1043296679854393,0.14994245767593384,9.818648338317871,-0.003452033357521668,0.00118566246391822,-0.04038631362121203,1.6800026893615723,2019-07-25 15:43:56:551,-133.6667598154702,162.82810319179097,0,-28.33846092224121,16.343345642089844,-37.63467788696289
0.16419841349124908,0.17628471553325653,9.797096252441406,-0.004251176740289341,0.0067796664033662616,-0.04411564628656928,1.6900062561035156,2019-07-25 15:43:56:561,-134.57802911060892,163.1533121242909,0,-28.33846092224121,16.343345642089844,-37.63467788696289
0.09954016655683517,0.16431096196174622,9.773148536682129,-0.0031856519698581177,-0.00041262439914499955,-0.04438202897460446,1.7000038623809814,2019-07-25 15:43:56:571,-135.47456607301743,163.47277031338865,0,-28.33846092224121,16.343345642089844,-37.63467788696289
0.12588241696357727,0.14994245767593384,9.818648338317871,-0.006648607148666687,0.00012013789667006295,-0.045713934092401924,1.7099852561950684,2019-07-25 15:43:56:581,-136.35045139306663,163.78954300885246,0,-28.33846092224121,16.343345642089844,-37.63467788696289
0.13306665420532227,0.11162646859884262,9.818648338317871,-0.0031856519698581177,0.0067796664033662616,-0.04651307799531825,1.720003366470337,2019-07-25 15:43:56:591,-137.21172702987076,164.10251697784693,0,-28.33846092224121,16.343345642089844,-37.63467788696289
0.2025144100189209,0.19544270634651184,9.75638484954834,0.0018755895843743117,-0.0012117678144219638,-0.04544755140436675,1.7300009727478027,2019-07-25 15:43:56:601,-138.04302975880307,164.39646150867833,0,-28.33846092224121,16.343345642089844,-37.63467788696289
0.20490914583206177,0.11402121931314468,9.758779525756836,0.000543683913918898,0.004115855127474016,-0.048910509704067226,1.740004301071167,2019-07-25 15:43:56:611,-138.8604232496055,164.69483867292385,0,-28.33846092224121,16.343345642089844,-37.63467788696289
0.11390866339206696,0.14994245767593384,9.80667495727539,-0.0015873652043227706,0.004115855127474016,-0.05184070262769734,1.7500035762786865,2019-07-25 15:43:56:621,-139.67221597010126,164.98431364128092,0,-28.33846092224121,16.343345642089844,-37.63467788696289
0.06122417002916336,0.0996527224779129,9.732437133789062,-0.006648607148666687,-0.0006790055592435148,-0.0481113658011509,1.760005235671997,2019-07-25 15:43:56:631,-140.4711817720296,165.27662828144778,0,-28.33846092224121,16.343345642089844,-37.63467788696289
0.09475066512823105,0.11641597002744675,9.811464309692383,-0.0018537463319119952,0.00012013789667006295,-0.047844983113115726,1.7700018882751465,2019-07-25 15:43:56:641,-141.2507596502417,165.55854024890277,0,-28.33846092224121,16.343345642089844,-37.63467788696289
0.09235591441392899,0.13078446686267853,9.859359741210938,-0.006914988276255913,-0.00041262439914499955,-0.04864412701603205,1.7799980640411377,2019-07-25 15:43:56:651,-142.01477899783052,165.83605102978126,0,-28.33846092224121,16.343345642089844,-37.63467788696289
0.04685567319393158,0.1714952141046524,9.828227996826172,-0.005050319862982691,0.0006529002087397708,-0.05050879334871067,1.790004014968872,2019-07-25 15:43:56:661,-142.76938717450636,166.10217410505277,0,-28.33846092224121,16.343345642089844,-37.63467788696289
0.09235591441392899,0.1331792175769806,9.746806144714355,-0.010644324062505057,0.004648617382652464,-0.053172607745494815,1.8000051975250244,2019-07-25 15:43:56:671,-143.5057521275878,166.370451421132,0,-28.63833999633789,16.94310188293457,-37.93455505371094
0.08038216829299927,0.18107420206069946,9.768359184265137,-0.00558308263830979,0.004115855127474016,-0.049443270918948366,1.810002088546753,2019-07-25 15:43:56:681,-144.22851808169167,166.62493712616947,0,-28.63833999633789,16.94310188293457,-37.93455505371094
0.10193491727113724,0.16431096196174622,9.78512191772461,-0.001320984076733546,-0.0038755792203513722,-0.05397175164841114,1.819997787475586,2019-07-25 15:43:56:691,-144.92983556593617,166.87393948334838,0,-28.63833999633789,16.94310188293457,-37.93455505371094
0.08277691900730133,0.14275822043418884,9.837806701660156,-0.004517557607804241,0.0006529002087397708,-0.05263984236942447,1.8300065994262695,2019-07-25 15:43:56:701,-145.6219640860695,167.12237210675437,0,-28.63833999633789,16.94310188293457,-37.93455505371094
0.0779874175786972,0.11641597002744675,9.737227439880371,-0.004517557607804241,-0.0030764358375836983,-0.05477089139013826,1.84000563621521,2019-07-25 15:43:56:711,-146.29861988345826,167.3687613818348,0,-28.63833999633789,16.94310188293457,-37.93455505371094
0.030092423781752586,0.10204746574163437,9.828227996826172,-0.008246893914202035,0.005980523020598588,-0.049443270918948366,1.8499999046325684,2019-07-25 15:43:56:721,-146.97249502181353,167.61411639218915,0,-28.63833999633789,16.94310188293457,-37.93455505371094
0.00853967759758234,0.03978397697210312,9.935991287231445,-0.007447750531434362,-0.0006790055592435148,-0.05370536896037596,1.8599987030029297,2019-07-25 15:43:56:731,-147.6316790276821,167.86142721122883,0,-28.63833999633789,16.94310188293457,-37.93455505371094
-0.02259206771850586,0.0996527224779129,9.763568878173828,0.0029411142247683726,-0.0014781489420111885,-0.04518117287752078,1.8700048923492432,2019-07-25 15:43:56:741,-141.08086650125773,168.0908507313306,0,-28.63833999633789,16.94310188293457,-37.93455505371094
0.2815411388874054,0.18107420206069946,9.873727798461914,-0.00212012745950122,0.007046047530955486,-0.04544755140436675,1.880002498626709,2019-07-25 15:43:56:751,-141.83053859117388,168.30921130052775,0,-28.63833999633789,16.94310188293457,-37.93455505371094
-0.26446178555488586,0.4205491840839386,9.837806701660156,0.01066616718493021,-0.005740247113475944,-0.047844983113115726,1.8900012969970703,2019-07-25 15:43:56:761,-135.42150236878717,168.48808265711932,0,-28.63833999633789,16.94310188293457,-37.93455505371094
-0.02259206771850586,-0.10150625556707382,9.981491088867188,-0.023963381482263586,-0.006539390496243618,-0.05530365676620862,1.900003433227539,2019-07-25 15:43:56:771,-129.11199333456895,161.5434322118799,0,-28.63833999633789,16.94310188293457,-37.93455505371094
0.006144927814602852,0.06612621992826462,9.72764778137207,-0.0018537463319119952,0.002251186974275118,-0.05876661090471988,1.910003900527954,2019-07-25 15:43:56:781,-130.13029369380138,161.90581495256205,0,-28.63833999633789,16.94310188293457,-37.93455505371094
0.02530292607843876,0.5043654441833496,9.844990730285645,0.0024083519695899235,0.00438223625506324,-0.06169680382835,1.9200031757354736,2019-07-25 15:43:56:791,-131.1272031133902,162.20769172371504,0,-28.788278579711914,16.19340705871582,-38.38437271118164
-0.024986818432807922,0.3989964425563812,9.667778968811035,0.0010764462016066379,-0.009735964547462964,-0.05450451286329229,1.9300010204315186,2019-07-25 15:43:56:801,-124.90215516336264,162.5156676295377,0,-28.788278579711914,16.19340705871582,-38.38437271118164
-0.027381567284464836,0.14036346971988678,9.732437133789062,-0.0047839387353934655,0.0033167117447063417,-0.0627623262581123,1.940002202987671,2019-07-25 15:43:56:811,-118.80919855856914,162.85151525450064,0,-28.788278579711914,16.19340705871582,-38.38437271118164
-0.003434071084484458,0.19544270634651184,9.900070190429688,-0.00212012745950122,0.00784519091372316,-0.05423813017525712,1.950005054473877,2019-07-25 15:43:56:821,-112.83781839514812,163.17305652858946,0,-28.788278579711914,16.19340705871582,-38.38437271118164
0.037276674062013626,0.14994245767593384,9.873727798461914,-0.0005218406614565815,-0.009735964547462964,-0.05530365676620862,1.959998607635498,2019-07-25 15:43:56:831,-114.17127262093452,163.49248768213735,0,-28.788278579711914,16.19340705871582,-38.38437271118164
-0.008223570883274078,0.09725797176361084,9.804280281066895,-0.007447750531434362,-0.0009453866868327393,-0.05503727407817343,1.9700050354003906,2019-07-25 15:43:56:841,-108.28827715742176,163.8154554656161,0,-28.788278579711914,16.19340705871582,-38.38437271118164
0.03488192334771156,0.05654722452163696,9.696516036987305,-0.006382226021077464,0.005181379637830914,-0.04917688823091319,1.980003833770752,2019-07-25 15:43:56:851,-109.72129834155626,164.13604697058025,0,-28.788278579711914,16.19340705871582,-38.38437271118164
0.10672441124916077,0.2169954478740692,9.909648895263672,-0.006382226021077464,0.0049149985102416895,-0.0481113658011509,1.9900004863739014,2019-07-25 15:43:56:861,-111.11729047204065,164.43181989152424,0,-28.788278579711914,16.19340705871582,-38.38437271118164
0.06601367145776749,-0.15658549964427948,9.789911270141602,-0.010910705710242932,-0.013998062588890556,-0.04225097995389066,2.000004291534424,2019-07-25 15:43:56:871,-112.47935495188379,157.5676390448651,0,-28.788278579711914,16.19340705871582,-38.38437271118164
-0.024986818432807922,0.14036346971988678,9.696516036987305,-0.011443467965421379,0.0038494739998847904,-0.03479230838139237,2.0100009441375732,2019-07-25 15:43:56:881,-106.63488149127053,158.00612287876166,0,-28.788278579711914,16.19340705871582,-38.38437271118164
0.07559266686439514,0.2050217092037201,9.859359741210938,-0.0023865085870904443,0.005447760765420138,-0.04624669530728308,2.0200090408325195,2019-07-25 15:43:56:891,-108.09645957464761,158.42351607388161,0,-28.788278579711914,16.19340705871582,-38.38437271118164
0.11390866339206696,0.25291669368743896,9.74441146850586,0.000543683913918898,0.0057141418930093625,-0.03958716971829571,2.0300045013427734,2019-07-25 15:43:56:901,-109.52434267878685,158.82500499204568,0,-28.788278579711914,16.19340705871582,-38.38437271118164
0.14264565706253052,0.24573245644569397,9.921623229980469,0.0016092084567850867,-0.007604915006600516,-0.035058688988832944,2.04000186920166,2019-07-25 15:43:56:911,-110.91311281991095,159.21922605396705,0,-28.788278579711914,16.19340705871582,-38.38437271118164
-0.05851331353187561,0.19304795563220978,9.706095695495605,-0.004517557607804241,0.009443477679258508,-0.03745612069758192,2.049999952316284,2019-07-25 15:43:56:921,-105.10706012905239,159.61458913497478,0,-28.938217163085938,17.842735290527344,-39.43394470214844
0.001355428365059197,0.06852097064256668,9.94556999206543,-0.010910705710242932,0.012640051210329201,-0.03852164312734421,2.0599987506866455,2019-07-25 15:43:56:931,-106.6118592744988,160.02052819065423,0,-28.938217163085938,17.842735290527344,-39.43394470214844
0.2935148775577545,0.44210192561149597,9.437883377075195,0.012797216205644007,-0.0020109111971896377,-0.03372678387103547,2.069998025894165,2019-07-25 15:43:56:941,-108.04286695496558,160.35929323175316,0,-28.938217163085938,17.842735290527344,-39.43394470214844
0.04925042390823364,0.6863663792610168,9.548042297363281,0.02798094099837846,0.01796767376211369,-0.024137061197228787,2.0800039768218994,2019-07-25 15:43:56:951,-109.48619366919326,160.65415342500833,0,-28.938217163085938,17.842735290527344,-39.43394470214844
0.14264565706253052,-0.11108525097370148,9.88809585571289,-0.022098713068990364,0.004648617382652464,-0.028132778631215806,2.0900027751922607,2019-07-25 15:43:56:961,-110.88254984439175,153.86635021305867,0,-28.938217163085938,17.842735290527344,-39.43394470214844
0.11151391267776489,0.14994245767593384,9.95514965057373,0.0010764462016066379,-0.0025436735824052492,-0.03079659094740535,2.1000049114227295,2019-07-25 15:43:56:971,-112.25063468640496,154.3711604119054,0,-28.938217163085938,17.842735290527344,-39.43394470214844
0.10193491727113724,0.1858637034893036,9.662989616394043,-0.0002554595176127117,-0.016395493257342228,-0.02493620510014511,2.1100003719329834,2019-07-25 15:43:56:981,-113.58433230468688,154.8618420726422,0,-28.938217163085938,17.842735290527344,-39.43394470214844
-0.0297763179987669,0.13796871900558472,9.701305389404297,-0.00957879955214816,0.015303863526518748,-0.02680087351341833,2.120004653930664,2019-07-25 15:43:56:991,-107.72475959635103,155.3536902876649,0,-28.938217163085938,17.842735290527344,-39.43394470214844
0.1761721521615982,0.17388996481895447,10.019807815551758,-0.01250899247577828,-0.0020109111971896377,-0.03079659094740535,2.130002498626709,2019-07-25 15:43:57:001,-109.14898966675928,155.8337538159973,0,-28.938217163085938,17.842735290527344,-39.43394470214844
0.15461941063404083,0.10923171788454056,9.758779525756836,0.0024083519695899235,-0.011067869665260436,-0.027600017416334655,2.140007257461548,2019-07-25 15:43:57:011,-110.54163780111075,156.30289991275052,0,-28.938217163085938,17.842735290527344,-39.43394470214844
0.08277691900730133,0.06133672222495079,9.763568878173828,-0.006382226021077464,-0.003609198092762148,-0.021206868273598665,2.149998188018799,2019-07-25 15:43:57:021,-111.91906532142943,156.7732234958666,0,-28.938217163085938,17.842735290527344,-39.43394470214844
0.10193491727113724,0.20023220777511597,9.787516593933105,-0.0010546029491443213,0.016103006389137774,-0.0291983031415727,2.15999436378479,2019-07-25 15:43:57:031,-113.27778833610142,157.21491118060794,0,-28.938217163085938,17.842735290527344,-39.43394470214844
0.1833564043045044,0.1068369671702385,9.969517707824707,-0.0029192708422688934,-0.0038755792203513722,-0.03319402057555972,2.17000150680542,2019-07-25 15:43:57:041,-114.58898191961065,157.65997371748307,0,-28.938217163085938,16.64322280883789,-39.13406753540039
0.06840842217206955,0.38462793827056885,9.651016235351562,0.0029411142247683726,-0.00893682064454664,-0.03372678387103547,2.180002450942993,2019-07-25 15:43:57:051,-115.88406144140434,158.05947792632895,0,-28.938217163085938,16.64322280883789,-39.13406753540039
-0.1902245432138443,0.19544270634651184,9.682147979736328,-0.004517557607804241,0.016103006389137774,-0.041451836050974335,2.190001964569092,2019-07-25 15:43:57:061,-109.9979324233116,158.47769666984442,0,-28.938217163085938,16.64322280883789,-39.13406753540039
0.1953301578760147,0.23854820430278778,9.907254219055176,-0.003718414485110892,-0.0006790055592435148,-0.04411564628656928,2.200000524520874,2019-07-25 15:43:57:071,-111.37500277043925,158.8826441404709,0,-28.938217163085938,16.64322280883789,-39.13406753540039
-0.09682931005954742,0.03978397697210312,9.87612247467041,-0.007181369403845137,-0.012932538078533657,-0.046779460683353424,2.210002899169922,2019-07-25 15:43:57:081,-105.55147402612467,159.30440847837698,0,-28.938217163085938,16.64322280883789,-39.13406753540039
0.00853967759758234,0.17628471553325653,9.833017349243164,-0.0058494637658990135,-0.0033428169651729235,-0.050242414821864693,2.2200067043304443,2019-07-25 15:43:57:091,-107.03757165148608,159.70106443912678,0,-28.938217163085938,16.64322280883789,-39.13406753540039
-0.024986818432807922,-0.04882176220417023,9.799490928649902,-0.01384089759357575,0.01237367060288863,-0.04970965360698355,2.230003833770752,2019-07-25 15:43:57:101,-101.30668788143608,152.92052155051627,0,-28.938217163085938,16.64322280883789,-39.13406753540039
0.12109291553497314,0.06373147666454315,10.060518264770508,-0.004251176740289341,0.002251186974275118,-0.04518117287752078,2.240001916885376,2019-07-25 15:43:57:111,-102.86802583133012,153.45723863089023,0,-28.938217163085938,16.64322280883789,-39.13406753540039
0.08038216829299927,0.2050217092037201,9.682147979736328,0.0024083519695899235,-0.019059303492937173,-0.04917688823091319,2.2500035762786865,2019-07-25 15:43:57:121,-104.3904484777304,153.96247994723348,0,-28.938217163085938,16.64322280883789,-39.13406753540039
-0.03217106685042381,0.1523372083902359,9.610305786132812,-0.007447750531434362,0.013439195113245527,-0.04358288507168813,2.260007858276367,2019-07-25 15:43:57:131,-98.71402483504245,154.4692511469702,0,-28.938217163085938,16.64322280883789,-39.13406753540039
0.09714541584253311,0.09725797176361084,9.914438247680664,-0.008779655649231834,0.011840908347710179,-0.04438202897460446,2.2700042724609375,2019-07-25 15:43:57:141,-100.3351628531235,154.9735533579324,0,-28.938217163085938,16.64322280883789,-39.13406753540039
0.19054065644741058,0.18346895277500153,9.919227600097656,-0.004251176740289341,-0.012133395215914635,-0.046779460683353424,2.2800028324127197,2019-07-25 15:43:57:151,-101.8996382508146,155.45527620155457,0,-28.938217163085938,16.64322280883789,-39.13406753540039
0.05643467232584953,0.31996968388557434,9.792305946350098,0.0034738764799468217,-0.008404058909516841,-0.050242414821864693,2.2900049686431885,2019-07-25 15:43:57:161,-103.45032158289102,155.90678949724958,0,-28.938217163085938,16.64322280883789,-39.13406753540039
0.10193491727113724,0.32475918531417847,9.624673843383789,-0.006382226021077464,0.014238339016161849,-0.050242414821864693,2.299992799758911,2019-07-25 15:43:57:171,-104.97716429256137,156.35358172849553,0,-28.488401412963867,17.992673873901367,-38.68424987792969
0.2743569016456604,0.2505219578742981,9.952754974365234,-0.005316700990571915,-0.006273009368654393,-0.05716832309888723,2.3100080490112305,2019-07-25 15:43:57:181,-106.4425131229726,156.80066208091944,0,-28.488401412963867,17.992673873901367,-38.68424987792969
0.13546140491962433,0.03499447554349899,9.773148536682129,0.0018755895843743117,-0.013198919726271534,-0.052107081154543315,2.320004940032959,2019-07-25 15:43:57:191,-107.89037196344827,157.2594928911406,0,-28.488401412963867,17.992673873901367,-38.68424987792969
0.06840842217206955,-0.00332151772454381,9.775543212890625,-0.009312417904410284,0.004648617382652464,-0.047844983113115726,2.330005645751953,2019-07-25 15:43:57:201,-109.3271560115198,150.51992166958104,0,-28.488401412963867,17.992673873901367,-38.68424987792969
0.16659316420555115,0.058941975235939026,9.813858985900879,0.0013428273291958624,0.005447760765420138,-0.03905440434222536,2.34000301361084,2019-07-25 15:43:57:211,-110.72422060784518,151.10188715987016,0,-28.488401412963867,17.992673873901367,-38.68424987792969
0.11390866339206696,0.1451529562473297,9.969517707824707,-0.0029192708422688934,-0.012932538078533657,-0.03985354824514169,2.350090265274048,2019-07-25 15:43:57:222,-112.0893189227358,151.6648199033559,0,-28.488401412963867,17.992673873901367,-38.68424987792969
-0.003434071084484458,0.13796871900558472,9.75638484954834,-0.0018537463319119952,-0.0009453866868327393,-0.03825526043930904,2.359992265701294,2019-07-25 15:43:57:231,-106.24741025464138,152.2163504361789,0,-28.488401412963867,17.992673873901367,-38.68424987792969
0.02530292607843876,0.23375870287418365,9.746806144714355,-0.0029192708422688934,0.013172813465507652,-0.03932078703026053,2.370008707046509,2019-07-25 15:43:57:241,-107.7268959115126,152.7461879393128,0,-28.488401412963867,17.992673873901367,-38.68424987792969
0.09475066512823105,0.18107420206069946,9.866543769836426,-0.008779655649231834,-0.0041419603479405966,-0.04011993093317686,2.3800060749053955,2019-07-25 15:43:57:251,-109.15902875042153,153.2751647714953,0,-28.488401412963867,17.992673873901367,-38.68424987792969
0.06122417002916336,0.20981121063232422,9.758779525756836,1.0921627247073539e-05,-0.002810054709994474,-0.03639059410663042,2.390005111694336,2019-07-25 15:43:57:261,-110.56708138871421,153.78502225330948,0,-28.488401412963867,17.992673873901367,-38.68424987792969
0.0851716697216034,0.19544270634651184,9.725253105163574,-0.00212012745950122,0.003583092872295566,-0.03932078703026053,2.4000089168548584,2019-07-25 15:43:57:271,-111.94771700318044,154.28748701597402,0,-28.488401412963867,17.992673873901367,-38.68424987792969
0.06361892074346542,0.1523372083902359,9.794700622558594,0.003207495352357597,0.00731242865854471,-0.03932078703026053,2.4100027084350586,2019-07-25 15:43:57:281,-113.30542314185062,154.7821163743346,0,-28.488401412963867,17.992673873901367,-38.68424987792969
0.10672441124916077,0.08528421819210052,9.91683292388916,-0.0005218406614565815,-0.0030764358375836983,-0.03372678387103547,2.4200081825256348,2019-07-25 15:43:57:291,-114.62525451430425,155.27691265190165,0,-29.238094329833984,17.842735290527344,-38.83418655395508
0.06361892074346542,0.1595214605331421,9.758779525756836,0.0024083519695899235,-0.0025436735824052492,-0.03452592569335719,2.4300167560577393,2019-07-25 15:43:57:301,-115.92384964358477,155.75129096244012,0,-29.238094329833984,17.842735290527344,-38.83418655395508
0.06840842217206955,0.12360021471977234,9.773148536682129,-0.004251176740289341,0.007046047530955486,-0.02546896839562086,2.4399631023406982,2019-07-25 15:43:57:311,-117.20128691557306,156.22414783714802,0,-29.238094329833984,17.842735290527344,-38.83418655395508
0.0851716697216034,0.0733104720711708,9.809069633483887,-0.0039847956127001165,0.0027839492294535677,-0.02546896839562086,2.4499764442443848,2019-07-25 15:43:57:321,-118.44887676781973,156.69334120297788,0,-29.238094329833984,17.842735290527344,-38.83418655395508
0.10911916196346283,0.13078446686267853,9.849780082702637,0.005871306888324168,-0.0014781489420111885,-0.03079659094740535,2.459958553314209,2019-07-25 15:43:57:331,-119.66637642143846,157.1409690793429,0,-29.238094329833984,17.842735290527344,-38.83418655395508
0.09475066512823105,0.27446943521499634,9.679753303527832,1.0921627247073539e-05,0.0006529002087397708,-0.02893192253413213,2.469966411590576,2019-07-25 15:43:57:341,-120.86219929980506,157.56565982415282,0,-29.238094329833984,17.842735290527344,-38.83418655395508
0.00853967759758234,0.14036346971988678,9.76596450805664,-0.003452033357521668,0.008111572041312385,-0.03212849606520282,2.4799492359161377,2019-07-25 15:43:57:351,-122.04850010189921,157.9998128209821,0,-29.238094329833984,17.842735290527344,-38.83418655395508
0.0851716697216034,0.21939019858837128,9.878517150878906,-0.006914988276255913,-0.0025436735824052492,-0.030530208259370174,2.4899685382843018,2019-07-25 15:43:57:361,-123.19621933929349,158.41826156678644,0,-29.238094329833984,17.842735290527344,-38.83418655395508
0.0588294193148613,0.22896920144557953,9.76596450805664,0.0034738764799468217,-0.005207484858297496,-0.023604299982347636,2.4999730587005615,2019-07-25 15:43:57:371,-124.32246681116405,158.82108308379486,0,-29.238094329833984,17.842735290527344,-38.83418655395508
-0.0010393214179202914,0.19065320491790771,9.789911270141602,-0.005316700990571915,0.0049149985102416895,-0.026534492905977754,2.509963035583496,2019-07-25 15:43:57:381,-118.23889612703036,159.2253304870312,0,-29.238094329833984,17.842735290527344,-38.83418655395508
0.02530292607843876,0.19544270634651184,9.852174758911133,-0.0058494637658990135,0.006513285275777036,-0.02786639802377523,2.5199313163757324,2019-07-25 15:43:57:391,-119.47482080461188,159.6213687837978,0,-29.238094329833984,17.842735290527344,-38.83418655395508
0.08996116369962692,0.15473195910453796,9.794700622558594,-0.0005218406614565815,-0.006273009368654393,-0.031329352162286495,2.5299699306488037,2019-07-25 15:43:57:401,-120.67126393236165,160.0111344359414,0,-29.238094329833984,17.842735290527344,-38.83418655395508
0.020513426512479782,0.16191621124744415,9.76596450805664,-0.001320984076733546,-0.005740247113475944,-0.031329352162286495,2.53993558883667,2019-07-25 15:43:57:411,-121.85221958734456,160.39265379917484,0,-29.238094329833984,17.842735290527344,-38.83418655395508
0.04925042390823364,0.1595214605331421,9.797096252441406,0.0016092084567850867,0.00970985932699638,-0.0291983031415727,2.549949884414673,2019-07-25 15:43:57:421,-123.01487454405479,160.76523911301197,0,-28.788278579711914,17.992673873901367,-38.38437271118164
0.09235591441392899,0.1858637034893036,9.813858985900879,-0.0031856519698581177,-0.002277292454816025,-0.03665697679466559,2.559941291809082,2019-07-25 15:43:57:431,-124.1425158320262,161.13002174531104,0,-28.788278579711914,17.992673873901367,-38.38437271118164
0.06840842217206955,0.15473195910453796,9.816253662109375,-0.00212012745950122,-0.007338533879011292,-0.03639059410663042,2.569946765899658,2019-07-25 15:43:57:441,-125.24755704900937,161.49055103139563,0,-28.788278579711914,17.992673873901367,-38.38437271118164
0.020513426512479782,0.15473195910453796,9.665384292602539,-0.0031856519698581177,0.00438223625506324,-0.036923355321511565,2.579948902130127,2019-07-25 15:43:57:451,-126.3426350114293,161.84418587603338,0,-28.788278579711914,17.992673873901367,-38.38437271118164
0.0588294193148613,0.17388996481895447,9.818648338317871,-0.0007882218215550968,0.0017184247190966692,-0.03905440434222536,2.589942455291748,2019-07-25 15:43:57:461,-127.40988079590642,162.1874522162155,0,-28.788278579711914,17.992673873901367,-38.38437271118164
0.09475066512823105,0.1451529562473297,9.746806144714355,-0.0023865085870904443,-0.0038755792203513722,-0.04651307799531825,2.5999534130096436,2019-07-25 15:43:57:471,-128.44836533767972,162.52798053429652,0,-28.788278579711914,17.992673873901367,-38.38437271118164
0.08277691900730133,0.1451529562473297,9.730042457580566,-0.003452033357521668,-0.0001462432553011296,-0.0438492677597233,2.6099421977996826,2019-07-25 15:43:57:481,-129.46956753282987,162.8622635394378,0,-28.788278579711914,17.992673873901367,-38.38437271118164
0.06601367145776749,0.1786794662475586,9.758779525756836,-0.0031856519698581177,0.0027839492294535677,-0.04438202897460446,2.6199440956115723,2019-07-25 15:43:57:491,-130.47398818692832,163.1858284217048,0,-28.788278579711914,17.992673873901367,-38.38437271118164
0.1306719183921814,0.16431096196174622,9.897675514221191,-0.0015873652043227706,-0.002277292454816025,-0.04225097995389066,2.6299383640289307,2019-07-25 15:43:57:501,-131.44810263583784,163.50398108880398,0,-28.788278579711914,17.992673873901367,-38.38437271118164
0.10193491727113724,0.1523372083902359,9.816253662109375,-0.006115844893488239,-0.0033428169651729235,-0.04518117287752078,2.639953136444092,2019-07-25 15:43:57:511,-132.4053617202698,163.81955868572607,0,-28.788278579711914,17.992673873901367,-38.38437271118164
0.07080317288637161,0.16191621124744415,9.761174201965332,-0.00798051278661281,0.00118566246391822,-0.04731222189823458,2.64994215965271,2019-07-25 15:43:57:521,-133.34960769177746,164.1286371876061,0,-28.788278579711914,17.992673873901367,-38.38437271118164
0.13306665420532227,0.1595214605331421,9.83541202545166,-0.0029192708422688934,0.008377953168901608,-0.046779460683353424,2.6599481105804443,2019-07-25 15:43:57:531,-134.27182000845428,164.4291205040524,0,-28.788278579711914,17.992673873901367,-38.38437271118164
0.14025090634822845,0.1523372083902359,9.859359741210938,-0.0031856519698581177,-0.0060066282410651695,-0.04411564628656928,2.6699373722076416,2019-07-25 15:43:57:541,-135.1667147905901,164.72462075137656,0,-29.537973403930664,17.542856216430664,-38.53430938720703
0.08277691900730133,0.1451529562473297,9.76596450805664,-0.0018537463319119952,-0.00041262439914499955,-0.04757860042508055,2.6799542903900146,2019-07-25 15:43:57:551,-136.05343579596186,165.01414031667562,0,-29.537973403930664,17.542856216430664,-38.53430938720703
0.06361892074346542,0.16191621124744415,9.866543769836426,-0.006115844893488239,0.006513285275777036,-0.04438202897460446,2.689939022064209,2019-07-25 15:43:57:561,-136.92862999988134,165.29848279542415,0,-29.537973403930664,17.542856216430664,-38.53430938720703
0.252804160118103,0.5762079358100891,9.65820026397705,0.0016092084567850867,-0.018526542278056026,-0.04278374116877181,2.69994854927063,2019-07-25 15:43:57:571,-137.74965727634728,165.52332435918223,0,-29.537973403930664,17.542856216430664,-38.53430938720703
-0.12796105444431305,-0.22363848984241486,9.770753860473633,-0.010644324062505057,0.004115855127474016,-0.0481113658011509,2.709949254989624,2019-07-25 15:43:57:581,-131.41198177619492,158.64505884667722,0,-29.537973403930664,17.542856216430664,-38.53430938720703
0.2743569016456604,-0.05121651291847229,10.13475513458252,-0.021033188558633467,0.007046047530955486,-0.04518117287752078,2.719947338104248,2019-07-25 15:43:57:591,-132.3566843410853,151.88975640745733,0,-29.537973403930664,17.542856216430664,-38.53430938720703
0.2480146437883377,0.1714952141046524,9.718069076538086,0.008535118164216414,-0.016395493257342228,-0.04305012385680698,2.7299561500549316,2019-07-25 15:43:57:601,-133.2710979530347,152.42694467238195,0,-29.537973403930664,17.542856216430664,-38.53430938720703
-0.01301306951791048,0.2624956965446472,9.75638484954834,0.002674733097179148,0.0049149985102416895,-0.03905440434222536,2.739941120147705,2019-07-25 15:43:57:611,-127.00996003275608,152.94608273527214,0,-29.537973403930664,17.542856216430664,-38.53430938720703
0.0851716697216034,0.03499447554349899,9.844990730285645,-0.01250899247577828,0.016902150292054094,-0.03985354824514169,2.7499754428863525,2019-07-25 15:43:57:621,-128.06937056312648,153.4901357774776,0,-29.537973403930664,17.542856216430664,-38.53430938720703
0.15461941063404083,0.17628471553325653,9.928807258605957,-0.0018537463319119952,-0.0014781489420111885,-0.03932078703026053,2.759958028793335,2019-07-25 15:43:57:631,-129.08931093727384,154.0010286766682,0,-29.537973403930664,17.542856216430664,-38.53430938720703
0.03967142477631569,0.19304795563220978,9.816253662109375,0.000543683913918898,-0.0166618738647828,-0.037988881912463066,2.7699947357177734,2019-07-25 15:43:57:641,-130.09350367736,154.4981688569932,0,-29.537973403930664,17.542856216430664,-38.53430938720703
0.001355428365059197,0.2433377057313919,9.694121360778809,-0.00212012745950122,0.020365105470862666,-0.03665697679466559,2.7799463272094727,2019-07-25 15:43:57:651,-131.10285300631344,154.98063191971454,0,-29.537973403930664,17.542856216430664,-38.53430938720703
0.16419841349124908,0.11162646859884262,9.998254776000977,-0.0015873652043227706,0.003050330357042792,-0.03612421141859524,2.789987564086914,2019-07-25 15:43:57:661,-132.0636984204602,155.4691211078597,0,-29.537973403930664,17.542856216430664,-38.53430938720703
0.14504040777683258,0.20023220777511597,9.801885604858398,0.005072163505556494,-0.01133425131299831,-0.0291983031415727,2.7999517917633057,2019-07-25 15:43:57:671,-132.9991279530004,155.93349543561993,0,-29.238094329833984,18.14261245727539,-38.234432220458984
0.03967142477631569,0.16670571267604828,9.634252548217773,-0.0026528897146796686,0.0033167117447063417,-0.02786639802377523,2.809988498687744,2019-07-25 15:43:57:681,-133.93629599407515,156.39649428540963,0,-29.238094329833984,18.14261245727539,-38.234432220458984
0.07559266686439514,0.16191621124744415,9.758779525756836,-0.0031856519698581177,0.013439195113245527,-0.023071536686871886,2.819955587387085,2019-07-25 15:43:57:691,-134.85621510787638,156.85133613617253,0,-29.238094329833984,18.14261245727539,-38.234432220458984
0.14264565706253052,0.1595214605331421,9.912043571472168,-0.0026528897146796686,-0.006539390496243618,-0.023071536686871886,2.8299896717071533,2019-07-25 15:43:57:701,-135.7389165323829,157.29736365424947,0,-29.238094329833984,18.14261245727539,-38.234432220458984
0.08038216829299927,0.1978374570608139,9.773148536682129,0.003740257607536046,-0.007604915006600516,-0.018809438645444293,2.839952230453491,2019-07-25 15:43:57:711,-136.61045932904008,157.72613053883975,0,-29.238094329833984,18.14261245727539,-38.234432220458984
0.05164517089724541,0.1858637034893036,9.655805587768555,-0.004517557607804241,0.00970985932699638,-0.015879246762111474,2.8499882221221924,2019-07-25 15:43:57:721,-137.4775928371725,158.15209876123532,0,-29.238094329833984,18.14261245727539,-38.234432220458984
0.11390866339206696,0.22657445073127747,9.840201377868652,-0.0029192708422688934,0.0038494739998847904,-0.015080102859195149,2.859952688217163,2019-07-25 15:43:57:731,-138.31693042344253,158.56430963877656,0,-29.238094329833984,18.14261245727539,-38.234432220458984
0.14025090634822845,0.3008117079734802,9.804280281066895,-0.00212012745950122,-0.007338533879011292,-0.020141343763241764,2.8699729442596436,2019-07-25 15:43:57:741,-139.13007160790724,158.95906872636013,0,-29.238094329833984,18.14261245727539,-38.234432220458984
0.00853967759758234,0.24094295501708984,9.72764778137207,-0.0002554595176127117,0.00118566246391822,-0.01694477127246837,2.8799479007720947,2019-07-25 15:43:57:751,-139.94712828373915,159.35165318750794,0,-29.238094329833984,18.14261245727539,-38.234432220458984
0.022908175364136696,0.23854820430278778,9.809069633483887,-0.0026528897146796686,0.005447760765420138,-0.021206868273598665,2.8899877071380615,2019-07-25 15:43:57:761,-140.74858062966555,159.7382534497008,0,-29.238094329833984,18.14261245727539,-38.234432220458984
0.08038216829299927,0.22896920144557953,9.909648895263672,-0.006914988276255913,-0.003609198092762148,-0.023604299982347636,2.8999545574188232,2019-07-25 15:43:57:771,-141.52229427885692,160.12088581444183,0,-29.238094329833984,18.14261245727539,-38.234432220458984
-0.0010393214179202914,0.2433377057313919,9.821043014526367,-0.0015873652043227706,-0.007338533879011292,-0.03718973800954674,2.909977436065674,2019-07-25 15:43:57:781,-135.08783965680078,160.49097469712547,0,-29.238094329833984,18.14261245727539,-38.234432220458984
-0.0010393214179202914,0.1714952141046524,9.677358627319336,-0.0018537463319119952,0.00438223625506324,-0.03372678387103547,2.91995906829834,2019-07-25 15:43:57:791,-128.78866203189853,160.861889197896,0,-29.238094329833984,16.94310188293457,-38.83418655395508
-0.07767131179571152,0.04696822538971901,9.775543212890625,-0.013574516986135179,0.009177097071817932,-0.045980316780437104,2.9302186965942383,2019-07-25 15:43:57:802,-122.62728015281404,161.24696567740267,0,-29.238094329833984,16.94310188293457,-38.83418655395508
0.22646190226078033,0.6767873764038086,9.37801456451416,0.02185417454367764,-0.012666157471093084,-0.045713934092401924,2.939957857131958,2019-07-25 15:43:57:811,-123.74014164030784,161.52752066978582,0,-29.238094329833984,16.94310188293457,-38.83418655395508
-0.10401355475187302,0.08528421819210052,9.662989616394043,-0.017836615027562768,0.00784519091372316,-0.04198459726585548,2.9499671459198,2019-07-25 15:43:57:821,-117.68208225688771,161.8968813634931,0,-29.238094329833984,16.94310188293457,-38.83418655395508
0.21209339797496796,0.037389226257801056,9.931201934814453,-0.014373659848754201,0.004115855127474016,-0.045713934092401924,2.9599671363830566,2019-07-25 15:43:57:831,-118.90628289707952,162.26270036896963,0,-29.238094329833984,16.94310188293457,-38.83418655395508
0.05643467232584953,0.08767896890640259,9.67496395111084,1.0921627247073539e-05,-0.018526542278056026,-0.05263984236942447,2.969970226287842,2019-07-25 15:43:57:841,-120.11106727475082,162.60705569787822,0,-29.238094329833984,16.94310188293457,-38.83418655395508
-0.10161881148815155,0.27446943521499634,9.655805587768555,-0.0031856519698581177,0.00012013789667006295,-0.04544755140436675,2.979968786239624,2019-07-25 15:43:57:851,-114.1209726794188,162.9241388084879,0,-29.238094329833984,16.94310188293457,-38.83418655395508
0.015723926946520805,0.0541524738073349,9.770753860473633,-0.011709848572861954,0.01796767376211369,-0.05423813017525712,2.9899702072143555,2019-07-25 15:43:57:861,-115.4467993806954,163.26588108481326,0,-29.238094329833984,16.94310188293457,-38.83418655395508
0.16898790001869202,0.11162646859884262,10.003044128417969,-0.0039847956127001165,-0.008404058909516841,-0.05530365676620862,2.999969244003296,2019-07-25 15:43:57:871,-116.71378812739327,163.59001367731543,0,-29.238094329833984,16.94310188293457,-38.83418655395508
0.015723926946520805,0.08528421819210052,9.763568878173828,-0.0018537463319119952,-0.01586273100216378,-0.05610280066912494,3.009974479675293,2019-07-25 15:43:57:881,-117.96875533944475,163.90924557191144,0,-29.238094329833984,16.94310188293457,-38.83418655395508
-0.02259206771850586,0.16910046339035034,9.662989616394043,-0.006382226021077464,0.016902150292054094,-0.05716832309888723,3.0199663639068604,2019-07-25 15:43:57:891,-112.02154221027762,164.21459010714952,0,-29.238094329833984,16.94310188293457,-38.83418655395508
0.14264565706253052,0.13557396829128265,9.969517707824707,-0.003452033357521668,0.004648617382652464,-0.06143042114031483,3.02996826171875,2019-07-25 15:43:57:901,-113.36732720562104,164.51665481202522,0,-29.238094329833984,16.94310188293457,-38.83418655395508
0.11869816482067108,0.09486322104930878,9.866543769836426,-0.0047839387353934655,-0.013998062588890556,-0.061164042613468854,3.0399675369262695,2019-07-25 15:43:57:911,-114.6783362154201,164.81799047505157,0,-29.238094329833984,16.94310188293457,-38.83418655395508
0.030092423781752586,0.0996527224779129,9.660594940185547,-0.007714131659023586,-0.00041262439914499955,-0.05557003529305459,3.0499684810638428,2019-07-25 15:43:57:921,-115.98096830475909,165.11414241166915,0,-28.788278579711914,17.39291763305664,-40.78339385986328
0.08277691900730133,0.11162646859884262,9.725253105163574,-0.006648607148666687,0.0147711012713403,-0.05503727407817343,3.0599682331085205,2019-07-25 15:43:57:931,-117.25988941091664,165.40244041156384,0,-28.788278579711914,17.39291763305664,-40.78339385986328
0.15940891206264496,0.11162646859884262,9.95514965057373,-0.00212012745950122,-0.00547386598588672,-0.04651307799531825,3.0699715614318848,2019-07-25 15:43:57:941,-118.49326938684398,165.68273390706355,0,-28.788278579711914,17.39291763305664,-40.78339385986328
0.08996116369962692,0.12120546400547028,9.701305389404297,-0.0005218406614565815,-0.008670440037106066,-0.03985354824514169,3.0799694061279297,2019-07-25 15:43:57:951,-119.70791072416468,165.95505616654143,0,-28.788278579711914,17.39291763305664,-40.78339385986328
-0.33630427718162537,-0.07755875587463379,10.22575569152832,-0.05299892386934041,-0.013465300333712108,-0.004957619490655965,3.0899746417999268,2019-07-25 15:43:57:961,-113.74386105432988,159.07442064714394,0,-28.788278579711914,17.39291763305664,-40.78339385986328
0.9975712895393372,0.0996527224779129,9.947964668273926,0.019989508210999023,0.012107288955150754,-0.035857832891749264,3.0999691486358643,2019-07-25 15:43:57:971,-114.9612500013456,159.47023560939041,0,-28.788278579711914,17.39291763305664,-40.78339385986328
-0.8008857369422913,-0.06558500975370407,9.253487586975098,0.04689400157736205,-0.006273009368654393,-0.04917688823091319,3.1099696159362793,2019-07-25 15:43:57:981,-109.15743456106631,152.6626204029307,0,-28.788278579711914,17.39291763305664,-40.78339385986328
-0.6188847422599792,-0.5732719302177429,11.16928768157959,-0.16701006104169075,-0.07206915048393611,0.06803081206953482,3.1199710369110107,2019-07-25 15:43:57:991,-103.39724314825168,146.1619206407014,0,-28.788278579711914,17.39291763305664,-40.78339385986328
0.5808848738670349,0.23615345358848572,10.25449275970459,0.04902505059807585,0.028356538258242105,-0.008420574149315884,3.1299655437469482,2019-07-25 15:43:58:001,-104.8803684686429,146.78478491742993,0,-28.788278579711914,17.39291763305664,-40.78339385986328
-1.298993706703186,0.27446943521499634,9.694121360778809,0.008268737036627189,-0.002810054709994474,0.0357986940707927,3.1399729251861572,2019-07-25 15:43:58:011,-99.33382333942511,147.41200729081967,0,-28.788278579711914,17.39291763305664,-40.78339385986328
1.5866796970367432,0.4253386855125427,10.503546714782715,-0.061256741425349634,-0.031312836402338805,0.06430147940417758,3.1499648094177246,2019-07-25 15:43:58:021,-100.75777447207217,148.05175656121187,0,-28.788278579711914,17.39291763305664,-40.78339385986328
0.06122417002916336,0.20981121063232422,9.061907768249512,0.11002633661823805,0.0408764517750843,-0.03905440434222536,3.1600210666656494,2019-07-25 15:43:58:031,-102.3579582458506,148.60206748338422,0,-28.788278579711914,17.39291763305664,-40.78339385986328
0.013329177163541317,0.2840484380722046,9.385198593139648,-0.03381948268291624,-0.003609198092762148,0.032868503227757175,3.17000150680542,2019-07-25 15:43:58:041,-103.90714901796935,149.21430737260027,0,-31.787057876586914,17.992673873901367,-38.08449172973633
0.1306719183921814,0.16670571267604828,10.438888549804688,0.005338544633145719,-0.01586273100216378,0.0048984827502939945,3.18001127243042,2019-07-25 15:43:58:051,-105.4057468446521,149.80872236210223,0,-31.787057876586914,17.992673873901367,-38.08449172973633
-0.8200437426567078,0.013441730290651321,9.971912384033203,-0.04101177364797396,-0.012932538078533657,0.03899526968245799,3.18999981880188,2019-07-25 15:43:58:061,-99.78440182844078,150.43400494803626,0,-31.787057876586914,17.992673873901367,-38.08449172973633
0.3461993932723999,0.6001554131507874,9.947964668273926,0.0034738764799468217,-0.005740247113475944,0.02301239994650992,3.200009822845459,2019-07-25 15:43:58:071,-101.34562447400049,150.95432353306848,0,-31.787057876586914,17.992673873901367,-38.08449172973633
-0.33151477575302124,0.5642341375350952,9.368435859680176,0.03437409014111445,0.019299580960505765,0.0030338148571694224,3.2100040912628174,2019-07-25 15:43:58:081,-95.77007532240403,151.44701516196133,0,-31.787057876586914,17.992673873901367,-38.08449172973633
0.554542601108551,0.4157596826553345,9.818648338317871,-0.0047839387353934655,-0.007604915006600516,0.016619252884368527,3.2200093269348145,2019-07-25 15:43:58:091,-97.38575051213576,151.97226889533425,0,-31.787057876586914,17.992673873901367,-38.08449172973633
0.1498299092054367,0.06133672222495079,9.684542655944824,0.018391220405166372,-0.002810054709994474,-0.0041584761078882915,3.230005979537964,2019-07-25 15:43:58:101,-99.01873110093302,152.5152428084737,0,-31.787057876586914,17.992673873901367,-38.08449172973633
0.042066171765327454,-0.07516400516033173,9.823437690734863,-0.011177086317683507,0.002251186974275118,-0.007088668511369762,3.2400074005126953,2019-07-25 15:43:58:111,-100.63471365840762,145.87998256158633,0,-31.787057876586914,17.992673873901367,-38.08449172973633
1.8548916578292847,0.4540756642818451,9.452251434326172,0.03250942172784123,0.017701293154673118,-0.02440344388526396,3.2500076293945312,2019-07-25 15:43:58:121,-102.00990824095736,146.4891222710743,0,-31.787057876586914,17.992673873901367,-38.08449172973633
-0.42251527309417725,0.5211286544799805,8.86793327331543,0.04636124036248091,0.007578809786133935,-0.03479230838139237,3.260006904602051,2019-07-25 15:43:58:131,-96.4285214850984,147.06604697783192,0,-31.787057876586914,17.992673873901367,-38.08449172973633
0.7317540645599365,0.6624189019203186,10.11559772491455,-0.017836615027562768,-0.02065759129876982,-0.011084385425208131,3.2700278759002686,2019-07-25 15:43:58:141,-98.00557706686001,147.65982909822768,0,-31.787057876586914,17.992673873901367,-38.08449172973633
-0.15909279882907867,-0.24519123136997223,9.277435302734375,0.04875867207122987,0.032085875084788544,-0.052107081154543315,3.2799479961395264,2019-07-25 15:43:58:151,-92.48298643496611,141.10975137722187,0,-31.787057876586914,17.992673873901367,-38.08449172973633
-0.5638055205345154,-0.27632299065589905,10.64244270324707,-0.053265306557375595,-0.028382643478708683,-0.008686955276905108,3.289940595626831,2019-07-25 15:43:58:161,-87.07805224697222,134.7471887631377,0,-31.787057876586914,17.992673873901367,-38.08449172973633
0.14504040777683258,-0.3457707166671753,10.659205436706543,-0.07004732019623999,-0.04569741833245423,-0.005490381745834414,3.299952745437622,2019-07-25 15:43:58:171,-88.89520941292479,128.52878322635803,0,-31.787057876586914,17.992673873901367,-38.08449172973633
-0.7769381999969482,-0.26195448637008667,9.641437530517578,0.017325695894809475,0.006246904148187811,-0.05663556188400609,3.3100152015686035,2019-07-25 15:43:58:181,-83.61297723928536,122.37954491594212,0,-31.787057876586914,17.992673873901367,-38.08449172973633
0.18096165359020233,-0.1158747524023056,9.993465423583984,-0.029557384641488653,0.008910715424080057,-0.02626811021794258,3.3204500675201416,2019-07-25 15:43:58:192,-85.5251906580821,116.36255852674711,0,-31.787057876586914,17.992673873901367,-38.08449172973633
-0.12796105444431305,0.20262695848941803,10.108413696289062,-0.0058494637658990135,-0.010535107410081988,-0.035058688988832944,3.32999587059021,2019-07-25 15:43:58:201,-80.22354529143037,117.61547540914304,0,-31.787057876586914,17.992673873901367,-38.08449172973633
0.18096165359020233,0.17628471553325653,9.722858428955078,0.0018755895843743117,-0.015596349354425904,-0.04757860042508055,3.3399763107299805,2019-07-25 15:43:58:211,-82.18900888918142,118.84134055126377,0,-31.787057876586914,17.992673873901367,-38.08449172973633
-0.3530675172805786,0.06133672222495079,9.600726127624512,-0.016504708869467997,0.0038494739998847904,-0.0438492677597233,3.3499510288238525,2019-07-25 15:43:58:221,-76.98950688224905,120.06643680357516,0,-31.787057876586914,17.992673873901367,-38.08449172973633
-0.010618319734930992,0.0733104720711708,10.019807815551758,-0.014373659848754201,0.00118566246391822,-0.04757860042508055,3.359950065612793,2019-07-25 15:43:58:231,-71.851596792306,121.2647940760542,0,-31.787057876586914,17.992673873901367,-38.08449172973633
-0.16867180168628693,0.07091572135686874,9.852174758911133,-0.00212012745950122,-0.015329968746985329,-0.06249594773126633,3.369964838027954,2019-07-25 15:43:58:241,-66.82556084153643,122.43244227087276,0,-31.787057876586914,17.992673873901367,-38.08449172973633
-0.06330281496047974,0.06612621992826462,9.897675514221191,-0.020500427343752316,-0.012399775823355209,-0.045713934092401924,3.3799376487731934,2019-07-25 15:43:58:251,-61.88943495940639,123.587617359298,0,-31.787057876586914,17.992673873901367,-38.08449172973633
-0.07288181036710739,0.17388996481895447,9.742016792297363,-0.0005218406614565815,0.015037481878780875,-0.06515975796686127,3.3899338245391846,2019-07-25 15:43:58:261,-57.068659201127666,124.69570608365807,0,-31.787057876586914,17.992673873901367,-38.08449172973633
-0.08964505791664124,0.19065320491790771,9.914438247680664,-0.0023865085870904443,-0.0025436735824052492,-0.06143042114031483,3.399951219558716,2019-07-25 15:43:58:271,-52.33621620037881,125.78110123979536,0,-31.787057876586914,17.992673873901367,-38.08449172973633
-0.07048705965280533,0.21460069715976715,9.90485954284668,-0.011177086317683507,-0.020391210691329247,-0.05610280066912494,3.409943103790283,2019-07-25 15:43:58:281,-47.68620620118406,126.84692628441749,0,-31.787057876586914,17.992673873901367,-38.08449172973633
-0.05611856281757355,0.16431096196174622,9.679753303527832,-0.00212012745950122,-0.0006790055592435148,-0.05690194041085206,3.419933557510376,2019-07-25 15:43:58:291,-43.138744574481926,127.8917273592069,0,-28.938217163085938,16.043468475341797,-36.13528823852539
0.49946337938308716,0.2648904621601105,10.077281951904297,-0.030090147936964403,-0.01746101776769913,-0.03905440434222536,3.429933786392212,2019-07-25 15:43:58:301,-45.80941619710054,128.92067428366718,0,-28.938217163085938,16.043468475341797,-36.13528823852539
0.06122417002916336,0.02781022898852825,9.593542098999023,0.047160384265397225,0.011041764444793854,-0.09446168304197326,3.439954996109009,2019-07-25 15:43:58:311,-48.492128041610606,129.91240231518375,0,-28.938217163085938,16.043468475341797,-36.13528823852539
0.9640448093414307,0.12360021471977234,9.600726127624512,-0.0031856519698581177,-0.02065759129876982,-0.06968823869632404,3.449932098388672,2019-07-25 15:43:58:321,-50.99603157140519,130.90118715428065,0,-28.938217163085938,16.043468475341797,-36.13528823852539
-0.32433053851127625,-0.020084764808416367,9.787516593933105,-0.03062290915184555,-0.006539390496243618,-0.04358288507168813,3.459946870803833,2019-07-25 15:43:58:331,-46.410392159612265,124.70273504067094,0,-28.938217163085938,16.043468475341797,-36.13528823852539
0.4180418848991394,0.36546993255615234,10.525099754333496,-0.02982376732952383,-0.025452452635673164,-0.02786639802377523,3.4699413776397705,2019-07-25 15:43:58:341,-49.02241043495474,125.78564274879656,0,-28.938217163085938,16.043468475341797,-36.13528823852539
1.4046787023544312,0.8683673739433289,8.99964427947998,0.10656337831853756,0.046736837622344554,-0.08860129719471303,3.479933023452759,2019-07-25 15:43:58:351,-51.4907581903246,126.69991758271244,0,-28.938217163085938,16.043468475341797,-36.13528823852539
-0.24769854545593262,0.5642341375350952,8.697905540466309,0.020255888818439594,0.0057141418930093625,-0.04997603213382952,3.4899516105651855,2019-07-25 15:43:58:361,-46.89678198589698,127.6802927689101,0,-28.938217163085938,16.043468475341797,-36.13528823852539
1.6585222482681274,0.43012818694114685,9.926412582397461,-0.009845181199886033,-0.00787129665433839,-0.03958716971829571,3.4999682903289795,2019-07-25 15:43:58:371,-49.36471005920553,128.68260077890105,0,-28.938217163085938,16.043468475341797,-36.13528823852539
-0.6212794780731201,0.058941975235939026,9.947964668273926,-0.03302034086059452,-0.021723115809126718,-0.022272392783955562,3.510202169418335,2019-07-25 15:43:58:382,-44.83640603577999,129.72113376891036,0,-28.938217163085938,16.043468475341797,-36.13528823852539
-0.405752032995224,-0.1877172440290451,10.012622833251953,-0.021565951854109217,-0.0166618738647828,-0.033460401183000296,3.5200204849243164,2019-07-25 15:43:58:391,-40.3769040192185,123.56008151638177,0,-28.938217163085938,16.043468475341797,-36.13528823852539
0.8155702948570251,0.7174981236457825,9.868938446044922,-0.004517557607804241,-0.012399775823355209,0.010226105822227136,3.530207872390747,2019-07-25 15:43:58:402,-43.06778910646174,124.60829922568733,0,-28.938217163085938,16.043468475341797,-36.13528823852539
0.774859607219696,0.9258413910865784,8.997249603271484,0.08658479322919707,0.03528244861585924,-0.042517362641925835,3.5401549339294434,2019-07-25 15:43:58:412,-45.72769405552802,125.55026913189452,0,-28.938217163085938,16.043468475341797,-36.13528823852539
1.9889976978302002,1.0336050987243652,8.889485359191895,0.043697430126885956,0.002517568101864343,-0.012949053838481352,3.5506229400634766,2019-07-25 15:43:58:422,-48.162379037847145,126.48093622848235,0,-29.537973403930664,14.843955993652344,-36.43516540527344
1.5100477933883667,0.6672083735466003,8.889485359191895,0.05568458034825242,0.006246904148187811,-0.02893192253413213,3.5599465370178223,2019-07-25 15:43:58:431,-50.60958684798546,127.4363188137663,0,-29.537973403930664,14.843955993652344,-36.43516540527344
0.8467020988464355,0.47562843561172485,9.65820026397705,-0.008246893914202035,0.0057141418930093625,-0.011350767072946005,3.569999933242798,2019-07-25 15:43:58:441,-53.100418316633025,128.435861492889,0,-29.537973403930664,14.843955993652344,-36.43516540527344
0.15461941063404083,0.06373147666454315,9.833017349243164,-0.00212012745950122,0.005447760765420138,-0.0302638276519296,3.580012559890747,2019-07-25 15:43:58:451,-55.62345524306957,129.460909209743,0,-29.537973403930664,14.843955993652344,-36.43516540527344
0.34380462765693665,-0.027269015088677406,10.062912940979004,-0.007181369403845137,-0.01932568618097235,-0.02200601217651499,3.590006113052368,2019-07-25 15:43:58:461,-58.061006210999295,123.27882601034823,0,-29.537973403930664,14.843955993652344,-36.43516540527344
0.27675163745880127,0.07091572135686874,9.722858428955078,-0.007714131659023586,-0.01692825551252068,-0.009219718052232208,3.5999977588653564,2019-07-25 15:43:58:471,-60.457680275388334,124.40921951681342,0,-29.537973403930664,14.843955993652344,-36.43516540527344
0.03967142477631569,0.10204746574163437,9.763568878173828,-0.0023865085870904443,0.021430629981219564,-0.006289525128602088,3.609999895095825,2019-07-25 15:43:58:481,-62.85590644066973,125.51039891957828,0,-29.537973403930664,14.843955993652344,-36.43516540527344
1.4382052421569824,0.4013911783695221,9.943175315856934,-0.027959098916250605,-0.025718833243113737,0.008894199664132362,3.6200146675109863,2019-07-25 15:43:58:491,-65.01971944947624,126.56967932626513,0,-29.537973403930664,14.843955993652344,-36.43516540527344
0.3318308889865875,0.2840484380722046,9.277435302734375,0.038369805494506866,-0.004408341475529821,-0.024137061197228787,3.630002975463867,2019-07-25 15:43:58:501,-67.27588357843155,127.58169264690812,0,-29.537973403930664,14.843955993652344,-36.43516540527344
1.0358872413635254,0.27446943521499634,9.368435859680176,-0.006115844893488239,0.012640051210329201,-0.00522400061824519,3.6399760246276855,2019-07-25 15:43:58:511,-69.41125052687649,128.59992099899782,0,-29.537973403930664,14.843955993652344,-36.43516540527344
0.305488646030426,0.10204746574163437,9.816253662109375,-0.0058494637658990135,0.008377953168901608,-0.015346484506933024,3.649928092956543,2019-07-25 15:43:58:521,-71.59205699293072,129.61927906195572,0,-29.537973403930664,14.843955993652344,-36.43516540527344
0.607227087020874,0.23615345358848572,9.694121360778809,0.02265331844659397,-0.02119035459424557,-0.015346484506933024,3.660001516342163,2019-07-25 15:43:58:531,-73.67654513841889,130.58617074574306,0,-29.537973403930664,14.843955993652344,-36.43516540527344
0.2360409051179886,0.20262695848941803,9.548042297363281,-0.005316700990571915,-0.0068057716238328425,-0.014813722251754575,3.6699795722961426,2019-07-25 15:43:58:541,-75.77087832924047,131.55311132073146,0,-31.187301635742188,14.993894577026367,-35.38559341430664
0.0037501780316233635,0.03499447554349899,9.799490928649902,0.0002773027863296734,0.011574526699972304,-0.020141343763241764,3.679982900619507,2019-07-25 15:43:58:551,-77.86152347506734,132.5178012324771,0,-31.187301635742188,14.993894577026367,-35.38559341430664
0.13546140491962433,-0.017690015956759453,10.122781753540039,-0.02476252538517991,-0.027849882263827532,-0.013748196701100375,3.6899831295013428,2019-07-25 15:43:58:561,-79.87332143743079,126.28335218731971,0,-31.187301635742188,14.993894577026367,-35.38559341430664
-0.11598730832338333,-0.015295266173779964,9.912043571472168,-0.018102995635003345,-0.025186069947637987,-0.015346484506933024,3.6999826431274414,2019-07-25 15:43:58:571,-74.67512224874079,120.16961771658735,0,-31.187301635742188,14.993894577026367,-35.38559341430664
1.8093914985656738,0.501970648765564,8.827221870422363,0.05168886499486,0.02888930155371785,-0.04358288507168813,3.7100272178649902,2019-07-25 15:43:58:581,-76.56623443276354,121.27197899412143,0,-31.187301635742188,14.993894577026367,-35.38559341430664
-0.3937782645225525,0.291232705116272,9.4354887008667,0.029046465508735356,0.01876681766503002,-0.03425954508591662,3.720005989074707,2019-07-25 15:43:58:591,-71.49322052824358,122.39490625676522,0,-31.187301635742188,14.993894577026367,-35.38559341430664
-0.35067278146743774,0.39181217551231384,9.737227439880371,0.048225906695159526,-0.010268726802641412,-0.04518117287752078,3.730163335800171,2019-07-25 15:43:58:602,-66.49875025513546,123.4734181243361,0,-31.187301635742188,14.993894577026367,-35.38559341430664
-0.1638823002576828,0.3343381881713867,9.370830535888672,0.002674733097179148,-0.006273009368654393,-0.03718973800954674,3.7400593757629395,2019-07-25 15:43:58:612,-61.58532794843098,124.56159617816968,0,-31.187301635742188,14.993894577026367,-35.38559341430664
-0.24530379474163055,-0.0895325094461441,9.871333122253418,-0.013574516986135179,0.00012013789667006295,-0.03958716971829571,3.749959707260132,2019-07-25 15:43:58:621,-56.78215845280377,118.48830347283055,0,-31.187301635742188,14.993894577026367,-35.38559341430664
0.5665163397789001,-0.09432200342416763,10.331125259399414,-0.05299892386934041,-0.037705983464480196,-0.03425954508591662,3.7599523067474365,2019-07-25 15:43:58:631,-59.16258467435073,112.55873599282077,0,-31.187301635742188,14.993894577026367,-35.38559341430664
-0.5494369864463806,-0.26434922218322754,9.782727241516113,0.008002355909037966,-0.018792922885496596,-0.05929937211960103,3.769972324371338,2019-07-25 15:43:58:641,-54.43305130437387,106.73401640702116,0,-31.187301635742188,14.993894577026367,-35.38559341430664
0.12588241696357727,-0.02966376394033432,9.718069076538086,-0.011443467965421379,-0.003609198092762148,-0.048910509704067226,3.7799527645111084,2019-07-25 15:43:58:651,-56.92752496458378,101.00924682318313,0,-31.187301635742188,14.993894577026367,-35.38559341430664
0.28393590450286865,0.1858637034893036,9.873727798461914,-0.012775373083218853,0.004648617382652464,-0.05050879334871067,3.7899575233459473,2019-07-25 15:43:58:661,-59.358642218966764,102.57467041162607,0,-31.187301635742188,14.993894577026367,-35.38559341430664
-0.05611856281757355,0.2888379395008087,9.70370101928711,0.02584989197766466,-0.015329968746985329,-0.06675804577269392,3.7999727725982666,2019-07-25 15:43:58:671,-54.569475491034986,104.07454122152048,0,-31.187301635742188,14.993894577026367,-35.38559341430664
0.16898790001869202,0.16670571267604828,9.59593677520752,-0.026094430502977384,-0.017993778982580276,-0.04757860042508055,3.809967517852783,2019-07-25 15:43:58:681,-57.047809907701115,105.58778923287998,0,-31.187301635742188,14.993894577026367,-35.38559341430664
-0.1638823002576828,-0.02966376394033432,9.720463752746582,-0.010111561807326608,0.007578809786133935,-0.06702442429953989,3.8199567794799805,2019-07-25 15:43:58:691,-52.33042238163809,99.88520193865536,0,-31.187301635742188,14.993894577026367,-35.38559341430664
-0.034565817564725876,0.08767896890640259,9.9743070602417,-0.012775373083218853,-0.014530824844069007,-0.06143042114031483,3.8299496173858643,2019-07-25 15:43:58:701,-47.679631877297155,101.48459322568142,0,-31.187301635742188,14.993894577026367,-35.38559341430664
-0.02259206771850586,0.16910046339035034,9.91683292388916,-0.01250899247577828,-0.02598521385055431,-0.060364898710552534,3.8399906158447266,2019-07-25 15:43:58:711,-43.11399932517371,103.04241583922071,0,-31.187301635742188,14.993894577026367,-35.38559341430664
-0.18543504178524017,0.16191621124744415,9.622279167175293,-0.005316700990571915,0.003583092872295566,-0.06755718967561025,3.8499486446380615,2019-07-25 15:43:58:721,-38.6758034906206,104.56525955866447,0,-31.187301635742188,14.993894577026367,-35.38559341430664
-0.07048705965280533,0.14036346971988678,9.947964668273926,-0.021565951854109217,-0.001744530069600413,-0.061164042613468854,3.8599815368652344,2019-07-25 15:43:58:731,-34.30942398370811,106.06993592030396,0,-31.187301635742188,14.993894577026367,-35.38559341430664
0.20490914583206177,0.27207469940185547,9.842596054077148,0.000543683913918898,-0.019592066788412923,-0.06995461722317002,3.869945764541626,2019-07-25 15:43:58:741,-37.188421016592535,107.51656502286862,0,-31.187301635742188,14.993894577026367,-35.38559341430664
-0.020197318866848946,0.20023220777511597,9.588752746582031,0.0034738764799468217,-0.008404058909516841,-0.06515975796686127,3.87994384765625,2019-07-25 15:43:58:751,-32.84234833482357,108.94035800245742,0,-31.187301635742188,14.993894577026367,-35.38559341430664
0.01811867579817772,0.11162646859884262,9.742016792297363,-0.0039847956127001165,0.011308146092531729,-0.06622528039662358,3.8899545669555664,2019-07-25 15:43:58:761,-35.789726456007806,110.35066108483836,0,-31.187301635742188,14.993894577026367,-35.38559341430664
0.3845153748989105,0.1595214605331421,9.991070747375488,-0.009312417904410284,-0.010268726802641412,-0.05716832309888723,3.8999569416046143,2019-07-25 15:43:58:771,-38.62408484043885,111.73058341933414,0,-31.187301635742188,14.993894577026367,-35.38559341430664
-0.08725030720233917,0.16670571267604828,9.713279724121094,0.016260171384452574,-0.01133425131299831,-0.06409423137590978,3.9099419116973877,2019-07-25 15:43:58:781,-34.25554154326941,113.0671903808064,0,-31.187301635742188,14.993894577026367,-35.38559341430664
0.19293540716171265,0.19065320491790771,9.629463195800781,-0.00798051278661281,0.00438223625506324,-0.04970965360698355,3.919938325881958,2019-07-25 15:43:58:791,-37.149934018114635,114.38764105840306,0,-30.737483978271484,15.44371223449707,-34.63589859008789
-0.015407819300889969,0.1858637034893036,9.895280838012695,-0.0047839387353934655,0.013439195113245527,-0.04464841166263963,3.929959297180176,2019-07-25 15:43:58:801,-32.816281542189124,115.68105876921939,0,-30.737483978271484,15.44371223449707,-34.63589859008789
0.42762088775634766,0.5977606773376465,9.38998794555664,0.025050748074748337,0.02888930155371785,-0.04278374116877181,3.940474271774292,2019-07-25 15:43:58:812,-35.724863503414795,116.87979731429675,0,-30.737483978271484,15.44371223449707,-34.63589859008789
0.2959096431732178,0.4085754156112671,9.739622116088867,-0.003452033357521668,-0.012666157471093084,-0.03772249922442789,3.9499664306640625,2019-07-25 15:43:58:821,-38.56881082794868,118.09599845786282,0,-30.737483978271484,15.44371223449707,-34.63589859008789
-0.18064555525779724,-0.0895325094461441,9.624673843383789,0.02638265527314041,0.003583092872295566,-0.06356147016102863,3.9599616527557373,2019-07-25 15:43:58:831,-34.220950722773765,112.12993119257534,0,-30.737483978271484,15.44371223449707,-34.63589859008789
0.11630341410636902,-0.32900747656822205,10.379019737243652,-0.061256741425349634,-0.0177273983751397,-0.0145473406040167,3.9699318408966064,2019-07-25 15:43:58:841,-37.11376730851407,106.35793814828509,0,-30.737483978271484,15.44371223449707,-34.63589859008789
-1.3732309341430664,-0.22603324055671692,10.189834594726562,0.0181248397977258,-0.0009453866868327393,-0.04518117287752078,3.979950189590454,2019-07-25 15:43:58:851,-32.92446439725409,100.64599843252337,0,-30.737483978271484,15.44371223449707,-34.63589859008789
0.2791464030742645,0.11162646859884262,10.355072021484375,-0.054330833148327096,-0.019858447395853497,0.0014355279615969126,3.9899466037750244,2019-07-25 15:43:58:861,-35.82394512646493,102.2512218556697,0,-30.737483978271484,15.44371223449707,-34.63589859008789
-0.7266484498977661,0.16431096196174622,9.742016792297363,0.017325695894809475,0.014504719623602424,-0.032394876672643395,3.9999349117279053,2019-07-25 15:43:58:871,-31.600915932771134,103.77715501053015,0,-30.737483978271484,15.44371223449707,-34.63589859008789
0.03488192334771156,0.3415224254131317,9.76596450805664,-0.003452033357521668,0.009443477679258508,-0.015080102859195149,4.009930372238159,2019-07-25 15:43:58:881,-34.57010476046394,105.26349221831825,0,-30.737483978271484,15.44371223449707,-34.63589859008789
0.03488192334771156,0.39181217551231384,9.90485954284668,-0.008246893914202035,-0.009735964547462964,-0.010818004817767556,4.019953012466431,2019-07-25 15:43:58:891,-37.46918800572763,106.7175574630068,0,-30.737483978271484,15.44371223449707,-34.63589859008789
-0.1375400573015213,0.33912768959999084,9.610305786132812,0.01173169169528711,0.0057141418930093625,-0.0145473406040167,4.02994441986084,2019-07-25 15:43:58:901,-33.13940888125563,108.13620444084265,0,-30.737483978271484,15.44371223449707,-34.63589859008789
0.09235591441392899,0.2553114593029022,9.849780082702637,-0.012775373083218853,0.0049149985102416895,-0.018276677430563146,4.039933443069458,2019-07-25 15:43:58:911,-36.06863314041702,109.55094974970712,0,-30.737483978271484,15.44371223449707,-34.63589859008789
0.001355428365059197,0.20981121063232422,9.818648338317871,-0.008246893914202035,0.004115855127474016,-0.018276677430563146,4.04992938041687,2019-07-25 15:43:58:921,-38.94941239632359,110.94007655573027,0,-30.737483978271484,15.44371223449707,-34.63589859008789
0.030092423781752586,0.1331792175769806,9.883306503295898,-0.0039847956127001165,-0.009735964547462964,-0.02200601217651499,4.059956312179565,2019-07-25 15:43:58:931,-41.761453652731845,112.30807803698231,0,-30.737483978271484,15.44371223449707,-34.63589859008789
-0.05851331353187561,0.1068369671702385,9.789911270141602,-0.00957879955214816,0.005980523020598588,-0.02839915923865638,4.06993556022644,2019-07-25 15:43:58:941,-37.33642460709502,113.65477895646998,0,-30.737483978271484,15.44371223449707,-34.63589859008789
0.0037501780316233635,0.07570522278547287,9.885701179504395,-0.009312417904410284,0.0003865190486412555,-0.02733363472829948,4.079946279525757,2019-07-25 15:43:58:951,-40.18947867013309,114.97814258165698,0,-30.737483978271484,15.44371223449707,-34.63589859008789
0.04925042390823364,0.11402121931314468,9.859359741210938,-0.007181369403845137,0.0017184247190966692,-0.032661259360678575,4.08993673324585,2019-07-25 15:43:58:961,-42.980928928382646,116.26935655129296,0,-30.737483978271484,15.44371223449707,-34.63589859008789
0.030092423781752586,0.09007371962070465,9.813858985900879,-0.006648607148666687,-0.004674722603119046,-0.030530208259370174,4.099930763244629,2019-07-25 15:43:58:971,-45.71517333455982,117.53718320969169,0,-30.737483978271484,15.44371223449707,-34.63589859008789
0.0851716697216034,0.10444221645593643,9.801885604858398,-0.006648607148666687,0.0017184247190966692,-0.03372678387103547,4.109949588775635,2019-07-25 15:43:58:981,-48.391879606759325,118.77797012335441,0,-30.737483978271484,15.44371223449707,-34.63589859008789
0.19772490859031677,0.11881071329116821,9.789911270141602,-0.0039847956127001165,-0.0025436735824052492,-0.0438492677597233,4.119943618774414,2019-07-25 15:43:58:991,-50.99947391280239,119.99074065254436,0,-30.737483978271484,15.44371223449707,-34.63589859008789
0.1378561556339264,0.1259949654340744,9.749200820922852,-0.005050319862982691,-0.002810054709994474,-0.04305012385680698,4.129933834075928,2019-07-25 15:43:59:001,-53.561705681213404,121.17895025944485,0,-30.737483978271484,15.44371223449707,-34.63589859008789
0.1761721521615982,0.12120546400547028,9.80667495727539,-0.008246893914202035,0.00438223625506324,-0.04970965360698355,4.139934778213501,2019-07-25 15:43:59:011,-56.07234881671394,122.34584010430848,0,-30.737483978271484,15.44371223449707,-34.63589859008789
0.013329177163541317,0.09246847033500671,9.72764778137207,-0.0039847956127001165,0.00012013789667006295,-0.051307937251626995,4.149950742721558,2019-07-25 15:43:59:021,-58.5493992310567,123.49027188632283,0,-30.737483978271484,15.44371223449707,-34.63589859008789
0.2551988959312439,0.08767896890640259,9.866543769836426,-0.006648607148666687,-0.005207484858297496,-0.048910509704067226,4.160163879394531,2019-07-25 15:43:59:032,-60.94579234377149,124.61409629784812,0,-30.737483978271484,15.44371223449707,-34.63589859008789
-0.003434071084484458,0.06373147666454315,9.751595497131348,-0.005050319862982691,-0.0014781489420111885,-0.06063127723739851,4.169928073883057,2019-07-25 15:43:59:041,-56.12646962927954,125.71709423530775,0,-30.737483978271484,15.44371223449707,-36.13528823852539
0.16898790001869202,0.08528421819210052,9.789911270141602,-0.0058494637658990135,-0.0009453866868327393,-0.059565754807636206,4.179935455322266,2019-07-25 15:43:59:051,-58.58363083023419,126.79605691931108,0,-30.737483978271484,15.44371223449707,-36.13528823852539
0.6862538456916809,0.5570499300956726,9.37801456451416,0.006137688015913392,0.03181949447734797,-0.05929937211960103,4.189935207366943,2019-07-25 15:43:59:061,-60.9461190431531,127.78870256669944,0,-30.737483978271484,15.44371223449707,-36.13528823852539
0.6814643144607544,0.6863663792610168,9.32772445678711,0.03730428306474457,0.005980523020598588,-0.0784788133060252,4.199954032897949,2019-07-25 15:43:59:071,-63.246991281912834,128.72777402012272,0,-30.737483978271484,15.44371223449707,-36.13528823852539
-0.5350685119628906,-0.13263800740242004,9.801885604858398,-0.005316700990571915,-0.016395493257342228,-0.0774132908762629,4.209946393966675,2019-07-25 15:43:59:081,-58.435344030292974,122.57170703342406,0,-30.737483978271484,15.44371223449707,-36.13528823852539
0.39648911356925964,-0.40084996819496155,10.446072578430176,-0.07723961116129771,-0.02332140361495937,-0.05184070262769734,4.2199342250823975,2019-07-25 15:43:59:091,-60.81008486599342,116.60754101755192,0,-30.737483978271484,15.44371223449707,-36.13528823852539
-1.4929684400558472,-0.5948246717453003,10.450862884521484,-0.03914710731529534,-0.0177273983751397,-0.06835633357852658,4.229935884475708,2019-07-25 15:43:59:101,-56.146528367493545,110.76252590148184,0,-30.737483978271484,15.44371223449707,-36.13528823852539
0.15940891206264496,-0.060795512050390244,10.297598838806152,-0.022897856971906685,-0.018792922885496596,-0.06249594773126633,4.239948987960815,2019-07-25 15:43:59:111,-58.59529418419805,104.96691458513024,0,-30.737483978271484,15.44371223449707,-36.13528823852539
-0.26925128698349,-0.02247951552271843,9.818648338317871,-0.017570234420122198,-0.011600631920438885,-0.06143042114031483,4.249933481216431,2019-07-25 15:43:59:121,-53.848300589511446,99.28005019421394,0,-30.737483978271484,15.44371223449707,-36.13528823852539
-0.1566980481147766,0.22178494930267334,9.701305389404297,0.005604925760734943,0.014504719623602424,-0.06249594773126633,4.259947299957275,2019-07-25 15:43:59:131,-49.197997734571445,100.86510506692616,0,-30.737483978271484,15.44371223449707,-36.13528823852539
0.29830437898635864,0.3989964425563812,9.928807258605957,-0.010377943455064483,-0.008404058909516841,-0.05290622505745964,4.2699384689331055,2019-07-25 15:43:59:141,-51.77490516477189,102.40760032188531,0,-30.737483978271484,15.44371223449707,-36.13528823852539
-0.20219829678535461,0.3271539509296417,9.634252548217773,0.005871306888324168,0.002251186974275118,-0.06169680382835,4.279933214187622,2019-07-25 15:43:59:151,-47.164716740148435,103.9172559749521,0,-30.737483978271484,15.44371223449707,-36.13528823852539
0.12827716767787933,0.20262695848941803,9.782727241516113,-0.010644324062505057,0.003583092872295566,-0.048377744327996866,4.2899489402771,2019-07-25 15:43:59:161,-49.808412378482686,105.42116538466378,0,-30.737483978271484,15.44371223449707,-36.13528823852539
0.013329177163541317,0.16910046339035034,9.809069633483887,-0.004251176740289341,0.010509002189615405,-0.04997603213382952,4.299951553344727,2019-07-25 15:43:59:171,-52.41658932246069,106.89537702506334,0,-30.737483978271484,15.44371223449707,-36.13528823852539
0.02530292607843876,0.1978374570608139,9.856964111328125,-0.001320984076733546,-0.004674722603119046,-0.04411564628656928,4.309927225112915,2019-07-25 15:43:59:181,-54.96269750103592,108.33521302072224,0,-30.737483978271484,15.44371223449707,-36.13528823852539
0.013329177163541317,0.13796871900558472,9.868938446044922,-0.015172803751670527,-0.003609198092762148,-0.03878802581537939,4.320012092590332,2019-07-25 15:43:59:191,-57.459852097706715,109.76108160406703,0,-30.737483978271484,15.44371223449707,-36.13528823852539
-0.05372381582856178,0.11402121931314468,9.868938446044922,-0.0026528897146796686,0.0067796664033662616,-0.04358288507168813,4.329954624176025,2019-07-25 15:43:59:201,-52.720677943370994,111.1541022077837,0,-30.737483978271484,15.44371223449707,-36.13528823852539
0.10672441124916077,0.1786794662475586,9.88809585571289,-0.0010546029491443213,-0.002810054709994474,-0.03985354824514169,4.340349912643433,2019-07-25 15:43:59:212,-55.25225653150116,112.51093110530509,0,-30.737483978271484,15.44371223449707,-36.13528823852539
0.020513426512479782,0.22178494930267334,9.82583236694336,0.004273019862714496,0.0014520435915074442,-0.0302638276519296,4.349949598312378,2019-07-25 15:43:59:221,-57.745601754190574,113.8325484561433,0,-30.737483978271484,15.44371223449707,-36.13528823852539
-0.003434071084484458,0.19304795563220978,9.713279724121094,0.0029411142247683726,0.00970985932699638,-0.02493620510014511,4.359975576400757,2019-07-25 15:43:59:231,-52.99656108683293,115.13147010130749,0,-30.737483978271484,15.44371223449707,-36.13528823852539
0.0037501780316233635,0.22657445073127747,9.883306503295898,-0.0023865085870904443,0.011574526699972304,-0.02946468374901328,4.369962215423584,2019-07-25 15:43:59:241,-55.542685449972566,116.40391345664277,0,-30.737483978271484,15.44371223449707,-36.13528823852539
-0.04414481669664383,0.1259949654340744,9.868938446044922,0.0034738764799468217,-0.0012117678144219638,-0.023604299982347636,4.380025148391724,2019-07-25 15:43:59:251,-50.836272821749056,117.65924343117413,0,-30.737483978271484,15.44371223449707,-36.13528823852539
0.04685567319393158,0.16670571267604828,9.794700622558594,-0.011709848572861954,0.00731242865854471,-0.020141343763241764,4.3904595375061035,2019-07-25 15:43:59:262,-53.418349876739754,118.89341765055075,0,-30.737483978271484,15.44371223449707,-36.13528823852539
0.001355428365059197,0.16431096196174622,9.787516593933105,0.0010764462016066379,0.011840908347710179,-0.028132778631215806,4.399989128112793,2019-07-25 15:43:59:271,-55.956160081600544,120.09573770162913,0,-30.737483978271484,15.44371223449707,-36.13528823852539
0.28393590450286865,0.2313639521598816,9.844990730285645,0.003740257607536046,0.004115855127474016,-0.026534492905977754,4.4099955558776855,2019-07-25 15:43:59:281,-58.406309623842915,121.26479661135156,0,-30.737483978271484,15.44371223449707,-36.13528823852539
-0.017802570015192032,0.19304795563220978,9.730042457580566,0.005072163505556494,0.004115855127474016,-0.024137061197228787,4.420008182525635,2019-07-25 15:43:59:291,-53.64259401836206,122.4139166264506,0,-30.13772964477539,14.244200706481934,-34.03614044189453
0.15222465991973877,0.18825845420360565,9.730042457580566,-0.006648607148666687,0.011574526699972304,-0.02387068058978821,4.430017948150635,2019-07-25 15:43:59:301,-56.15832139716293,123.5472065270635,0,-30.13772964477539,14.244200706481934,-34.03614044189453
0.8969917893409729,0.5522603988647461,9.253487586975098,0.0349068513559956,0.04966703054597467,-0.03452592569335719,4.440001964569092,2019-07-25 15:43:59:311,-58.55226439346397,124.58838483960152,0,-30.13772964477539,14.244200706481934,-34.03614044189453
0.3198571503162384,0.5690236687660217,9.411540985107422,0.04769314548027838,0.012107288955150754,-0.04171821873900951,4.4499969482421875,2019-07-25 15:43:59:321,-60.949084241924346,125.60065288635975,0,-30.13772964477539,14.244200706481934,-34.03614044189453
1.6968382596969604,0.6480504274368286,9.263066291809082,0.02744817978349731,0.0304875872789559,-0.03425954508591662,4.460007905960083,2019-07-25 15:43:59:331,-63.1396293318069,126.59317220255156,0,-30.13772964477539,14.244200706481934,-34.03614044189453
-0.01301306951791048,0.27446943521499634,9.392383575439453,0.03437409014111445,0.022229771803541284,-0.05050879334871067,4.469931125640869,2019-07-25 15:43:59:341,-58.2908105502242,127.60867889445933,0,-30.13772964477539,14.244200706481934,-34.03614044189453
1.1723880767822266,0.41097018122673035,8.901459693908691,0.08285546056383983,0.06937923710846919,-0.07714690818822773,4.479985475540161,2019-07-25 15:43:59:351,-60.61410057709219,128.55686116940709,0,-30.13772964477539,14.244200706481934,-34.03614044189453
0.789228081703186,0.17628471553325653,9.967123031616211,-0.03515138780071372,-0.024653308732756844,-0.002293807954689394,4.489991664886475,2019-07-25 15:43:59:361,-62.897418935330585,129.58520835819309,0,-30.13772964477539,14.244200706481934,-34.03614044189453
1.5052582025527954,0.44928616285324097,9.49775218963623,0.009334262067132738,0.008644334296490834,-0.0302638276519296,4.499981880187988,2019-07-25 15:43:59:371,-65.06420636048482,130.53410158970098,0,-30.13772964477539,14.244200706481934,-34.03614044189453
0.3940943777561188,0.22896920144557953,9.212777137756348,0.03730428306474457,0.03501606592782407,-0.04305012385680698,4.509997367858887,2019-07-25 15:43:59:381,-67.33362526632517,131.47396673049684,0,-30.13772964477539,14.244200706481934,-34.03614044189453
1.8022072315216064,0.4157596826553345,8.86793327331543,0.0338413268456387,0.02702463314044463,-0.045980316780437104,4.519981622695923,2019-07-25 15:43:59:391,-69.37235062067091,132.3718302421712,0,-30.13772964477539,14.244200706481934,-34.03614044189453
1.7662858963012695,0.14994245767593384,9.694121360778809,-0.0026528897146796686,-0.010268726802641412,-0.016145627369552048,4.529988527297974,2019-07-25 15:43:59:401,-71.37261137655635,133.3081613849414,0,-30.13772964477539,14.244200706481934,-34.03614044189453
1.1077297925949097,0.33912768959999084,8.85116958618164,0.0620777274103938,0.018234056450148868,-0.05423813017525712,4.53998875617981,2019-07-25 15:43:59:411,-73.41272746000695,134.16325714031998,0,-30.13772964477539,14.244200706481934,-34.03614044189453
