ACCELEROMETER X (m/s²),ACCELEROMETER Y (m/s²),ACCELEROMETER Z (m/s²),GYROSCOPE X (rad/s),GYROSCOPE Y (rad/s),GYROSCOPE Z (rad/s),Time since start in ms ,YYYY-MO-DD HH-MI-SS_SSS,Pitch (Deg),Roll (Deg),Heading (Deg),MagX,MagY,MagZ
0.14504040777683258,0.10444221645593643,9.799490928649902,0.000543683913918898,-0.0030764358375836983,-0.033460401183000296,0.0,2019-07-25 15:26:41:630,-3.5830407588667113,3.5877873826622304,0,-42.58266067504883,17.992673873901367,-25.489622116088867
0.13546140491962433,0.13557396829128265,9.842596054077148,-0.0018537463319119952,-0.0038755792203513722,-0.035857832891749264,0.010003328323364258,2019-07-25 15:26:41:640,-7.0934331076314034,7.101289775569079,0,-42.58266067504883,17.992673873901367,-25.489622116088867
0.15222465991973877,0.16431096196174622,9.794700622558594,-0.0007882218215550968,-0.00041262439914499955,-0.037988881912463066,0.020009994506835938,2019-07-25 15:26:41:650,-10.533524752058554,10.54048536102568,0,-42.58266067504883,17.992673873901367,-25.489622116088867
0.1761721521615982,0.18107420206069946,9.768359184265137,-0.003452033357521668,-0.0006790055592435148,-0.03905440434222536,0.029996395111083984,2019-07-25 15:26:41:660,-13.901809191509395,13.910372144638256,0,-42.58266067504883,17.992673873901367,-25.489622116088867
0.2096986472606659,0.13557396829128265,9.749200820922852,1.0921627247073539e-05,-0.001744530069600413,-0.041451836050974335,0.040032386779785156,2019-07-25 15:26:41:670,-17.198145869660475,17.216224286164074,0,-43.482295989990234,18.592430114746094,-26.989011764526367
0.18096165359020233,0.12838971614837646,9.799490928649902,-0.0015873652043227706,-0.0014781489420111885,-0.041185453362939155,0.05000042915344238,2019-07-25 15:26:41:680,-20.43219705618424,20.45777570416608,0,-43.482295989990234,18.592430114746094,-26.989011764526367
0.1761721521615982,0.1595214605331421,9.751595497131348,-0.0015873652043227706,-0.001744530069600413,-0.04544755140436675,0.05999755859375,2019-07-25 15:26:41:690,-23.601874005961673,23.630767450970065,0,-43.482295989990234,18.592430114746094,-26.989011764526367
0.24322514235973358,0.14754770696163177,9.75638484954834,-0.005050319862982691,-0.0006790055592435148,-0.04171821873900951,0.07000350952148438,2019-07-25 15:26:41:700,-26.70089345852398,26.743660953712435,0,-43.482295989990234,18.592430114746094,-26.989011764526367
0.259988397359848,0.16431096196174622,9.830622673034668,-0.003452033357521668,-0.0030764358375836983,-0.045980316780437104,0.0800013542175293,2019-07-25 15:26:41:710,-29.73484982267904,29.791574353483096,0,-43.482295989990234,18.592430114746094,-26.989011764526367
0.21927765011787415,0.13078446686267853,9.720463752746582,-0.007447750531434362,-0.0001462432553011296,-0.04411564628656928,0.09000587463378906,2019-07-25 15:26:41:720,-32.71422508912256,32.78450981007322,0,-43.482295989990234,18.592430114746094,-26.989011764526367
0.20011965930461884,0.13078446686267853,9.823437690734863,-0.0058494637658990135,-0.0049411037307082704,-0.042517362641925835,0.10000443458557129,2019-07-25 15:26:41:730,-35.633825598122826,35.71684834584635,0,-43.482295989990234,18.592430114746094,-26.989011764526367
0.2288566529750824,0.16910046339035034,9.751595497131348,-0.00798051278661281,-0.00787129665433839,-0.04624669530728308,0.11001396179199219,2019-07-25 15:26:41:740,-38.48983701197512,38.587127593973804,0,-43.482295989990234,18.592430114746094,-26.989011764526367
0.21209339797496796,0.14275822043418884,9.751595497131348,-0.003718414485110892,-0.004408341475529821,-0.03932078703026053,0.11999893188476562,2019-07-25 15:26:41:750,-41.29264942607144,41.4006953864448,0,-43.482295989990234,18.592430114746094,-26.989011764526367
0.23364615440368652,0.1068369671702385,9.833017349243164,-0.008246893914202035,-0.002810054709994474,-0.041451836050974335,0.1300063133239746,2019-07-25 15:26:41:760,-44.037994007107876,44.164865489730325,0,-43.482295989990234,18.592430114746094,-26.989011764526367
0.25759363174438477,0.11641597002744675,9.746806144714355,-0.007181369403845137,-0.00041262439914499955,-0.03932078703026053,0.13999605178833008,2019-07-25 15:26:41:770,-46.72672487506503,46.87191019247417,0,-43.482295989990234,18.592430114746094,-26.989011764526367
0.2096986472606659,0.10923171788454056,9.811464309692383,-0.003718414485110892,-0.0041419603479405966,-0.03639059410663042,0.15001320838928223,2019-07-25 15:26:41:780,-49.36537296444818,49.52380642408436,0,-43.482295989990234,18.592430114746094,-26.989011764526367
0.22646190226078033,0.09246847033500671,9.787516593933105,-0.001320984076733546,-0.002810054709994474,-0.031329352162286495,0.1600017547607422,2019-07-25 15:26:41:790,-51.94998019948711,52.1232453551325,0,-43.482295989990234,18.592430114746094,-26.989011764526367
0.19772490859031677,0.080494724214077,9.742016792297363,-0.004251176740289341,-0.004674722603119046,-0.04038631362121203,0.17000532150268555,2019-07-25 15:26:41:800,-54.48510038873466,54.67370026312813,0,-42.58266067504883,17.39291763305664,-26.689132690429688
0.14504040777683258,0.10444221645593643,9.830622673034668,-0.005316700990571915,-0.007072152751422067,-0.03665697679466559,0.1799917221069336,2019-07-25 15:26:41:810,-56.97452723494775,57.17103357320551,0,-42.58266067504883,17.39291763305664,-26.689132690429688
0.0588294193148613,0.18107420206069946,9.789911270141602,-0.0039847956127001165,-0.009469582899725089,-0.03665697679466559,0.19000935554504395,2019-07-25 15:26:41:820,-59.42282421679594,59.60866186576738,0,-42.58266067504883,17.39291763305664,-26.689132690429688
0.05643467232584953,0.06852097064256668,9.823437690734863,-0.006648607148666687,-0.00041262439914499955,-0.03559145020371409,0.1999967098236084,2019-07-25 15:26:41:830,-61.82755323875594,62.012224169042156,0,-42.58266067504883,17.39291763305664,-26.689132690429688
0.11390866339206696,0.14275822043418884,9.871333122253418,-0.009046037296969709,-0.006273009368654393,-0.0438492677597233,0.21000432968139648,2019-07-25 15:26:41:840,-64.17425468175242,64.36049193358907,0,-42.58266067504883,17.39291763305664,-26.689132690429688
0.0779874175786972,0.15473195910453796,9.833017349243164,-0.001320984076733546,-0.0038755792203513722,-0.041185453362939155,0.21999740600585938,2019-07-25 15:26:41:850,-66.47950669160016,66.65599271938629,0,-42.58266067504883,17.39291763305664,-26.689132690429688
0.06361892074346542,0.12120546400547028,9.804280281066895,-0.0031856519698581177,-0.005207484858297496,-0.04411564628656928,0.23000168800354004,2019-07-25 15:26:41:860,-68.73955569133712,68.9104967045912,0,-42.58266067504883,17.39291763305664,-26.689132690429688
0.1378561556339264,0.06852097064256668,9.828227996826172,-0.00798051278661281,0.0003865190486412555,-0.04997603213382952,0.23999905586242676,2019-07-25 15:26:41:870,-70.94890935913917,71.12877761134497,0,-42.58266067504883,17.39291763305664,-26.689132690429688
0.15461941063404083,0.051757726818323135,9.811464309692383,-0.0005218406614565815,-0.002810054709994474,-0.05077517603674584,0.24999117851257324,2019-07-25 15:26:41:880,-73.11029752030272,73.30044992936925,0,-42.58266067504883,17.39291763305664,-26.689132690429688
0.0851716697216034,0.030204977840185165,9.83541202545166,-0.0029192708422688934,-0.011067869665260436,-0.04731222189823458,0.2599952220916748,2019-07-25 15:26:41:890,-75.23195143159073,75.43256161467414,0,-42.58266067504883,17.39291763305664,-26.689132690429688
0.06601367145776749,0.06373147666454315,9.718069076538086,-0.003718414485110892,-0.0049411037307082704,-0.049443270918948366,0.26999902725219727,2019-07-25 15:26:41:900,-77.31675297751613,77.51848421005015,0,-42.58266067504883,17.39291763305664,-26.689132690429688
0.15461941063404083,0.04936297610402107,9.84738540649414,-0.00957879955214816,-0.0009453866868327393,-0.0481113658011509,0.28000593185424805,2019-07-25 15:26:41:910,-79.35189552274359,79.56775252453869,0,-42.58266067504883,17.39291763305664,-26.689132690429688
0.16180366277694702,0.12360021471977234,9.761174201965332,-0.010644324062505057,-0.012133395215914635,-0.051307937251626995,0.29000329971313477,2019-07-25 15:26:41:920,-81.33905327693469,81.56786337035003,0,-43.482295989990234,18.89230728149414,-27.88864517211914
0.06122417002916336,0.18346895277500153,9.679753303527832,-0.006382226021077464,-0.0025436735824052492,-0.045713934092401924,0.29999423027038574,2019-07-25 15:26:41:930,-83.30359744995977,83.51836950948649,0,-43.482295989990234,18.89230728149414,-27.88864517211914
0.18814590573310852,0.09246847033500671,9.797096252441406,-0.008779655649231834,0.0009192813363289952,-0.05077517603674584,0.3100016117095947,2019-07-25 15:26:41:940,-85.216038310127,85.44212028611508,0,-43.482295989990234,18.89230728149414,-27.88864517211914
0.21209339797496796,0.05654722452163696,9.742016792297363,-0.0010546029491443213,-0.004408341475529821,-0.05104155872478103,0.319995641708374,2019-07-25 15:26:41:950,-87.08429996186753,87.32721832934304,0,-43.482295989990234,18.89230728149414,-27.88864517211914
0.12348766624927521,0.19304795563220978,9.818648338317871,-0.00957879955214816,-0.0068057716238328425,-0.04225097995389066,0.33000898361206055,2019-07-25 15:26:41:960,-88.92437618405629,89.16353226794148,0,-43.482295989990234,18.89230728149414,-27.88864517211914
0.20730389654636383,0.1259949654340744,9.792305946350098,-0.007447750531434362,-0.006539390496243618,-0.0438492677597233,0.3399930000305176,2019-07-25 15:26:41:970,-90.71796716928694,90.96969346623469,0,-43.482295989990234,18.89230728149414,-27.88864517211914
0.2695674002170563,0.11641597002744675,9.70370101928711,0.0034738764799468217,0.002517568101864343,-0.04305012385680698,0.3500058650970459,2019-07-25 15:26:41:980,-92.4731980725081,92.73459954174334,0,-43.482295989990234,18.89230728149414,-27.88864517211914
0.2887254059314728,0.13796871900558472,9.718069076538086,-0.0005218406614565815,-0.011067869665260436,-0.041185453362939155,0.3600029945373535,2019-07-25 15:26:41:990,-94.1834859753908,94.46393285649883,0,-43.482295989990234,18.89230728149414,-27.88864517211914
0.24322514235973358,0.06373147666454315,9.737227439880371,-0.008779655649231834,-0.0060066282410651695,-0.03905440434222536,0.3700096607208252,2019-07-25 15:26:42:000,-95.86782354439859,96.17208718419465,0,-43.482295989990234,18.89230728149414,-27.88864517211914
0.32464665174484253,0.09486322104930878,9.801885604858398,-0.0015873652043227706,0.002517568101864343,-0.04011993093317686,0.380023717880249,2019-07-25 15:26:42:010,-97.51394285779793,97.83844810509483,0,-43.482295989990234,18.89230728149414,-27.88864517211914
0.312672883272171,0.0541524738073349,9.895280838012695,-0.0029192708422688934,-0.008670440037106066,-0.033460401183000296,0.39002346992492676,2019-07-25 15:26:42:020,-99.1225988755166,99.47704724486422,0,-43.482295989990234,18.89230728149414,-27.88864517211914
0.27196213603019714,0.09007371962070465,9.761174201965332,-0.0015873652043227706,-0.00787129665433839,-0.03639059410663042,0.40001821517944336,2019-07-25 15:26:42:030,-100.70381068973003,101.07782320733563,0,-43.482295989990234,18.89230728149414,-27.88864517211914
0.3222518861293793,0.08288946747779846,9.739622116088867,-0.004251176740289341,0.003583092872295566,-0.031329352162286495,0.4100477695465088,2019-07-25 15:26:42:040,-102.25385159281761,102.64890870002537,0,-43.482295989990234,18.89230728149414,-27.88864517211914
0.3845153748989105,0.13557396829128265,9.78512191772461,-0.0007882218215550968,0.00118566246391822,-0.032661259360678575,0.42000722885131836,2019-07-25 15:26:42:050,-103.76443095810474,104.18049554323615,0,-42.732601165771484,19.342124938964844,-27.738706588745117
0.38212063908576965,0.1451529562473297,9.768359184265137,0.003207495352357597,-0.00787129665433839,-0.035058688988832944,0.43001580238342285,2019-07-25 15:26:42:060,-105.239915514665,105.67805660169599,0,-42.732601165771484,19.342124938964844,-27.738706588745117
0.3198571503162384,0.14754770696163177,9.732437133789062,-0.00798051278661281,-0.0038755792203513722,-0.02946468374901328,0.4400506019592285,2019-07-25 15:26:42:070,-106.69528646252525,107.15162089475122,0,-42.732601165771484,19.342124938964844,-27.738706588745117
0.2935148775577545,0.10444221645593643,9.737227439880371,-0.008779655649231834,-0.0038755792203513722,-0.03186211545776225,0.45005297660827637,2019-07-25 15:26:42:080,-108.12467254409049,108.60122870877309,0,-42.732601165771484,19.342124938964844,-27.738706588745117
0.31746238470077515,0.1259949654340744,9.780332565307617,-0.003718414485110892,-0.002810054709994474,-0.03452592569335719,0.46006202697753906,2019-07-25 15:26:42:090,-109.52341730293342,110.01653248763193,0,-42.732601165771484,19.342124938964844,-27.738706588745117
0.3222518861293793,0.08528421819210052,9.710885047912598,-0.0058494637658990135,-0.0068057716238328425,-0.033460401183000296,0.4700593948364258,2019-07-25 15:26:42:100,-110.89111572417467,111.40942188667596,0,-42.732601165771484,19.342124938964844,-27.738706588745117
0.31027814745903015,0.1068369671702385,9.732437133789062,-0.009046037296969709,0.003050330357042792,-0.03452592569335719,0.4800581932067871,2019-07-25 15:26:42:110,-112.2384855927861,112.7737334945078,0,-42.732601165771484,19.342124938964844,-27.738706588745117
0.31746238470077515,0.13557396829128265,9.753990173339844,-0.00212012745950122,0.0009192813363289952,-0.03772249922442789,0.4900527000427246,2019-07-25 15:26:42:120,-113.55694890495211,114.1035221812858,0,-42.732601165771484,19.342124938964844,-27.738706588745117
0.252804160118103,0.10204746574163437,9.856964111328125,-0.009046037296969709,-0.007072152751422067,-0.03932078703026053,0.5000684261322021,2019-07-25 15:26:42:130,-114.852449519727,115.41467601855564,0,-42.732601165771484,19.342124938964844,-27.738706588745117
0.24083039164543152,0.09486322104930878,9.83541202545166,-0.007181369403845137,-0.002277292454816025,-0.04011993093317686,0.5100512504577637,2019-07-25 15:26:42:140,-116.12607068812764,116.6993558100727,0,-42.732601165771484,19.342124938964844,-27.738706588745117
0.23364615440368652,0.1259949654340744,9.811464309692383,-0.0026528897146796686,-0.001744530069600413,-0.04731222189823458,0.520054817199707,2019-07-25 15:26:42:150,-117.37528617018641,117.95214423066885,0,-42.732601165771484,19.342124938964844,-27.738706588745117
0.267172634601593,0.06133672222495079,9.801885604858398,-0.0023865085870904443,-0.004674722603119046,-0.04651307799531825,0.5300607681274414,2019-07-25 15:26:42:160,-118.593927236524,119.1872715252401,0,-42.732601165771484,19.342124938964844,-27.738706588745117
0.28393590450286865,0.09007371962070465,9.816253662109375,-0.0015873652043227706,-0.0014781489420111885,-0.047844983113115726,0.5400533676147461,2019-07-25 15:26:42:170,-119.78808286863462,120.39390213831612,0,-42.58266067504883,18.89230728149414,-27.88864517211914
0.23125140368938446,0.09725797176361084,9.749200820922852,-0.0010546029491443213,0.00012013789667006295,-0.05050879334871067,0.5500578880310059,2019-07-25 15:26:42:180,-120.96521263489734,121.57518525316554,0,-42.58266067504883,18.89230728149414,-27.88864517211914
0.2695674002170563,0.06133672222495079,9.828227996826172,-0.0007882218215550968,0.00118566246391822,-0.05503727407817343,0.5600574016571045,2019-07-25 15:26:42:190,-122.11515194705446,122.73697269129386,0,-42.58266067504883,18.89230728149414,-27.88864517211914
0.28393590450286865,0.11881071329116821,9.768359184265137,-0.003452033357521668,-0.0009453866868327393,-0.05104155872478103,0.5700786113739014,2019-07-25 15:26:42:200,-123.23901811256924,123.87023879228565,0,-42.58266067504883,18.89230728149414,-27.88864517211914
0.2887254059314728,0.11881071329116821,9.720463752746582,-0.004251176740289341,0.00012013789667006295,-0.050242414821864693,0.580047607421875,2019-07-25 15:26:42:210,-124.34027805240594,124.98120811332933,0,-42.58266067504883,18.89230728149414,-27.88864517211914
0.31746238470077515,0.15473195910453796,9.720463752746582,-0.003718414485110892,0.003050330357042792,-0.0481113658011509,0.5900635719299316,2019-07-25 15:26:42:220,-125.41777661489077,126.06543583438092,0,-42.58266067504883,18.89230728149414,-27.88864517211914
0.3342256247997284,0.11162646859884262,9.797096252441406,-0.007447750531434362,-0.00041262439914499955,-0.05050879334871067,0.6005368232727051,2019-07-25 15:26:42:231,-126.47010094514415,127.13545112379227,0,-42.58266067504883,18.89230728149414,-27.88864517211914
0.2791464030742645,0.058941975235939026,9.71567440032959,-0.0031856519698581177,-0.0014781489420111885,-0.04464841166263963,0.610018253326416,2019-07-25 15:26:42:240,-127.50699710969494,128.18748625367414,0,-42.58266067504883,18.89230728149414,-27.88864517211914
0.305488646030426,0.013441730290651321,9.67496395111084,-0.0039847956127001165,0.002517568101864343,-0.0470458392101994,0.6200485229492188,2019-07-25 15:26:42:250,-128.52210459357627,129.22438870323577,0,-42.58266067504883,18.89230728149414,-27.88864517211914
0.3342256247997284,0.02541547827422619,9.842596054077148,-0.005316700990571915,0.004115855127474016,-0.045713934092401924,0.630040168762207,2019-07-25 15:26:42:260,-129.51507463948187,130.23992478741815,0,-42.58266067504883,18.89230728149414,-27.88864517211914
0.3605678677558899,-0.010505766607820988,9.780332565307617,-0.0029192708422688934,-0.002277292454816025,-0.04358288507168813,0.6400554180145264,2019-07-25 15:26:42:270,-130.48126558204171,124.03799886869518,0,-42.58266067504883,18.89230728149414,-27.88864517211914
0.3773311376571655,-0.08234825730323792,9.823437690734863,0.0018755895843743117,-0.0030764358375836983,-0.041451836050974335,0.6500387191772461,2019-07-25 15:26:42:280,-131.42592124670554,117.96579330526134,0,-42.58266067504883,18.89230728149414,-27.88864517211914
0.3270413875579834,-0.14700649678707123,9.751595497131348,0.000543683913918898,0.0017184247190966692,-0.04518117287752078,0.6600425243377686,2019-07-25 15:26:42:290,-132.35995165927199,112.02344555468177,0,-42.58266067504883,18.89230728149414,-27.88864517211914
0.3461993932723999,-0.16376975178718567,9.72764778137207,-0.00957879955214816,0.0049149985102416895,-0.04731222189823458,0.6700417995452881,2019-07-25 15:26:42:300,-133.27474715451692,106.20764496887476,0,-41.982906341552734,20.091819763183594,-29.08815574645996
0.6144113540649414,0.33912768959999084,10.182650566101074,0.0506233384039085,0.0027839492294535677,-0.04624669530728308,0.6800670623779297,2019-07-25 15:26:42:310,-134.14175962783392,107.61684532423307,0,-41.982906341552734,20.091819763183594,-29.08815574645996
0.7796490788459778,0.008652230724692345,9.385198593139648,-0.0031856519698581177,-0.0012117678144219638,-0.05397175164841114,0.6900346279144287,2019-07-25 15:26:42:320,-134.96327058372245,109.06523493406053,0,-41.982906341552734,20.091819763183594,-29.08815574645996
0.47312110662460327,0.2648904621601105,9.196013450622559,-0.04554025437743673,-0.009735964547462964,-0.04065269214805801,0.7000405788421631,2019-07-25 15:26:42:330,-135.79963148372454,110.47651735717642,0,-41.982906341552734,20.091819763183594,-29.08815574645996
0.5186213850975037,0.3678646981716156,9.471409797668457,-0.013041754730956728,0.0057141418930093625,-0.053172607745494815,0.710059404373169,2019-07-25 15:26:42:340,-136.62416963150378,111.82983930898101,0,-41.982906341552734,20.091819763183594,-29.08815574645996
0.5784900784492493,0.2050217092037201,9.871333122253418,0.02318608174206972,0.010242621582174831,-0.060098516022517354,0.7200603485107422,2019-07-25 15:26:42:350,-137.43036058687804,113.15642577732717,0,-41.982906341552734,20.091819763183594,-29.08815574645996
0.607227087020874,0.22657445073127747,9.947964668273926,0.007203212526270291,-0.004408341475529821,-0.05477089139013826,0.73004150390625,2019-07-25 15:26:42:360,-138.2094223702368,114.46316547291715,0,-41.982906341552734,20.091819763183594,-29.08815574645996
0.3940943777561188,0.24094295501708984,9.598331451416016,-0.009046037296969709,0.0006529002087397708,-0.05796746700180356,0.740039587020874,2019-07-25 15:26:42:370,-138.9985771386394,115.75022112088173,0,-41.982906341552734,20.091819763183594,-29.08815574645996
0.4300156235694885,0.2553114593029022,9.629463195800781,-0.00957879955214816,0.003050330357042792,-0.05557003529305459,0.7500448226928711,2019-07-25 15:26:42:380,-139.7691809417919,117.01022279891434,0,-41.982906341552734,20.091819763183594,-29.08815574645996
0.47551587224006653,0.14275822043418884,9.873727798461914,0.0018755895843743117,0.002251186974275118,-0.05450451286329229,0.7600352764129639,2019-07-25 15:26:42:390,-140.51991579844454,118.25239926560317,0,-41.982906341552734,20.091819763183594,-29.08815574645996
0.4395946264266968,0.0014679816085845232,9.87612247467041,0.0029411142247683726,-0.004408341475529821,-0.052107081154543315,0.7700648307800293,2019-07-25 15:26:42:400,-141.25606285433102,119.48552463966986,0,-41.982906341552734,20.091819763183594,-29.08815574645996
0.501858115196228,-0.07755875587463379,9.677358627319336,-0.0058494637658990135,-0.0025436735824052492,-0.04171821873900951,0.7800421714782715,2019-07-25 15:26:42:410,-141.97014371759636,113.50827486283407,0,-41.982906341552734,20.091819763183594,-29.08815574645996
-0.027381567284464836,-0.04163751378655434,9.840201377868652,-0.011443467965421379,0.0033167117447063417,-0.04065269214805801,0.790071964263916,2019-07-25 15:26:42:420,-135.53579736322544,107.64940276228451,0,-41.53308868408203,20.541635513305664,-28.33846092224121
0.1570141613483429,-0.09432200342416763,9.830622673034668,-0.019701283440835993,-0.015063587099247454,-0.02520258570758568,0.800041675567627,2019-07-25 15:26:42:430,-136.39834790674374,101.91843783866159,0,-41.53308868408203,20.541635513305664,-28.33846092224121
0.3605678677558899,0.04936297610402107,9.758779525756836,0.000543683913918898,-0.004408341475529821,-0.02493620510014511,0.8100628852844238,2019-07-25 15:26:42:440,-137.22558032593807,103.47396680460002,0,-41.53308868408203,20.541635513305664,-28.33846092224121
0.21927765011787415,0.10444221645593643,9.665384292602539,0.013596360108560333,0.013705575720686099,-0.0291983031415727,0.8203721046447754,2019-07-25 15:26:42:450,-138.06300952763195,104.98423500872374,0,-41.53308868408203,20.541635513305664,-28.33846092224121
0.2623831331729889,0.12120546400547028,9.82583236694336,-0.009312417904410284,-0.0025436735824052492,-0.023604299982347636,0.8300256729125977,2019-07-25 15:26:42:460,-138.8697779752792,106.47546347487264,0,-41.53308868408203,20.541635513305664,-28.33846092224121
0.1306719183921814,-0.00332151772454381,9.859359741210938,-0.00558308263830979,-0.013198919726271534,-0.02200601217651499,0.8400490283966064,2019-07-25 15:26:42:470,-139.6697673241331,100.74948246763296,0,-41.53308868408203,20.541635513305664,-28.33846092224121
0.010934427380561829,0.09007371962070465,9.775543212890625,-0.0023865085870904443,0.00118566246391822,-0.026534492905977754,0.8500399589538574,2019-07-25 15:26:42:480,-140.475755359125,102.32527323827459,0,-41.53308868408203,20.541635513305664,-28.33846092224121
0.1570141613483429,0.18107420206069946,9.76596450805664,-0.00212012745950122,0.006513285275777036,-0.023337919374907066,0.8600640296936035,2019-07-25 15:26:42:490,-141.2514841661588,103.85871669568883,0,-41.53308868408203,20.541635513305664,-28.33846092224121
0.22646190226078033,0.16910046339035034,9.842596054077148,0.000543683913918898,-0.0030764358375836983,-0.028132778631215806,0.8700509071350098,2019-07-25 15:26:42:500,-141.99836835832167,105.36155204854126,0,-41.53308868408203,20.541635513305664,-28.33846092224121
0.09954016655683517,0.19544270634651184,9.773148536682129,-0.0005218406614565815,-0.0060066282410651695,-0.0302638276519296,0.8800418376922607,2019-07-25 15:26:42:510,-142.74336051363443,106.83170087296027,0,-41.53308868408203,20.541635513305664,-28.33846092224121
0.1498299092054367,0.13796871900558472,9.823437690734863,-0.001320984076733546,0.006246904148187811,-0.03319402057555972,0.8900396823883057,2019-07-25 15:26:42:520,-143.47452369506803,108.279715270746,0,-41.53308868408203,20.541635513305664,-28.33846092224121
0.26477789878845215,0.14275822043418884,9.84738540649414,0.0008100650740174133,0.005447760765420138,-0.03372678387103547,0.9000611305236816,2019-07-25 15:26:42:530,-144.17729457298896,109.6970538861945,0,-41.53308868408203,20.541635513305664,-28.33846092224121
0.2288566529750824,0.20741645991802216,9.868938446044922,-0.0029192708422688934,-0.005740247113475944,-0.03372678387103547,0.9100353717803955,2019-07-25 15:26:42:540,-144.86396529013683,111.08066747611798,0,-41.53308868408203,20.541635513305664,-28.33846092224121
0.2025144100189209,0.2050217092037201,9.768359184265137,0.0016092084567850867,-0.0001462432553011296,-0.027600017416334655,0.9200429916381836,2019-07-25 15:26:42:550,-145.5428504639121,112.43410252666128,0,-41.38315200805664,19.791940689086914,-28.188522338867188
0.19054065644741058,0.20981121063232422,9.761174201965332,-0.0018537463319119952,0.005181379637830914,-0.03639059410663042,0.9300389289855957,2019-07-25 15:26:42:560,-146.2125358807091,113.7618338797243,0,-41.38315200805664,19.791940689086914,-28.188522338867188
0.2025144100189209,0.17628471553325653,9.87612247467041,-0.001320984076733546,-0.003609198092762148,-0.035325071676868124,0.9400575160980225,2019-07-25 15:26:42:570,-146.862760605546,115.06688836244587,0,-41.38315200805664,19.791940689086914,-28.188522338867188
0.24322514235973358,0.10923171788454056,9.840201377868652,-0.006648607148666687,-0.008137677781927616,-0.02786639802377523,0.9500367641448975,2019-07-25 15:26:42:580,-147.4926271822564,116.35655625290165,0,-41.38315200805664,19.791940689086914,-28.188522338867188
0.19772490859031677,0.11641597002744675,9.737227439880371,-0.00212012745950122,-0.0001462432553011296,-0.029997447044489024,0.9600439071655273,2019-07-25 15:26:42:590,-148.11942660962518,117.61691678596151,0,-41.38315200805664,19.791940689086914,-28.188522338867188
0.2695674002170563,0.09007371962070465,9.799490928649902,-0.0029192708422688934,0.00118566246391822,-0.032661259360678575,0.9700396060943604,2019-07-25 15:26:42:600,-148.72618928905922,118.8556843266522,0,-41.38315200805664,19.791940689086914,-28.188522338867188
0.25759363174438477,0.08767896890640259,9.789911270141602,-0.004251176740289341,-0.0049411037307082704,-0.031062971554845924,0.9800407886505127,2019-07-25 15:26:42:610,-149.3187462025384,120.070695345428,0,-41.38315200805664,19.791940689086914,-28.188522338867188
0.15222465991973877,0.11162646859884262,9.811464309692383,-0.00558308263830979,-0.003609198092762148,-0.03932078703026053,0.990058183670044,2019-07-25 15:26:42:620,-149.91256376381114,121.25938509769092,0,-41.38315200805664,19.791940689086914,-28.188522338867188
0.11390866339206696,0.12360021471977234,9.818648338317871,-0.005316700990571915,0.002251186974275118,-0.03639059410663042,1.00003981590271,2019-07-25 15:26:42:630,-150.50228074022922,122.42275285095383,0,-41.38315200805664,19.791940689086914,-28.188522338867188
0.1043296679854393,0.0996527224779129,9.837806701660156,-0.003452033357521668,-0.003609198092762148,-0.04091907483609319,1.0100417137145996,2019-07-25 15:26:42:640,-151.07805623340633,123.56462924202077,0,-41.38315200805664,19.791940689086914,-28.188522338867188
0.015723926946520805,0.20023220777511597,9.777937889099121,-0.004517557607804241,-0.001744530069600413,-0.04651307799531825,1.0200378894805908,2019-07-25 15:26:42:650,-151.65367318387607,124.67240955680711,0,-41.38315200805664,19.791940689086914,-28.188522338867188
0.03488192334771156,0.10204746574163437,9.78512191772461,-0.006914988276255913,0.006246904148187811,-0.04917688823091319,1.0300626754760742,2019-07-25 15:26:42:660,-152.22003110907247,125.77090360945448,0,-41.38315200805664,19.791940689086914,-28.188522338867188
0.04685567319393158,0.20262695848941803,9.787516593933105,-0.0023865085870904443,-0.0033428169651729235,-0.05370536896037596,1.040343999862671,2019-07-25 15:26:42:670,-152.7682149079826,126.83314322261658,0,-42.13284683227539,19.64200210571289,-28.33846092224121
0.10193491727113724,0.13796871900558472,9.742016792297363,-0.0010546029491443213,-0.0025436735824052492,-0.05157431993966217,1.0500245094299316,2019-07-25 15:26:42:680,-153.29947820162158,127.88082595781476,0,-42.13284683227539,19.64200210571289,-28.33846092224121
0.11151391267776489,0.12360021471977234,9.787516593933105,-0.0007882218215550968,-0.0012117678144219638,-0.05796746700180356,1.060044765472412,2019-07-25 15:26:42:690,-153.8197514474495,128.9091826632223,0,-42.13284683227539,19.64200210571289,-28.33846092224121
0.1761721521615982,0.11402121931314468,9.811464309692383,-0.0010546029491443213,0.0027839492294535677,-0.05903299359275506,1.0700407028198242,2019-07-25 15:26:42:700,-154.32434540973904,129.91827458580133,0,-42.13284683227539,19.64200210571289,-28.33846092224121
0.18096165359020233,0.04696822538971901,9.777937889099121,-0.003718414485110892,-0.0006790055592435148,-0.053172607745494815,1.0800652503967285,2019-07-25 15:26:42:710,-154.81627110687984,130.9164977524393,0,-42.13284683227539,19.64200210571289,-28.33846092224121
0.2360409051179886,0.03978397697210312,9.75638484954834,-0.003718414485110892,-0.0001462432553011296,-0.060364898710552534,1.0900371074676514,2019-07-25 15:26:42:720,-155.2921455213562,131.89557708899858,0,-42.13284683227539,19.64200210571289,-28.33846092224121
0.2791464030742645,0.030204977840185165,9.799490928649902,-0.0031856519698581177,0.00118566246391822,-0.05663556188400609,1.1000409126281738,2019-07-25 15:26:42:730,-155.75433510708166,132.8559229218575,0,-42.13284683227539,19.64200210571289,-28.33846092224121
0.2791464030742645,-0.0009267681161873043,9.818648338317871,-0.0023865085870904443,0.002251186974275118,-0.050242414821864693,1.110044240951538,2019-07-25 15:26:42:740,-156.20794299676672,126.60025309207354,0,-42.13284683227539,19.64200210571289,-28.33846092224121
0.25040939450263977,0.020625978708267212,9.746806144714355,-0.0005218406614565815,-0.0009453866868327393,-0.052107081154543315,1.1200871467590332,2019-07-25 15:26:42:750,-156.65381728971687,127.66611734227425,0,-42.13284683227539,19.64200210571289,-28.33846092224121
0.2480146437883377,0.02541547827422619,9.782727241516113,-0.00558308263830979,0.0009192813363289952,-0.05450451286329229,1.1300396919250488,2019-07-25 15:26:42:760,-157.09220929469197,128.71293793566028,0,-42.13284683227539,19.64200210571289,-28.33846092224121
0.23843564093112946,0.020625978708267212,9.813858985900879,-0.007447750531434362,-0.00041262439914499955,-0.05290622505745964,1.140040397644043,2019-07-25 15:26:42:770,-157.52229793449854,129.7404529842761,0,-42.13284683227539,19.64200210571289,-28.33846092224121
0.25040939450263977,0.12838971614837646,9.780332565307617,-0.0018537463319119952,-0.0041419603479405966,-0.05263984236942447,1.150045394897461,2019-07-25 15:26:42:780,-157.9401922253218,130.73164336529746,0,-42.13284683227539,19.64200210571289,-28.33846092224121
0.25040939450263977,0.037389226257801056,9.797096252441406,-0.0039847956127001165,-0.00041262439914499955,-0.052107081154543315,1.160055160522461,2019-07-25 15:26:42:790,-158.3518737526034,131.71487693747056,0,-42.13284683227539,19.64200210571289,-28.33846092224121
0.24083039164543152,0.09007371962070465,9.770753860473633,-0.003718414485110892,0.0033167117447063417,-0.05184070262769734,1.1700422763824463,2019-07-25 15:26:42:800,-158.7584572977355,132.67210103219486,0,-42.28278350830078,20.991453170776367,-28.488401412963867
0.27675163745880127,0.1331792175769806,9.78512191772461,-0.0015873652043227706,-0.002810054709994474,-0.05263984236942447,1.1800391674041748,2019-07-25 15:26:42:810,-159.1493096205246,133.60395465532454,0,-42.28278350830078,20.991453170776367,-28.488401412963867
0.2551988959312439,0.13078446686267853,9.742016792297363,-0.006648607148666687,-0.0060066282410651695,-0.05157431993966217,1.1900429725646973,2019-07-25 15:26:42:820,-159.53293823985513,134.52022742191832,0,-42.28278350830078,20.991453170776367,-28.488401412963867
0.27675163745880127,0.12360021471977234,9.799490928649902,-0.004517557607804241,0.0019848058466858938,-0.052107081154543315,1.2000422477722168,2019-07-25 15:26:42:830,-159.91104016480105,135.4179067144876,0,-42.28278350830078,20.991453170776367,-28.488401412963867
0.3318308889865875,0.09725797176361084,9.809069633483887,-0.005050319862982691,0.00012013789667006295,-0.0481113658011509,1.2100629806518555,2019-07-25 15:26:42:840,-160.2741365725145,136.3010287042405,0,-42.28278350830078,20.991453170776367,-28.488401412963867
0.2791464030742645,0.13078446686267853,9.777937889099121,-0.0005218406614565815,-0.0009453866868327393,-0.047844983113115726,1.2200396060943604,2019-07-25 15:26:42:850,-160.635418850034,137.15997421802865,0,-42.28278350830078,20.991453170776367,-28.488401412963867
0.31746238470077515,0.10204746574163437,9.799490928649902,-0.0058494637658990135,0.0006529002087397708,-0.04518117287752078,1.2300405502319336,2019-07-25 15:26:42:860,-160.98596723217412,138.008126894428,0,-42.28278350830078,20.991453170776367,-28.488401412963867
0.305488646030426,0.08288946747779846,9.789911270141602,-0.0029192708422688934,0.002517568101864343,-0.04757860042508055,1.240044116973877,2019-07-25 15:26:42:870,-161.33191595385628,138.8399020726257,0,-42.28278350830078,20.991453170776367,-28.488401412963867
0.30309388041496277,0.0996527224779129,9.780332565307617,-0.003718414485110892,-0.002810054709994474,-0.04411564628656928,1.2500572204589844,2019-07-25 15:26:42:880,-161.66819700213122,139.65351921469602,0,-42.28278350830078,20.991453170776367,-28.488401412963867
0.34859412908554077,0.07809997349977493,9.840201377868652,-0.0005218406614565815,0.002517568101864343,-0.0438492677597233,1.2601041793823242,2019-07-25 15:26:42:890,-161.9956756386846,140.45164847663838,0,-42.28278350830078,20.991453170776367,-28.488401412963867
0.31027814745903015,0.10204746574163437,9.830622673034668,-0.007714131659023586,-0.0009453866868327393,-0.04198459726585548,1.270036220550537,2019-07-25 15:26:42:900,-162.31907904468613,141.23502271570052,0,-42.28278350830078,20.991453170776367,-28.488401412963867
0.2935148775577545,0.11162646859884262,9.758779525756836,-0.0026528897146796686,0.0017184247190966692,-0.03745612069758192,1.2800414562225342,2019-07-25 15:26:42:910,-162.6392075384158,141.99870557284515,0,-42.28278350830078,20.991453170776367,-28.488401412963867
0.2935148775577545,0.10444221645593643,9.753990173339844,-0.0018537463319119952,0.002251186974275118,-0.04225097995389066,1.2900385856628418,2019-07-25 15:26:42:920,-162.9532148316486,142.7475024558021,0,-42.882537841796875,20.39169692993164,-28.788278579711914
0.2815411388874054,0.12120546400547028,9.730042457580566,-0.0029192708422688934,0.00438223625506324,-0.03958716971829571,1.3000633716583252,2019-07-25 15:26:42:930,-163.26346915701015,143.47992190114113,0,-42.882537841796875,20.39169692993164,-28.788278579711914
0.3006991446018219,0.09486322104930878,9.799490928649902,-0.0002554595176127117,0.0033167117447063417,-0.03718973800954674,1.3100407123565674,2019-07-25 15:26:42:940,-163.56490628667507,144.19937397668807,0,-42.882537841796875,20.39169692993164,-28.788278579711914
0.2959096431732178,0.07570522278547287,9.794700622558594,-0.001320984076733546,-0.0001462432553011296,-0.04225097995389066,1.320037841796875,2019-07-25 15:26:42:950,-163.858917112775,144.90727117792568,0,-42.882537841796875,20.39169692993164,-28.788278579711914
0.29112014174461365,0.08767896890640259,9.801885604858398,0.0016092084567850867,-0.0006790055592435148,-0.03958716971829571,1.3300457000732422,2019-07-25 15:26:42:960,-164.14733303533274,145.59797140553306,0,-42.882537841796875,20.39169692993164,-28.788278579711914
0.29112014174461365,0.09486322104930878,9.76596450805664,-0.0047839387353934655,0.0049149985102416895,-0.03559145020371409,1.3400616645812988,2019-07-25 15:26:42:970,-164.43300129702968,146.27757176092638,0,-42.882537841796875,20.39169692993164,-28.788278579711914
0.2863306403160095,0.13078446686267853,9.74441146850586,-0.0026528897146796686,-0.001744530069600413,-0.033460401183000296,1.3500418663024902,2019-07-25 15:26:42:980,-164.7097016610413,146.9381280056653,0,-42.882537841796875,20.39169692993164,-28.788278579711914
0.2480146437883377,0.14275822043418884,9.852174758911133,-0.004251176740289341,-0.00041262439914499955,-0.031062971554845924,1.3600428104400635,2019-07-25 15:26:42:990,-164.9864351956867,147.58514952169912,0,-42.882537841796875,20.39169692993164,-28.788278579711914
0.2815411388874054,0.08767896890640259,9.76596450805664,0.0021419707119635363,-0.004408341475529821,-0.03665697679466559,1.3700480461120605,2019-07-25 15:26:43:000,-165.25120368215153,148.2219554177879,0,-42.882537841796875,20.39169692993164,-28.788278579711914
0.259988397359848,0.13796871900558472,9.813858985900879,-0.004251176740289341,0.004115855127474016,-0.03292763996811915,1.380063533782959,2019-07-25 15:26:43:010,-165.51814377935668,148.84379817521705,0,-42.882537841796875,20.39169692993164,-28.788278579711914
0.252804160118103,0.080494724214077,9.770753860473633,0.0008100650740174133,0.0006529002087397708,-0.035857832891749264,1.3900437355041504,2019-07-25 15:26:43:020,-165.77850448123343,149.4570280411155,0,-42.882537841796875,20.39169692993164,-28.788278579711914
0.26477789878845215,0.11641597002744675,9.811464309692383,-0.0023865085870904443,-0.0001462432553011296,-0.03639059410663042,1.4000434875488281,2019-07-25 15:26:43:030,-166.03193543560747,150.05563147385442,0,-42.882537841796875,20.39169692993164,-28.788278579711914
0.2815411388874054,0.1259949654340744,9.809069633483887,-0.0018537463319119952,-0.00041262439914499955,-0.03932078703026053,1.410038948059082,2019-07-25 15:26:43:040,-166.27818395929341,150.6408410675891,0,-42.882537841796875,20.39169692993164,-28.788278579711914
0.1953301578760147,0.10204746574163437,9.775543212890625,0.000543683913918898,0.0049149985102416895,-0.03452592569335719,1.4200377464294434,2019-07-25 15:26:43:050,-166.53248563112624,151.21575715995937,0,-40.63345718383789,19.94188117980957,-27.738706588745117
0.2743569016456604,0.11162646859884262,9.773148536682129,0.0013428273291958624,0.0017184247190966692,-0.043316502383652956,1.4300692081451416,2019-07-25 15:26:43:060,-166.7706435561284,151.7775978554677,0,-40.63345718383789,19.94188117980957,-27.738706588745117
0.2480146437883377,0.11641597002744675,9.737227439880371,-0.003452033357521668,-0.0060066282410651695,-0.03745612069758192,1.4400396347045898,2019-07-25 15:26:43:070,-167.0026869069898,152.33027883723003,0,-40.63345718383789,19.94188117980957,-27.738706588745117
0.23125140368938446,0.06612621992826462,9.746806144714355,-0.0005218406614565815,-0.0009453866868327393,-0.042517362641925835,1.4500434398651123,2019-07-25 15:26:43:080,-167.2349193950608,152.87619215572153,0,-40.63345718383789,19.94188117980957,-27.738706588745117
0.20730389654636383,0.11641597002744675,9.732437133789062,-0.0007882218215550968,0.0019848058466858938,-0.04011993093317686,1.4600398540496826,2019-07-25 15:26:43:090,-167.4669304100895,153.4054043561577,0,-40.63345718383789,19.94188117980957,-27.738706588745117
0.24561989307403564,0.11162646859884262,9.777937889099121,-0.0031856519698581177,-0.0049411037307082704,-0.05104155872478103,1.4700627326965332,2019-07-25 15:26:43:100,-167.68603190742363,153.92600771730216,0,-40.63345718383789,19.94188117980957,-27.738706588745117
0.2360409051179886,0.11881071329116821,9.78512191772461,-0.0029192708422688934,-0.0038755792203513722,-0.04091907483609319,1.4801969528198242,2019-07-25 15:26:43:110,-167.90246902142488,154.43523573483043,0,-40.63345718383789,19.94188117980957,-27.738706588745117
0.24561989307403564,0.14275822043418884,9.809069633483887,-0.00212012745950122,0.0019848058466858938,-0.04731222189823458,1.4900238513946533,2019-07-25 15:26:43:120,-168.11682699141824,154.9310247318188,0,-40.63345718383789,19.94188117980957,-27.738706588745117
0.259988397359848,0.09246847033500671,9.830622673034668,-0.0005218406614565815,-0.0038755792203513722,-0.04624669530728308,1.5000441074371338,2019-07-25 15:26:43:130,-168.32201118669994,155.42191948895012,0,-40.63345718383789,19.94188117980957,-27.738706588745117
0.23125140368938446,0.1259949654340744,9.782727241516113,-0.007714131659023586,0.0003865190486412555,-0.04544755140436675,1.510047435760498,2019-07-25 15:26:43:140,-168.52870510144814,155.90305620699533,0,-40.63345718383789,19.94188117980957,-27.738706588745117
0.2360409051179886,0.09246847033500671,9.804280281066895,-0.004517557607804241,-0.0033428169651729235,-0.0481113658011509,1.5200583934783936,2019-07-25 15:26:43:150,-168.72866903207031,156.37672715241573,0,-40.63345718383789,19.94188117980957,-27.738706588745117
0.267172634601593,0.05654722452163696,9.742016792297363,-0.0023865085870904443,-0.0001462432553011296,-0.04651307799531825,1.5300378799438477,2019-07-25 15:26:43:160,-168.92259510062792,156.84387852618204,0,-40.63345718383789,19.94188117980957,-27.738706588745117
0.24322514235973358,0.11881071329116821,9.720463752746582,-0.00558308263830979,-0.006273009368654393,-0.045713934092401924,1.5400395393371582,2019-07-25 15:26:43:170,-169.11195324537894,157.29613083683543,0,-42.58266067504883,20.69157600402832,-28.188522338867188
0.25040939450263977,0.11402121931314468,9.751595497131348,-0.005050319862982691,-0.0006790055592435148,-0.04438202897460446,1.5500524044036865,2019-07-25 15:26:43:180,-169.29991314267937,157.73964952759457,0,-42.58266067504883,20.69157600402832,-28.188522338867188
0.19293540716171265,0.06373147666454315,9.773148536682129,-0.007181369403845137,-0.0012117678144219638,-0.04651307799531825,1.5600671768188477,2019-07-25 15:26:43:190,-169.49061445541773,158.18142232239435,0,-42.58266067504883,20.69157600402832,-28.188522338867188
0.21927765011787415,0.08767896890640259,9.75638484954834,-0.008779655649231834,-0.002277292454816025,-0.04305012385680698,1.570054054260254,2019-07-25 15:26:43:200,-169.67377468936374,158.61241930052324,0,-42.58266067504883,20.69157600402832,-28.188522338867188
0.24322514235973358,0.11641597002744675,9.82583236694336,-0.003718414485110892,-0.0033428169651729235,-0.04438202897460446,1.580040693283081,2019-07-25 15:26:43:210,-169.85006492277515,159.02867989423692,0,-42.58266067504883,20.69157600402832,-28.188522338867188
0.1833564043045044,0.11162646859884262,9.749200820922852,-0.0026528897146796686,0.0003865190486412555,-0.041451836050974335,1.5900378227233887,2019-07-25 15:26:43:220,-170.03173152364056,159.43647552359283,0,-42.58266067504883,20.69157600402832,-28.188522338867188
0.21209339797496796,0.12360021471977234,9.811464309692383,-0.0029192708422688934,0.00012013789667006295,-0.044914790189485604,1.6000621318817139,2019-07-25 15:26:43:230,-170.20639723428744,159.83495422208986,0,-42.58266067504883,20.69157600402832,-28.188522338867188
0.20011965930461884,0.12360021471977234,9.782727241516113,-0.00558308263830979,-0.0041419603479405966,-0.04864412701603205,1.6100389957427979,2019-07-25 15:26:43:240,-170.37651089404594,160.22690543711627,0,-42.58266067504883,20.69157600402832,-28.188522338867188
0.15222465991973877,0.11162646859884262,9.758779525756836,-0.004251176740289341,-0.008137677781927616,-0.03932078703026053,1.6201295852661133,2019-07-25 15:26:43:250,-170.54649659888742,160.6116689199106,0,-42.58266067504883,20.69157600402832,-28.188522338867188
0.19293540716171265,0.13796871900558472,9.792305946350098,-0.005050319862982691,0.0014520435915074442,-0.044914790189485604,1.6300363540649414,2019-07-25 15:26:43:260,-170.7137996125571,160.98610053889962,0,-42.58266067504883,20.69157600402832,-28.188522338867188
0.17138265073299408,0.14036346971988678,9.797096252441406,-0.0023865085870904443,-0.004674722603119046,-0.04438202897460446,1.6401362419128418,2019-07-25 15:26:43:270,-170.87682885450354,161.35131546997172,0,-42.58266067504883,20.69157600402832,-28.188522338867188
0.15940891206264496,0.13557396829128265,9.792305946350098,-0.0018537463319119952,0.00012013789667006295,-0.04171821873900951,1.6500208377838135,2019-07-25 15:26:43:280,-171.0407062481395,161.70945389609545,0,-42.58266067504883,20.69157600402832,-28.188522338867188
0.14264565706253052,0.12360021471977234,9.710885047912598,-0.0026528897146796686,-0.0006790055592435148,-0.04518117287752078,1.6601850986480713,2019-07-25 15:26:43:290,-171.20267316521335,162.06219444600052,0,-42.58266067504883,20.69157600402832,-28.188522338867188
0.13306665420532227,0.1331792175769806,9.758779525756836,-0.004517557607804241,0.0009192813363289952,-0.04651307799531825,1.6700046062469482,2019-07-25 15:26:43:300,-171.36350230099816,162.40780390103353,0,-42.732601165771484,19.94188117980957,-27.438827514648438
0.1498299092054367,0.14275822043418884,9.837806701660156,-0.0005218406614565815,-0.005740247113475944,-0.0438492677597233,1.6799957752227783,2019-07-25 15:26:43:310,-171.5155610019659,162.7433131524558,0,-42.732601165771484,19.94188117980957,-27.438827514648438
0.1833564043045044,0.1451529562473297,9.76596450805664,-0.005050319862982691,-0.002277292454816025,-0.05423813017525712,1.6900367736816406,2019-07-25 15:26:43:320,-171.66245375573467,163.07426360657678,0,-42.732601165771484,19.94188117980957,-27.438827514648438
0.12827716767787933,0.12838971614837646,9.773148536682129,-0.007181369403845137,-0.002810054709994474,-0.04518117287752078,1.7000274658203125,2019-07-25 15:26:43:330,-171.8125884903205,163.40175389912676,0,-42.732601165771484,19.94188117980957,-27.438827514648438
0.15461941063404083,0.1259949654340744,9.789911270141602,-0.0039847956127001165,-0.007072152751422067,-0.0481113658011509,1.710021734237671,2019-07-25 15:26:43:340,-171.95427119268894,163.72120801615392,0,-42.732601165771484,19.94188117980957,-27.438827514648438
0.16659316420555115,0.1331792175769806,9.749200820922852,-0.001320984076733546,0.00118566246391822,-0.05104155872478103,1.720024585723877,2019-07-25 15:26:43:350,-172.09627234510205,164.03187296125287,0,-42.732601165771484,19.94188117980957,-27.438827514648438
0.15940891206264496,0.11881071329116821,9.792305946350098,-0.006648607148666687,-0.006539390496243618,-0.05077517603674584,1.7300426959991455,2019-07-25 15:26:43:360,-172.2320156814427,164.34107265727775,0,-42.732601165771484,19.94188117980957,-27.438827514648438
0.15940891206264496,0.11881071329116821,9.799490928649902,-0.007181369403845137,0.0003865190486412555,-0.04757860042508055,1.740023136138916,2019-07-25 15:26:43:370,-172.36895293891553,164.64438304910504,0,-42.732601165771484,19.94188117980957,-27.438827514648438
0.16659316420555115,0.10923171788454056,9.763568878173828,-0.0031856519698581177,0.004115855127474016,-0.04917688823091319,1.750023365020752,2019-07-25 15:26:43:380,-172.50433442602773,164.94046456226795,0,-42.732601165771484,19.94188117980957,-27.438827514648438
0.1306719183921814,0.11402121931314468,9.830622673034668,-0.0005218406614565815,-0.001744530069600413,-0.05077517603674584,1.7600252628326416,2019-07-25 15:26:43:390,-172.63803700476524,165.2286579469093,0,-42.732601165771484,19.94188117980957,-27.438827514648438
0.16419841349124908,0.12120546400547028,9.746806144714355,-0.0026528897146796686,-0.00041262439914499955,-0.05397175164841114,1.7700281143188477,2019-07-25 15:26:43:400,-172.76574180541132,165.511325618795,0,-42.732601165771484,19.94188117980957,-27.438827514648438
0.15940891206264496,0.10204746574163437,9.782727241516113,-0.003718414485110892,0.00012013789667006295,-0.049443270918948366,1.780041217803955,2019-07-25 15:26:43:410,-172.89182354643805,165.7912366654109,0,-42.732601165771484,19.94188117980957,-27.438827514648438
0.15461941063404083,0.09007371962070465,9.794700622558594,-0.0029192708422688934,0.00012013789667006295,-0.05450451286329229,1.7900257110595703,2019-07-25 15:26:43:420,-173.01596647586945,166.06651082082223,0,-42.882537841796875,19.492063522338867,-27.288888931274414
0.17377740144729614,0.080494724214077,9.763568878173828,-0.0026528897146796686,0.0009192813363289952,-0.05157431993966217,1.8000226020812988,2019-07-25 15:26:43:430,-173.13576967463175,166.3372225678564,0,-42.882537841796875,19.492063522338867,-27.288888931274414
0.18814590573310852,0.12120546400547028,9.742016792297363,-0.005050319862982691,-0.0033428169651729235,-0.05104155872478103,1.8100273609161377,2019-07-25 15:26:43:440,-173.24904827961927,166.59905902138192,0,-42.882537841796875,19.492063522338867,-27.288888931274414
0.20730389654636383,0.09246847033500671,9.732437133789062,-0.0018537463319119952,-0.004408341475529821,-0.05184070262769734,1.820040225982666,2019-07-25 15:26:43:450,-173.35718418860057,166.85723297075907,0,-42.882537841796875,19.492063522338867,-27.288888931274414
0.2360409051179886,0.06373147666454315,9.758779525756836,-0.006382226021077464,-0.0001462432553011296,-0.056369179195970905,1.8300268650054932,2019-07-25 15:26:43:460,-173.46224701910944,167.11618363165675,0,-42.882537841796875,19.492063522338867,-27.288888931274414
0.29112014174461365,0.08528421819210052,9.837806701660156,-0.00212012745950122,-0.00041262439914499955,-0.053172607745494815,1.8400166034698486,2019-07-25 15:26:43:470,-173.55887061450107,167.365115461043,0,-42.882537841796875,19.492063522338867,-27.288888931274414
0.24322514235973358,0.07570522278547287,9.737227439880371,-0.0023865085870904443,-0.006273009368654393,-0.04997603213382952,1.8500242233276367,2019-07-25 15:26:43:480,-173.65555048246677,167.6102450825009,0,-42.882537841796875,19.492063522338867,-27.288888931274414
0.2863306403160095,0.05654722452163696,9.749200820922852,-0.00558308263830979,0.002251186974275118,-0.052107081154543315,1.8600270748138428,2019-07-25 15:26:43:490,-173.75005840069898,167.85452951357996,0,-42.882537841796875,19.492063522338867,-27.288888931274414
0.31027814745903015,0.06852097064256668,9.777937889099121,-0.004517557607804241,-0.0033428169651729235,-0.049443270918948366,1.8700408935546875,2019-07-25 15:26:43:500,-173.83682711430598,168.09194891627493,0,-42.882537841796875,19.492063522338867,-27.288888931274414
0.312672883272171,0.03978397697210312,9.823437690734863,-0.0026528897146796686,0.0003865190486412555,-0.046779460683353424,1.8800251483917236,2019-07-25 15:26:43:510,-173.92384590939562,168.3269563640702,0,-42.882537841796875,19.492063522338867,-27.288888931274414
0.32943612337112427,0.044573474675416946,9.75638484954834,-0.0005218406614565815,-0.0020109111971896377,-0.04731222189823458,1.8900246620178223,2019-07-25 15:26:43:520,-174.00556139307218,168.55547498839348,0,-42.882537841796875,19.492063522338867,-27.288888931274414
0.32943612337112427,0.06612621992826462,9.732437133789062,-0.0026528897146796686,-0.0012117678144219638,-0.04411564628656928,1.9000248908996582,2019-07-25 15:26:43:530,-174.0859961143323,168.7780694100519,0,-42.882537841796875,19.492063522338867,-27.288888931274414
0.32464665174484253,0.10204746574163437,9.777937889099121,-0.0007882218215550968,0.00118566246391822,-0.03905440434222536,1.9100470542907715,2019-07-25 15:26:43:540,-174.16691074905478,168.990992672383,0,-42.882537841796875,19.492063522338867,-27.288888931274414
0.32464665174484253,0.044573474675416946,9.78512191772461,0.0024083519695899235,0.00438223625506324,-0.03932078703026053,1.9200451374053955,2019-07-25 15:26:43:550,-174.24802791801807,169.20460091955982,0,-41.982906341552734,19.791940689086914,-28.188522338867188
0.31746238470077515,0.0996527224779129,9.679753303527832,0.0013428273291958624,-0.0001462432553011296,-0.03718973800954674,1.9307100772857666,2019-07-25 15:26:43:561,-174.32541118724373,169.40790802500678,0,-41.982906341552734,19.791940689086914,-28.188522338867188
0.3150676488876343,0.09007371962070465,9.74441146850586,-0.0039847956127001165,-0.0020109111971896377,-0.04091907483609319,1.940007209777832,2019-07-25 15:26:43:570,-174.40081502933592,169.61123794187404,0,-41.982906341552734,19.791940689086914,-28.188522338867188
0.3150676488876343,0.07570522278547287,9.780332565307617,-0.0005218406614565815,-0.0020109111971896377,-0.03452592569335719,1.9500131607055664,2019-07-25 15:26:43:580,-174.47476669938922,169.8104365223034,0,-41.982906341552734,19.791940689086914,-28.188522338867188
0.27675163745880127,0.10444221645593643,9.734832763671875,0.003740257607536046,-0.0001462432553011296,-0.03425954508591662,1.9600098133087158,2019-07-25 15:26:43:590,-174.5526208062897,169.99983461871048,0,-41.982906341552734,19.791940689086914,-28.188522338867188
0.305488646030426,0.0541524738073349,9.761174201965332,-0.001320984076733546,0.003050330357042792,-0.02893192253413213,1.9700431823730469,2019-07-25 15:26:43:600,-174.62743564444236,170.194224953622,0,-41.982906341552734,19.791940689086914,-28.188522338867188
0.30309388041496277,0.14754770696163177,9.76596450805664,0.005604925760734943,0.0019848058466858938,-0.030530208259370174,1.980302095413208,2019-07-25 15:26:43:610,-174.70047733255527,170.36980022424802,0,-41.982906341552734,19.791940689086914,-28.188522338867188
0.3150676488876343,0.08288946747779846,9.809069633483887,0.003740257607536046,0.0006529002087397708,-0.03559145020371409,1.990018367767334,2019-07-25 15:26:43:620,-174.770029789383,170.5506805704959,0,-41.982906341552734,19.791940689086914,-28.188522338867188
0.2480146437883377,0.09725797176361084,9.794700622558594,-0.0023865085870904443,0.0006529002087397708,-0.02893192253413213,2.000027894973755,2019-07-25 15:26:43:630,-174.8459862613887,170.72963008762147,0,-41.982906341552734,19.791940689086914,-28.188522338867188
0.3198571503162384,0.13557396829128265,9.708490371704102,-0.0010546029491443213,0.0003865190486412555,-0.03292763996811915,2.010023593902588,2019-07-25 15:26:43:640,-174.91154364384192,170.8996283200661,0,-41.982906341552734,19.791940689086914,-28.188522338867188
0.2959096431732178,0.16910046339035034,9.809069633483887,-0.001320984076733546,0.002251186974275118,-0.03905440434222536,2.020021677017212,2019-07-25 15:26:43:650,-174.98001827759904,171.062624636636,0,-41.982906341552734,19.791940689086914,-28.188522338867188
0.25040939450263977,0.1259949654340744,9.773148536682129,-0.0015873652043227706,-0.00041262439914499955,-0.03292763996811915,2.030000686645508,2019-07-25 15:26:43:660,-175.0508322746209,171.22748930557702,0,-41.982906341552734,19.791940689086914,-28.188522338867188
0.2863306403160095,0.09486322104930878,9.742016792297363,0.0029411142247683726,0.0006529002087397708,-0.033460401183000296,2.0400195121765137,2019-07-25 15:26:43:670,-175.11651265406178,171.39012693940572,0,-41.68302917480469,19.492063522338867,-28.188522338867188
0.29112014174461365,0.16431096196174622,9.787516593933105,0.006137688015913392,0.0003865190486412555,-0.036923355321511565,2.050015687942505,2019-07-25 15:26:43:680,-175.18032525169164,171.53964380963325,0,-41.68302917480469,19.492063522338867,-28.188522338867188
0.2863306403160095,0.11162646859884262,9.749200820922852,0.0016092084567850867,-0.0009453866868327393,-0.03665697679466559,2.060051918029785,2019-07-25 15:26:43:690,-175.2425405191258,171.6948241523185,0,-41.68302917480469,19.492063522338867,-28.188522338867188
0.26477789878845215,0.09246847033500671,9.794700622558594,-0.0010546029491443213,0.0006529002087397708,-0.037988881912463066,2.0700623989105225,2019-07-25 15:26:43:700,-175.30708696428968,171.85070256618954,0,-41.68302917480469,19.492063522338867,-28.188522338867188
0.2360409051179886,0.12360021471977234,9.861754417419434,1.0921627247073539e-05,-0.0006790055592435148,-0.03745612069758192,2.0800206661224365,2019-07-25 15:26:43:710,-175.37314332325374,171.99932106906104,0,-41.68302917480469,19.492063522338867,-28.188522338867188
0.2360409051179886,0.09246847033500671,9.74441146850586,-0.0026528897146796686,-0.0030764358375836983,-0.04038631362121203,2.090095043182373,2019-07-25 15:26:43:720,-175.43618786981295,172.14996161317052,0,-41.68302917480469,19.492063522338867,-28.188522338867188
0.22646190226078033,0.08767896890640259,9.787516593933105,-0.001320984076733546,-0.0030764358375836983,-0.041185453362939155,2.100018262863159,2019-07-25 15:26:43:730,-175.49924069004638,172.29743329893,0,-41.68302917480469,19.492063522338867,-28.188522338867188
0.25040939450263977,0.11402121931314468,9.787516593933105,-0.0010546029491443213,-0.0012117678144219638,-0.04065269214805801,2.110013008117676,2019-07-25 15:26:43:740,-175.55926446554582,172.43872755923996,0,-41.68302917480469,19.492063522338867,-28.188522338867188
0.2480146437883377,0.15473195910453796,9.818648338317871,0.0018755895843743117,0.0009192813363289952,-0.04065269214805801,2.120027542114258,2019-07-25 15:26:43:750,-175.61965694269435,172.57084136133764,0,-41.68302917480469,19.492063522338867,-28.188522338867188
0.2623831331729889,0.09486322104930878,9.780332565307617,0.0010764462016066379,-0.0001462432553011296,-0.04038631362121203,2.129990577697754,2019-07-25 15:26:43:760,-175.67644716580293,172.7077080161103,0,-41.68302917480469,19.492063522338867,-28.188522338867188
0.25040939450263977,0.12120546400547028,9.80667495727539,-0.00212012745950122,-0.0001462432553011296,-0.03932078703026053,2.1400275230407715,2019-07-25 15:26:43:770,-175.73358167936829,172.84058649577273,0,-41.68302917480469,19.492063522338867,-28.188522338867188
0.2623831331729889,0.1259949654340744,9.818648338317871,-0.003452033357521668,-0.002810054709994474,-0.044914790189485604,2.1500790119171143,2019-07-25 15:26:43:780,-175.78670913435212,172.97101923464209,0,-41.68302917480469,19.492063522338867,-28.188522338867188
0.21688289940357208,0.11402121931314468,9.773148536682129,-0.001320984076733546,0.00118566246391822,-0.04518117287752078,2.160057783126831,2019-07-25 15:26:43:790,-175.84621363052366,173.09897046221545,0,-41.68302917480469,19.492063522338867,-28.188522338867188
0.2551988959312439,0.11881071329116821,9.770753860473633,-0.004251176740289341,0.0038494739998847904,-0.043316502383652956,2.170057535171509,2019-07-25 15:26:43:800,-175.9015278140976,173.22544457081452,0,-42.58266067504883,20.39169692993164,-28.188522338867188
0.23364615440368652,0.12120546400547028,9.749200820922852,-0.001320984076733546,0.0003865190486412555,-0.04171821873900951,2.180058240890503,2019-07-25 15:26:43:810,-175.9562569211992,173.3474317742467,0,-42.58266067504883,20.39169692993164,-28.188522338867188
0.20730389654636383,0.10444221645593643,9.80667495727539,-0.005050319862982691,-0.0012117678144219638,-0.04464841166263963,2.190051794052124,2019-07-25 15:26:43:820,-176.01223184351318,173.47111338685554,0,-42.58266067504883,20.39169692993164,-28.188522338867188
0.25040939450263977,0.03978397697210312,9.782727241516113,-0.003718414485110892,0.0009192813363289952,-0.044914790189485604,2.200064182281494,2019-07-25 15:26:43:830,-176.0631783152869,173.59912145546275,0,-42.58266067504883,20.39169692993164,-28.188522338867188
0.23125140368938446,0.11162646859884262,9.823437690734863,-0.0005218406614565815,0.0006529002087397708,-0.037988881912463066,2.2100560665130615,2019-07-25 15:26:43:840,-176.11531028648528,173.71441100259597,0,-42.58266067504883,20.39169692993164,-28.188522338867188
0.2096986472606659,0.14275822043418884,9.737227439880371,-0.0007882218215550968,0.00012013789667006295,-0.03878802581537939,2.2200567722320557,2019-07-25 15:26:43:850,-176.16839718738353,173.8237662485792,0,-42.58266067504883,20.39169692993164,-28.188522338867188
0.2025144100189209,0.14275822043418884,9.72764778137207,-0.004251176740289341,-0.002810054709994474,-0.03825526043930904,2.230055332183838,2019-07-25 15:26:43:860,-176.21959890448653,173.93286191793243,0,-42.58266067504883,20.39169692993164,-28.188522338867188
0.15940891206264496,0.09486322104930878,9.737227439880371,-0.0039847956127001165,-0.0009453866868327393,-0.04624669530728308,2.2400593757629395,2019-07-25 15:26:43:870,-176.27591768033932,174.04527951425865,0,-42.58266067504883,20.39169692993164,-28.188522338867188
0.19293540716171265,0.11162646859884262,9.799490928649902,-0.0047839387353934655,-0.001744530069600413,-0.03985354824514169,2.2500600814819336,2019-07-25 15:26:43:880,-176.32686148035748,174.1540076740158,0,-42.58266067504883,20.39169692993164,-28.188522338867188
0.1833564043045044,0.08288946747779846,9.811464309692383,0.0018755895843743117,-0.004408341475529821,-0.04038631362121203,2.260063409805298,2019-07-25 15:26:43:890,-176.37643579917523,174.26019330548831,0,-42.58266067504883,20.39169692993164,-28.188522338867188
0.21448814868927002,0.07809997349977493,9.804280281066895,-0.004517557607804241,-0.0068057716238328425,-0.04011993093317686,2.2700507640838623,2019-07-25 15:26:43:900,-176.42002529767728,174.36839477149664,0,-42.58266067504883,20.39169692993164,-28.188522338867188
0.1570141613483429,0.1068369671702385,9.770753860473633,-0.0007882218215550968,-0.0012117678144219638,-0.041451836050974335,2.280059337615967,2019-07-25 15:26:43:910,-176.47253074108335,174.46894048356222,0,-42.58266067504883,20.39169692993164,-28.188522338867188
0.14504040777683258,0.09246847033500671,9.75638484954834,-0.003718414485110892,-0.0025436735824052492,-0.04544755140436675,2.290053606033325,2019-07-25 15:26:43:920,-176.52461851546255,174.5707879980396,0,-43.482295989990234,18.89230728149414,-28.788278579711914
0.17856690287590027,0.10444221645593643,9.751595497131348,0.0021419707119635363,-0.003609198092762148,-0.04464841166263963,2.3000576496124268,2019-07-25 15:26:43:930,-176.57111761139214,174.66589644249066,0,-43.482295989990234,18.89230728149414,-28.788278579711914
0.19054065644741058,0.09007371962070465,9.720463752746582,-0.00212012745950122,0.0019848058466858938,-0.04011993093317686,2.3100600242614746,2019-07-25 15:26:43:940,-176.61835061363684,174.76315103501065,0,-43.482295989990234,18.89230728149414,-28.788278579711914
0.19054065644741058,0.11641597002744675,9.74441146850586,-0.004251176740289341,-0.0025436735824052492,-0.04225097995389066,2.3200559616088867,2019-07-25 15:26:43:950,-176.66215171814386,174.85658453263684,0,-43.482295989990234,18.89230728149414,-28.788278579711914
0.17856690287590027,0.13078446686267853,9.746806144714355,-0.003452033357521668,-0.0014781489420111885,-0.044914790189485604,2.3300604820251465,2019-07-25 15:26:43:960,-176.70708686814618,174.9460168433251,0,-43.482295989990234,18.89230728149414,-28.788278579711914
0.2096986472606659,0.15473195910453796,9.775543212890625,-0.0029192708422688934,0.0003865190486412555,-0.04358288507168813,2.340055227279663,2019-07-25 15:26:43:970,-176.7485843740232,175.03059822792025,0,-43.482295989990234,18.89230728149414,-28.788278579711914
0.16898790001869202,0.07809997349977493,9.799490928649902,-0.0026528897146796686,-0.003609198092762148,-0.0481113658011509,2.35005521774292,2019-07-25 15:26:43:980,-176.79182727802998,175.1223433322784,0,-43.482295989990234,18.89230728149414,-28.788278579711914
0.17856690287590027,0.09007371962070465,9.823437690734863,-0.0031856519698581177,-0.0033428169651729235,-0.04278374116877181,2.360058069229126,2019-07-25 15:26:43:990,-176.83328546409965,175.21117880377943,0,-43.482295989990234,18.89230728149414,-28.788278579711914
0.19054065644741058,0.12838971614837646,9.83541202545166,-0.0023865085870904443,-0.0038755792203513722,-0.043316502383652956,2.3700528144836426,2019-07-25 15:26:44:000,-176.8722478107281,175.29333681651164,0,-43.482295989990234,18.89230728149414,-28.788278579711914
0.20730389654636383,0.11162646859884262,9.83541202545166,-0.0026528897146796686,-0.0049411037307082704,-0.04358288507168813,2.3800480365753174,2019-07-25 15:26:44:010,-176.90788052999395,175.3759540147461,0,-43.482295989990234,18.89230728149414,-28.788278579711914
0.22646190226078033,0.0996527224779129,9.833017349243164,-0.0029192708422688934,0.00012013789667006295,-0.043316502383652956,2.3900601863861084,2019-07-25 15:26:44:020,-176.94340381170372,175.4584632076818,0,-43.482295989990234,18.89230728149414,-28.788278579711914
0.2288566529750824,0.10444221645593643,9.746806144714355,-0.007714131659023586,-0.0030764358375836983,-0.04198459726585548,2.400055408477783,2019-07-25 15:26:44:030,-176.9759077978612,175.54134472279267,0,-43.482295989990234,18.89230728149414,-28.788278579711914
0.17856690287590027,0.09007371962070465,9.801885604858398,-0.003718414485110892,-0.0014781489420111885,-0.042517362641925835,2.4100558757781982,2019-07-25 15:26:44:040,-177.01468609323564,175.62207579844576,0,-43.482295989990234,18.89230728149414,-28.788278579711914
0.2096986472606659,0.08288946747779846,9.813858985900879,-0.003452033357521668,0.0033167117447063417,-0.04198459726585548,2.420062780380249,2019-07-25 15:26:44:050,-177.05177424189043,175.7018955713861,0,-41.38315200805664,21.591209411621094,-28.788278579711914
0.1953301578760147,0.08288946747779846,9.789911270141602,-0.0047839387353934655,0.0006529002087397708,-0.042517362641925835,2.4300568103790283,2019-07-25 15:26:44:060,-177.08824464976576,175.780840196234,0,-41.38315200805664,21.591209411621094,-28.788278579711914
0.1833564043045044,0.12838971614837646,9.753990173339844,-0.0029192708422688934,0.00118566246391822,-0.04305012385680698,2.4400529861450195,2019-07-25 15:26:44:070,-177.12560676015025,175.85177935776986,0,-41.38315200805664,21.591209411621094,-28.788278579711914
0.23125140368938446,0.1259949654340744,9.794700622558594,-0.0047839387353934655,-0.0038755792203513722,-0.04278374116877181,2.450059175491333,2019-07-25 15:26:44:080,-177.15386727678026,175.92269183847597,0,-41.38315200805664,21.591209411621094,-28.788278579711914
0.2360409051179886,0.10923171788454056,9.840201377868652,-0.003452033357521668,-0.0020109111971896377,-0.04038631362121203,2.4600579738616943,2019-07-25 15:26:44:090,-177.18217867082168,175.99345630174955,0,-41.38315200805664,21.591209411621094,-28.788278579711914
0.2360409051179886,0.14994245767593384,9.801885604858398,-0.007714131659023586,-0.0012117678144219638,-0.041451836050974335,2.4700589179992676,2019-07-25 15:26:44:100,-177.21026496764733,176.0603910031476,0,-41.38315200805664,21.591209411621094,-28.788278579711914
0.2096986472606659,0.0996527224779129,9.80667495727539,-0.00957879955214816,-0.0009453866868327393,-0.0470458392101994,2.4800586700439453,2019-07-25 15:26:44:110,-177.24102917463162,176.1329174556711,0,-41.38315200805664,21.591209411621094,-28.788278579711914
0.2096986472606659,0.1331792175769806,9.780332565307617,-0.0023865085870904443,-0.0001462432553011296,-0.04305012385680698,2.490055799484253,2019-07-25 15:26:44:120,-177.27156085849185,176.19599572470318,0,-41.38315200805664,21.591209411621094,-28.788278579711914
0.20490914583206177,0.12838971614837646,9.751595497131348,-0.00558308263830979,0.0009192813363289952,-0.04438202897460446,2.5000557899475098,2019-07-25 15:26:44:130,-177.3025703675968,176.26012442287012,0,-41.38315200805664,21.591209411621094,-28.788278579711914
0.1833564043045044,0.13557396829128265,9.878517150878906,-0.006914988276255913,-0.00041262439914499955,-0.046779460683353424,2.510059356689453,2019-07-25 15:26:44:140,-177.3350201476413,176.32308037843362,0,-41.38315200805664,21.591209411621094,-28.788278579711914
0.1833564043045044,0.1259949654340744,9.761174201965332,-0.006648607148666687,-0.002277292454816025,-0.04278374116877181,2.5200603008270264,2019-07-25 15:26:44:150,-177.36551828563262,176.38556191675525,0,-41.38315200805664,21.591209411621094,-28.788278579711914
0.21688289940357208,0.09007371962070465,9.78512191772461,-0.0007882218215550968,-0.0025436735824052492,-0.04438202897460446,2.5300521850585938,2019-07-25 15:26:44:160,-177.3913862555515,176.44774485377582,0,-41.38315200805664,21.591209411621094,-28.788278579711914
0.18575115501880646,0.11881071329116821,9.730042457580566,-0.00212012745950122,-0.0009453866868327393,-0.047844983113115726,2.5400516986846924,2019-07-25 15:26:44:170,-177.42115430428612,176.50598860147855,0,-40.93333435058594,20.241758346557617,-28.63833999633789
0.22406715154647827,0.1068369671702385,9.80667495727539,-0.00212012745950122,-0.0033428169651729235,-0.047844983113115726,2.5500574111938477,2019-07-25 15:26:44:180,-177.4446753384425,176.56457649117647,0,-40.93333435058594,20.241758346557617,-28.63833999633789
0.2695674002170563,0.10923171788454056,9.780332565307617,-0.0047839387353934655,-0.0038755792203513722,-0.046779460683353424,2.56005597114563,2019-07-25 15:26:44:190,-177.46203006171086,176.62317311481328,0,-40.93333435058594,20.241758346557617,-28.63833999633789
0.22406715154647827,0.03978397697210312,9.75638484954834,-0.005050319862982691,-0.005740247113475944,-0.04970965360698355,2.570059299468994,2019-07-25 15:26:44:200,-177.48325253794175,176.68887362692993,0,-40.93333435058594,20.241758346557617,-28.63833999633789
0.25040939450263977,0.07809997349977493,9.753990173339844,0.0002773027863296734,0.00012013789667006295,-0.04411564628656928,2.580059289932251,2019-07-25 15:26:44:210,-177.50424287726284,176.74576532587508,0,-40.93333435058594,20.241758346557617,-28.63833999633789
0.2935148775577545,0.12838971614837646,9.809069633483887,-0.01197623022059983,-0.0012117678144219638,-0.04731222189823458,2.590054750442505,2019-07-25 15:26:44:220,-177.51919914222896,176.80257371071312,0,-40.93333435058594,20.241758346557617,-28.63833999633789
0.26477789878845215,0.07809997349977493,9.852174758911133,-0.0039847956127001165,-0.004408341475529821,-0.04438202897460446,2.600050449371338,2019-07-25 15:26:44:230,-177.53555179438484,176.8596750413328,0,-40.93333435058594,20.241758346557617,-28.63833999633789
0.26477789878845215,0.0733104720711708,9.773148536682129,-0.0015873652043227706,0.0009192813363289952,-0.04624669530728308,2.6100621223449707,2019-07-25 15:26:44:240,-177.5543195428188,176.91477828824185,0,-40.93333435058594,20.241758346557617,-28.63833999633789
0.2935148775577545,0.10923171788454056,9.840201377868652,-0.006914988276255913,-0.0014781489420111885,-0.045713934092401924,2.620055913925171,2019-07-25 15:26:44:250,-177.56823329269096,176.9676432893298,0,-40.93333435058594,20.241758346557617,-28.63833999633789
0.305488646030426,0.08767896890640259,9.830622673034668,-0.0031856519698581177,-0.002277292454816025,-0.051307937251626995,2.630056381225586,2019-07-25 15:26:44:260,-177.5799917606628,177.01985913756565,0,-40.93333435058594,20.241758346557617,-28.63833999633789
0.2863306403160095,0.08288946747779846,9.794700622558594,-0.0018537463319119952,-0.0020109111971896377,-0.045980316780437104,2.6400554180145264,2019-07-25 15:26:44:270,-177.59377364509234,177.07080543924613,0,-40.93333435058594,20.241758346557617,-28.63833999633789
0.36296263337135315,0.09007371962070465,9.768359184265137,-0.004251176740289341,-0.0012117678144219638,-0.04225097995389066,2.650059223175049,2019-07-25 15:26:44:280,-177.5986583347014,177.1212111181091,0,-40.93333435058594,20.241758346557617,-28.63833999633789
0.2695674002170563,0.09007371962070465,9.76596450805664,-0.0031856519698581177,-0.003609198092762148,-0.041185453362939155,2.6600546836853027,2019-07-25 15:26:44:290,-177.61303714509424,177.17000608164662,0,-40.93333435058594,20.241758346557617,-28.63833999633789
0.312672883272171,0.08767896890640259,9.694121360778809,-0.0047839387353934655,-0.0009453866868327393,-0.04358288507168813,2.670057535171509,2019-07-25 15:26:44:300,-177.62329801926725,177.21892889239027,0,-42.13284683227539,19.342124938964844,-28.33846092224121
0.2935148775577545,0.11162646859884262,9.78512191772461,-0.0026528897146796686,0.00012013789667006295,-0.04464841166263963,2.680053234100342,2019-07-25 15:26:44:310,-177.6365368644607,177.26296748769073,0,-42.13284683227539,19.342124938964844,-28.33846092224121
0.3318308889865875,0.08528421819210052,9.82583236694336,-0.009046037296969709,-0.0060066282410651695,-0.04065269214805801,2.6900510787963867,2019-07-25 15:26:44:320,-177.64174981175887,177.31284055052544,0,-42.13284683227539,19.342124938964844,-28.33846092224121
0.2863306403160095,0.11402121931314468,9.72764778137207,-0.007714131659023586,0.0003865190486412555,-0.045713934092401924,2.7000584602355957,2019-07-25 15:26:44:330,-177.65541203113392,177.35748734209045,0,-42.13284683227539,19.342124938964844,-28.33846092224121
0.27196213603019714,0.10444221645593643,9.74441146850586,-0.005050319862982691,-0.002810054709994474,-0.03825526043930904,2.710056781768799,2019-07-25 15:26:44:340,-177.66875252551918,177.40089122415748,0,-42.13284683227539,19.342124938964844,-28.33846092224121
0.24561989307403564,0.10444221645593643,9.770753860473633,-0.0029192708422688934,-0.002277292454816025,-0.04305012385680698,2.7200539112091064,2019-07-25 15:26:44:350,-177.6852988703276,177.44226356223245,0,-42.13284683227539,19.342124938964844,-28.33846092224121
0.2480146437883377,0.07809997349977493,9.809069633483887,-0.0010546029491443213,-0.002277292454816025,-0.04278374116877181,2.7300570011138916,2019-07-25 15:26:44:360,-177.70134639473778,177.48488702612258,0,-42.13284683227539,19.342124938964844,-28.33846092224121
0.19772490859031677,0.07091572135686874,9.787516593933105,-0.005050319862982691,-0.007072152751422067,-0.04544755140436675,2.7400476932525635,2019-07-25 15:26:44:370,-177.72020581340087,177.52971977613743,0,-42.13284683227539,19.342124938964844,-28.33846092224121
0.252804160118103,0.06852097064256668,9.792305946350098,-0.006382226021077464,0.0019848058466858938,-0.045713934092401924,2.7500600814819336,2019-07-25 15:26:44:380,-177.73734045557336,177.57469509859652,0,-42.13284683227539,19.342124938964844,-28.33846092224121
0.15940891206264496,0.11881071329116821,9.830622673034668,-0.007447750531434362,-0.004674722603119046,-0.04038631362121203,2.7600550651550293,2019-07-25 15:26:44:390,-177.7613900944579,177.61353239460624,0,-42.13284683227539,19.342124938964844,-28.33846092224121
0.21688289940357208,0.12838971614837646,9.718069076538086,-0.0047839387353934655,-0.002810054709994474,-0.04091907483609319,2.7700557708740234,2019-07-25 15:26:44:400,-177.7790146253861,177.64880979353083,0,-42.13284683227539,19.342124938964844,-28.33846092224121
0.18096165359020233,0.11641597002744675,9.856964111328125,-0.0047839387353934655,0.0017184247190966692,-0.04091907483609319,2.780060291290283,2019-07-25 15:26:44:410,-177.80336443418378,177.68498774581496,0,-42.13284683227539,19.342124938964844,-28.33846092224121
0.252804160118103,0.08288946747779846,9.871333122253418,-0.003718414485110892,-0.0041419603479405966,-0.04065269214805801,2.7900643348693848,2019-07-25 15:26:44:420,-177.81563009414953,177.72375470630956,0,-41.233211517333984,19.342124938964844,-28.038583755493164
0.23843564093112946,0.11641597002744675,9.787516593933105,-0.0031856519698581177,-0.0012117678144219638,-0.04518117287752078,2.8000547885894775,2019-07-25 15:26:44:430,-177.83072737834655,177.75743738629413,0,-41.233211517333984,19.342124938964844,-28.038583755493164
0.24322514235973358,0.080494724214077,9.775543212890625,-0.0026528897146796686,0.00012013789667006295,-0.04305012385680698,2.810054063796997,2019-07-25 15:26:44:440,-177.84567465603388,177.7943425287404,0,-41.233211517333984,19.342124938964844,-28.038583755493164
0.21688289940357208,0.13557396829128265,9.775543212890625,-0.0031856519698581177,0.0014520435915074442,-0.04225097995389066,2.8200576305389404,2019-07-25 15:26:44:450,-177.86415734489756,177.82435372730305,0,-41.233211517333984,19.342124938964844,-28.038583755493164
0.23125140368938446,0.11402121931314468,9.861754417419434,-0.006115844893488239,-0.0006790055592435148,-0.04225097995389066,2.8300421237945557,2019-07-25 15:26:44:460,-177.8796275143476,177.85804692530328,0,-41.233211517333984,19.342124938964844,-28.038583755493164
0.2288566529750824,0.1331792175769806,9.83541202545166,-0.004251176740289341,-0.0025436735824052492,-0.04091907483609319,2.8400614261627197,2019-07-25 15:26:44:470,-177.89394485222525,177.88776197379096,0,-41.233211517333984,19.342124938964844,-28.038583755493164
0.21688289940357208,0.11881071329116821,9.792305946350098,-0.0026528897146796686,-0.0001462432553011296,-0.04438202897460446,2.8500566482543945,2019-07-25 15:26:44:480,-177.91060794913406,177.91759282705004,0,-41.233211517333984,19.342124938964844,-28.038583755493164
0.22646190226078033,0.07570522278547287,9.782727241516113,-0.004251176740289341,-0.0025436735824052492,-0.045980316780437104,2.860053300857544,2019-07-25 15:26:44:490,-177.92444575444492,177.9527595246352,0,-41.233211517333984,19.342124938964844,-28.038583755493164
0.2791464030742645,0.09486322104930878,9.830622673034668,-0.005050319862982691,-0.004408341475529821,-0.04091907483609319,2.8700475692749023,2019-07-25 15:26:44:500,-177.93095276391628,177.98548098097632,0,-41.233211517333984,19.342124938964844,-28.038583755493164
0.24083039164543152,0.1068369671702385,9.761174201965332,-0.004251176740289341,0.0003865190486412555,-0.04917688823091319,2.880060911178589,2019-07-25 15:26:44:510,-177.94428441606826,178.01561992324312,0,-41.233211517333984,19.342124938964844,-28.038583755493164
0.25759363174438477,0.09246847033500671,9.737227439880371,-0.008779655649231834,-0.0009453866868327393,-0.0481113658011509,2.890059471130371,2019-07-25 15:26:44:520,-177.9545603982456,178.04935484990204,0,-41.233211517333984,19.342124938964844,-28.038583755493164
0.25040939450263977,0.11402121931314468,9.749200820922852,-0.003452033357521668,-0.0012117678144219638,-0.04011993093317686,2.9000535011291504,2019-07-25 15:26:44:530,-177.9653626808812,178.07690352867616,0,-41.233211517333984,19.342124938964844,-28.038583755493164
0.21688289940357208,0.13557396829128265,9.804280281066895,-0.001320984076733546,-0.0041419603479405966,-0.04358288507168813,2.9100570678710938,2019-07-25 15:26:44:540,-177.9783839452146,178.1002626980232,0,-41.233211517333984,19.342124938964844,-28.038583755493164
0.2791464030742645,0.09486322104930878,9.782727241516113,-0.0018537463319119952,-0.002810054709994474,-0.04917688823091319,2.920058012008667,2019-07-25 15:26:44:550,-177.98454887992332,178.12818680970412,0,-41.233211517333984,19.94188117980957,-28.038583755493164
0.267172634601593,0.07809997349977493,9.71567440032959,-0.00212012745950122,-0.002810054709994474,-0.0481113658011509,2.9300601482391357,2019-07-25 15:26:44:560,-177.9917759761861,178.15760247053012,0,-41.233211517333984,19.94188117980957,-28.038583755493164
0.28393590450286865,0.08528421819210052,9.758779525756836,-0.005050319862982691,-0.001744530069600413,-0.04544755140436675,2.9400510787963867,2019-07-25 15:26:44:570,-177.99763028826138,178.18726943208787,0,-41.233211517333984,19.94188117980957,-28.038583755493164
0.2863306403160095,0.1068369671702385,9.74441146850586,-0.005050319862982691,0.002517568101864343,-0.051307937251626995,2.950066328048706,2019-07-25 15:26:44:580,-178.0054314510802,178.21380088972464,0,-41.233211517333984,19.94188117980957,-28.038583755493164
0.24322514235973358,0.09007371962070465,9.718069076538086,-0.0029192708422688934,0.0014520435915074442,-0.044914790189485604,2.9600212574005127,2019-07-25 15:26:44:590,-178.01746032428485,178.24053582436753,0,-41.233211517333984,19.94188117980957,-28.038583755493164
0.2791464030742645,0.08767896890640259,9.742016792297363,-0.0010546029491443213,0.0027839492294535677,-0.04651307799531825,2.970062017440796,2019-07-25 15:26:44:600,-178.0258547479331,178.2660066215875,0,-41.233211517333984,19.94188117980957,-28.038583755493164
0.26477789878845215,0.10444221645593643,9.710885047912598,-0.001320984076733546,-0.002277292454816025,-0.05104155872478103,2.980060338973999,2019-07-25 15:26:44:610,-178.03282226884866,178.28910405397974,0,-41.233211517333984,19.94188117980957,-28.038583755493164
0.2935148775577545,0.09725797176361084,9.763568878173828,-0.0018537463319119952,-0.0012117678144219638,-0.04970965360698355,2.9900574684143066,2019-07-25 15:26:44:620,-178.03704718039768,178.31294810309626,0,-41.233211517333984,19.94188117980957,-28.038583755493164
0.2935148775577545,0.10923171788454056,9.742016792297363,-0.0002554595176127117,-0.001744530069600413,-0.045713934092401924,3.00005841255188,2019-07-25 15:26:44:630,-178.04081201914016,178.33398463050017,0,-41.233211517333984,19.94188117980957,-28.038583755493164
0.2815411388874054,0.07570522278547287,9.710885047912598,-0.0018537463319119952,-0.0041419603479405966,-0.04864412701603205,3.010056734085083,2019-07-25 15:26:44:640,-178.04445701021268,178.3594123610323,0,-41.233211517333984,19.94188117980957,-28.038583755493164
0.2360409051179886,0.11402121931314468,9.801885604858398,-0.003718414485110892,0.003583092872295566,-0.04757860042508055,3.0200588703155518,2019-07-25 15:26:44:650,-178.05799054202967,178.3809830908348,0,-41.233211517333984,19.94188117980957,-28.038583755493164
0.267172634601593,0.06852097064256668,9.852174758911133,-0.00212012745950122,-0.0033428169651729235,-0.048377744327996866,3.0300564765930176,2019-07-25 15:26:44:660,-178.06388671032494,178.40658398354674,0,-41.233211517333984,19.94188117980957,-28.038583755493164
0.2863306403160095,0.08528421819210052,9.761174201965332,-0.006115844893488239,-0.0012117678144219638,-0.0481113658011509,3.0401103496551514,2019-07-25 15:26:44:670,-178.06832068058694,178.43189313439797,0,-41.233211517333984,19.64200210571289,-28.938217163085938
0.26477789878845215,0.0733104720711708,9.68693733215332,-0.005316700990571915,0.0033167117447063417,-0.04757860042508055,3.050049066543579,2019-07-25 15:26:44:680,-178.07749109662578,178.45755020538124,0,-41.233211517333984,19.64200210571289,-28.938217163085938
0.26477789878845215,0.08288946747779846,9.813858985900879,-0.00558308263830979,-0.002810054709994474,-0.04464841166263963,3.060065746307373,2019-07-25 15:26:44:690,-178.08345149869447,178.4818609620548,0,-41.233211517333984,19.64200210571289,-28.938217163085938
0.2791464030742645,0.10204746574163437,9.713279724121094,-0.0026528897146796686,-0.0006790055592435148,-0.048910509704067226,3.070060968399048,2019-07-25 15:26:44:700,-178.08847840181372,178.50167410839515,0,-41.233211517333984,19.64200210571289,-28.938217163085938
0.24083039164543152,0.0541524738073349,9.76596450805664,-0.00558308263830979,0.00118566246391822,-0.04757860042508055,3.08005690574646,2019-07-25 15:26:44:710,-178.0991215585631,178.5284201855688,0,-41.233211517333984,19.64200210571289,-28.938217163085938
0.23364615440368652,0.09725797176361084,9.818648338317871,-0.0023865085870904443,0.0049149985102416895,-0.04225097995389066,3.090050458908081,2019-07-25 15:26:44:720,-178.11263386447058,178.5478405194124,0,-41.233211517333984,19.64200210571289,-28.938217163085938
0.2288566529750824,0.09486322104930878,9.818648338317871,-0.0023865085870904443,0.0003865190486412555,-0.045713934092401924,3.1000630855560303,2019-07-25 15:26:44:730,-178.1238939060227,178.56715446247327,0,-41.233211517333984,19.64200210571289,-28.938217163085938
0.21448814868927002,0.04936297610402107,9.74441146850586,0.0002773027863296734,0.0017184247190966692,-0.04544755140436675,3.1100518703460693,2019-07-25 15:26:44:740,-178.13716070366468,178.58985094415934,0,-41.233211517333984,19.64200210571289,-28.938217163085938
0.2743569016456604,0.11162646859884262,9.76596450805664,0.0021419707119635363,0.0017184247190966692,-0.04358288507168813,3.1200547218322754,2019-07-25 15:26:44:750,-178.14319872134922,178.6037534485187,0,-41.233211517333984,19.64200210571289,-28.938217163085938
0.23843564093112946,0.0996527224779129,9.789911270141602,-0.0010546029491443213,0.00012013789667006295,-0.03612421141859524,3.1300575733184814,2019-07-25 15:26:44:760,-178.15249869030433,178.62060669227807,0,-41.233211517333984,19.64200210571289,-28.938217163085938
0.2025144100189209,0.13078446686267853,9.816253662109375,-0.004251176740289341,0.0009192813363289952,-0.03825526043930904,3.1400580406188965,2019-07-25 15:26:44:770,-178.16632743534322,178.63531527569458,0,-41.233211517333984,19.64200210571289,-28.938217163085938
0.2216724008321762,0.10923171788454056,9.787516593933105,-0.006382226021077464,-0.0001462432553011296,-0.03878802581537939,3.1500604152679443,2019-07-25 15:26:44:780,-178.176969938499,178.6534051902537,0,-41.233211517333984,19.64200210571289,-28.938217163085938
0.2480146437883377,0.080494724214077,9.80667495727539,-0.004251176740289341,0.00118566246391822,-0.04198459726585548,3.1600546836853027,2019-07-25 15:26:44:790,-178.18512142905618,178.6733171048185,0,-41.233211517333984,19.64200210571289,-28.938217163085938
0.18096165359020233,0.12120546400547028,9.753990173339844,-0.0029192708422688934,-0.0006790055592435148,-0.03905440434222536,3.170053720474243,2019-07-25 15:26:44:800,-178.1997805279735,178.68725107730484,0,-41.982906341552734,20.091819763183594,-28.488401412963867
0.19772490859031677,0.14036346971988678,9.70370101928711,-0.0007882218215550968,-0.0025436735824052492,-0.04011993093317686,3.1804888248443604,2019-07-25 15:26:44:811,-178.21094828695175,178.69739345201427,0,-41.982906341552734,20.091819763183594,-28.488401412963867
0.2216724008321762,0.0996527224779129,9.768359184265137,-0.0029192708422688934,0.00118566246391822,-0.03985354824514169,3.190046787261963,2019-07-25 15:26:44:820,-178.22136595468734,178.7133225452946,0,-41.982906341552734,20.091819763183594,-28.488401412963867
0.22646190226078033,0.1523372083902359,9.794700622558594,-0.0010546029491443213,0.0019848058466858938,-0.042517362641925835,3.200044631958008,2019-07-25 15:26:44:830,-178.23156302677816,178.72182710969818,0,-41.982906341552734,20.091819763183594,-28.488401412963867
0.2288566529750824,0.08767896890640259,9.753990173339844,-0.003452033357521668,-0.003609198092762148,-0.043316502383652956,3.2100377082824707,2019-07-25 15:26:44:840,-178.23802506729913,178.73902713843535,0,-41.982906341552734,20.091819763183594,-28.488401412963867
0.23364615440368652,0.09007371962070465,9.768359184265137,-0.0010546029491443213,-0.0012117678144219638,-0.04065269214805801,3.2200491428375244,2019-07-25 15:26:44:850,-178.2451798308238,178.75427328028388,0,-41.982906341552734,20.091819763183594,-28.488401412963867
0.21688289940357208,0.06133672222495079,9.775543212890625,0.000543683913918898,-0.0006790055592435148,-0.04411564628656928,3.2300398349761963,2019-07-25 15:26:44:860,-178.25447589906182,178.7716928590833,0,-41.982906341552734,20.091819763183594,-28.488401412963867
0.21927765011787415,0.09486322104930878,9.751595497131348,-0.0010546029491443213,0.0014520435915074442,-0.04011993093317686,3.2400670051574707,2019-07-25 15:26:44:870,-178.2644408158158,178.78570568893147,0,-41.982906341552734,20.091819763183594,-28.488401412963867
0.23843564093112946,0.07091572135686874,9.789911270141602,0.0013428273291958624,0.0006529002087397708,-0.03932078703026053,3.250065803527832,2019-07-25 15:26:44:880,-178.27161502490742,178.80093708312185,0,-41.982906341552734,20.091819763183594,-28.488401412963867
0.25759363174438477,0.11162646859884262,9.775543212890625,0.0008100650740174133,-0.001744530069600413,-0.04278374116877181,3.260063886642456,2019-07-25 15:26:44:890,-178.27501452542538,178.8113789906241,0,-41.982906341552734,20.091819763183594,-28.488401412963867
0.252804160118103,0.06612621992826462,9.753990173339844,0.0008100650740174133,0.002251186974275118,-0.04411564628656928,3.2700555324554443,2019-07-25 15:26:44:900,-178.2810839961019,178.82692843699965,0,-41.982906341552734,20.091819763183594,-28.488401412963867
0.21927765011787415,0.09007371962070465,9.763568878173828,0.0013428273291958624,-0.001744530069600413,-0.04091907483609319,3.2800614833831787,2019-07-25 15:26:44:910,-178.28875066448987,178.83906408945086,0,-41.982906341552734,20.091819763183594,-28.488401412963867
0.21448814868927002,0.09007371962070465,9.811464309692383,-0.00212012745950122,-0.002277292454816025,-0.04438202897460446,3.2900607585906982,2019-07-25 15:26:44:920,-178.29665020785274,178.85295343755962,0,-41.83296585083008,20.241758346557617,-27.738706588745117
0.27675163745880127,0.17388996481895447,9.739622116088867,-0.0005218406614565815,0.0003865190486412555,-0.03905440434222536,3.3000686168670654,2019-07-25 15:26:44:930,-178.29838193952548,178.85573075525375,0,-41.83296585083008,20.241758346557617,-27.738706588745117
0.21927765011787415,0.11402121931314468,9.780332565307617,-0.0010546029491443213,-0.0014781489420111885,-0.04091907483609319,3.3100547790527344,2019-07-25 15:26:44:940,-178.30589804267197,178.8658487537787,0,-41.83296585083008,20.241758346557617,-27.738706588745117
0.23364615440368652,0.1068369671702385,9.804280281066895,-0.00558308263830979,-0.002277292454816025,-0.04065269214805801,3.320040225982666,2019-07-25 15:26:44:950,-178.31120005851824,178.87917559395316,0,-41.83296585083008,20.241758346557617,-27.738706588745117
0.2360409051179886,0.10444221645593643,9.734832763671875,-0.0031856519698581177,0.0006529002087397708,-0.0438492677597233,3.330064535140991,2019-07-25 15:26:44:960,-178.31756393013038,178.89109144300153,0,-41.83296585083008,20.241758346557617,-27.738706588745117
0.2096986472606659,0.10444221645593643,9.763568878173828,-0.004517557607804241,-0.0025436735824052492,-0.04171821873900951,3.3400871753692627,2019-07-25 15:26:44:970,-178.32517334246515,178.90355441302862,0,-41.83296585083008,20.241758346557617,-27.738706588745117
0.1953301578760147,0.12120546400547028,9.782727241516113,-0.001320984076733546,-0.0030764358375836983,-0.04225097995389066,3.3500940799713135,2019-07-25 15:26:44:980,-178.33406399402804,178.9120286958533,0,-41.83296585083008,20.241758346557617,-27.738706588745117
0.20490914583206177,0.1331792175769806,9.811464309692383,-0.0031856519698581177,-0.0020109111971896377,-0.03958716971829571,3.3600425720214844,2019-07-25 15:26:44:990,-178.34233082141182,178.9200141314728,0,-41.83296585083008,20.241758346557617,-27.738706588745117
0.1761721521615982,0.17388996481895447,9.742016792297363,-0.0018537463319119952,-0.004674722603119046,-0.04225097995389066,3.3700480461120605,2019-07-25 15:26:45:000,-178.35213773031157,178.92220346545088,0,-41.83296585083008,20.241758346557617,-27.738706588745117
0.19772490859031677,0.14036346971988678,9.730042457580566,-0.006115844893488239,-0.003609198092762148,-0.04464841166263963,3.380044937133789,2019-07-25 15:26:45:010,-178.35978601545483,178.9306627853438,0,-41.83296585083008,20.241758346557617,-27.738706588745117
0.22646190226078033,0.1451529562473297,9.730042457580566,-0.006648607148666687,0.00012013789667006295,-0.0470458392101994,3.390066385269165,2019-07-25 15:26:45:020,-178.36599209554564,178.93869719813898,0,-41.83296585083008,20.241758346557617,-27.738706588745117
0.22646190226078033,0.11641597002744675,9.768359184265137,-0.004517557607804241,-0.001744530069600413,-0.043316502383652956,3.4000449180603027,2019-07-25 15:26:45:030,-178.37113356364316,178.94879842693507,0,-41.83296585083008,20.241758346557617,-27.738706588745117
0.22646190226078033,0.07809997349977493,9.746806144714355,-0.0031856519698581177,-0.00041262439914499955,-0.041451836050974335,3.4100451469421387,2019-07-25 15:26:45:040,-178.37685924390442,178.96242935268384,0,-41.83296585083008,20.241758346557617,-27.738706588745117
0.23843564093112946,0.09486322104930878,9.722858428955078,1.0921627247073539e-05,-0.0001462432553011296,-0.04464841166263963,3.4200456142425537,2019-07-25 15:26:45:050,-178.38114404925798,178.97199460843203,0,-40.93333435058594,19.64200210571289,-27.13895034790039
0.22406715154647827,0.13078446686267853,9.773148536682129,-0.007181369403845137,-0.0009453866868327393,-0.044914790189485604,3.4300453662872314,2019-07-25 15:26:45:060,-178.3867227571139,178.98125319562337,0,-40.93333435058594,19.64200210571289,-27.13895034790039
0.2025144100189209,0.12360021471977234,9.813858985900879,-0.0018537463319119952,-0.0033428169651729235,-0.03825526043930904,3.4400641918182373,2019-07-25 15:26:45:070,-178.39346453463455,178.98823954683817,0,-40.93333435058594,19.64200210571289,-27.13895034790039
0.20490914583206177,0.12120546400547028,9.76596450805664,-0.0039847956127001165,-0.00893682064454664,-0.04278374116877181,3.450033664703369,2019-07-25 15:26:45:080,-178.39655251406674,178.99648414545317,0,-40.93333435058594,19.64200210571289,-27.13895034790039
0.18575115501880646,0.1259949654340744,9.76596450805664,-0.004517557607804241,-0.002277292454816025,-0.04225097995389066,3.4600486755371094,2019-07-25 15:26:45:090,-178.40554786645086,179.00431173623852,0,-40.93333435058594,19.64200210571289,-27.13895034790039
0.2360409051179886,0.09007371962070465,9.801885604858398,-0.004517557607804241,-0.0060066282410651695,-0.03932078703026053,3.4700474739074707,2019-07-25 15:26:45:100,-178.40647494127404,179.01623178702604,0,-40.93333435058594,19.64200210571289,-27.13895034790039
0.23364615440368652,0.11881071329116821,9.840201377868652,-0.0029192708422688934,-0.003609198092762148,-0.04358288507168813,3.48006010055542,2019-07-25 15:26:45:110,-178.40911276740914,179.02371326085884,0,-40.93333435058594,19.64200210571289,-27.13895034790039
0.21688289940357208,0.09725797176361084,9.753990173339844,-0.005050319862982691,0.0014520435915074442,-0.04438202897460446,3.4900341033935547,2019-07-25 15:26:45:120,-178.41626813373054,179.03464171559634,0,-40.93333435058594,19.64200210571289,-27.13895034790039
0.267172634601593,0.0541524738073349,9.818648338317871,-0.00212012745950122,0.0019848058466858938,-0.04278374116877181,3.5000479221343994,2019-07-25 15:26:45:130,-178.4178852641807,179.04882100788325,0,-40.93333435058594,19.64200210571289,-27.13895034790039
0.259988397359848,0.051757726818323135,9.830622673034668,0.000543683913918898,-0.0012117678144219638,-0.0438492677597233,3.5100460052490234,2019-07-25 15:26:45:140,-178.41854855889594,179.0615062370926,0,-40.93333435058594,19.64200210571289,-27.13895034790039
0.2887254059314728,0.08288946747779846,9.78512191772461,-0.0029192708422688934,-0.005740247113475944,-0.04091907483609319,3.520061492919922,2019-07-25 15:26:45:150,-178.41314722138787,179.07221103401758,0,-40.93333435058594,19.64200210571289,-27.13895034790039
0.24561989307403564,0.07091572135686874,9.849780082702637,0.0013428273291958624,0.002251186974275118,-0.03905440434222536,3.530045509338379,2019-07-25 15:26:45:160,-178.41757699255427,179.08176388663597,0,-40.93333435058594,19.64200210571289,-27.13895034790039
0.252804160118103,0.03978397697210312,9.794700622558594,0.0018755895843743117,-0.0001462432553011296,-0.032661259360678575,3.540031671524048,2019-07-25 15:26:45:170,-178.41957359097793,179.0944224870197,0,-41.38315200805664,20.091819763183594,-27.88864517211914
0.27675163745880127,0.058941975235939026,9.777937889099121,-0.0015873652043227706,-0.0014781489420111885,-0.03852164312734421,3.550049066543579,2019-07-25 15:26:45:180,-178.41792572384622,179.10651932930472,0,-41.38315200805664,20.091819763183594,-27.88864517211914
0.2935148775577545,0.13557396829128265,9.782727241516113,0.0016092084567850867,-0.0006790055592435148,-0.04305012385680698,3.560044765472412,2019-07-25 15:26:45:190,-178.41481508353098,179.10760610332218,0,-41.38315200805664,20.091819763183594,-27.88864517211914
0.25759363174438477,0.080494724214077,9.775543212890625,0.0013428273291958624,0.0009192813363289952,-0.04091907483609319,3.570065975189209,2019-07-25 15:26:45:200,-178.41684721638032,179.1152627905061,0,-41.38315200805664,20.091819763183594,-27.88864517211914
0.2743569016456604,0.15473195910453796,9.775543212890625,0.0018755895843743117,-0.0006790055592435148,-0.03772249922442789,3.580040693283081,2019-07-25 15:26:45:210,-178.41597755806364,179.11377047243428,0,-41.38315200805664,20.091819763183594,-27.88864517211914
0.3198571503162384,0.15473195910453796,9.75638484954834,-0.0002554595176127117,0.0006529002087397708,-0.04438202897460446,3.59005069732666,2019-07-25 15:26:45:220,-178.4104702806923,179.1134664544709,0,-41.38315200805664,20.091819763183594,-27.88864517211914
0.2935148775577545,0.11641597002744675,9.799490928649902,1.0921627247073539e-05,0.00118566246391822,-0.04305012385680698,3.6000423431396484,2019-07-25 15:26:45:230,-178.40861379992833,179.1175783929615,0,-41.38315200805664,20.091819763183594,-27.88864517211914
0.3078833818435669,0.14036346971988678,9.753990173339844,-0.007714131659023586,-0.0038755792203513722,-0.04997603213382952,3.6100668907165527,2019-07-25 15:26:45:240,-178.40210138441938,179.12307992784793,0,-41.38315200805664,20.091819763183594,-27.88864517211914
0.2551988959312439,0.11162646859884262,9.737227439880371,-0.0029192708422688934,0.003583092872295566,-0.04757860042508055,3.620034694671631,2019-07-25 15:26:45:250,-178.4060388351216,179.12911614778116,0,-41.38315200805664,20.091819763183594,-27.88864517211914
0.27675163745880127,0.1259949654340744,9.722858428955078,-0.0031856519698581177,-0.0030764358375836983,-0.047844983113115726,3.630045175552368,2019-07-25 15:26:45:260,-178.40358027362842,179.13347576903098,0,-41.38315200805664,20.091819763183594,-27.88864517211914
0.28393590450286865,0.12360021471977234,9.818648338317871,-0.006115844893488239,0.00012013789667006295,-0.05157431993966217,3.6400482654571533,2019-07-25 15:26:45:270,-178.40244776466744,179.13981697153335,0,-41.38315200805664,20.091819763183594,-27.88864517211914
0.252804160118103,0.13078446686267853,9.710885047912598,-0.003452033357521668,0.0017184247190966692,-0.048910509704067226,3.6500439643859863,2019-07-25 15:26:45:280,-178.40553832201314,179.14352605676746,0,-41.38315200805664,20.091819763183594,-27.88864517211914
0.21448814868927002,0.1451529562473297,9.763568878173828,-0.00558308263830979,0.0006529002087397708,-0.053172607745494815,3.660064935684204,2019-07-25 15:26:45:290,-178.4126252590733,179.14676216842787,0,-41.38315200805664,20.091819763183594,-27.88864517211914
0.22406715154647827,0.1068369671702385,9.770753860473633,-0.0058494637658990135,0.003583092872295566,-0.048910509704067226,3.670044183731079,2019-07-25 15:26:45:300,-178.4201064540254,179.15457521765896,0,-41.53308868408203,19.64200210571289,-28.63833999633789
0.2216724008321762,0.14275822043418884,9.782727241516113,-0.00957879955214816,0.0014520435915074442,-0.05104155872478103,3.6800477504730225,2019-07-25 15:26:45:310,-178.42655842352545,179.16014308621928,0,-41.53308868408203,19.64200210571289,-28.63833999633789
0.21209339797496796,0.1259949654340744,9.811464309692383,-0.008246893914202035,-0.0006790055592435148,-0.04864412701603205,3.6900477409362793,2019-07-25 15:26:45:320,-178.43287871459225,179.1668562513225,0,-41.53308868408203,19.64200210571289,-28.63833999633789
0.21927765011787415,0.10204746574163437,9.82583236694336,-0.007447750531434362,-0.0025436735824052492,-0.045713934092401924,3.700063467025757,2019-07-25 15:26:45:330,-178.43722210641016,179.17580697637047,0,-41.53308868408203,19.64200210571289,-28.63833999633789
0.21448814868927002,0.09725797176361084,9.74441146850586,-0.007181369403845137,-0.0006790055592435148,-0.048910509704067226,3.710047960281372,2019-07-25 15:26:45:340,-178.4428778595646,179.18488002691115,0,-41.53308868408203,19.64200210571289,-28.63833999633789
0.16898790001869202,0.08288946747779846,9.780332565307617,-0.00212012745950122,-0.0006790055592435148,-0.04438202897460446,3.720045328140259,2019-07-25 15:26:45:350,-178.45384159414957,179.1926610249791,0,-41.53308868408203,19.64200210571289,-28.63833999633789
0.20730389654636383,0.08767896890640259,9.880911827087402,-0.00558308263830979,-0.004674722603119046,-0.04411564628656928,3.7300479412078857,2019-07-25 15:26:45:360,-178.45810116900554,179.20177542090937,0,-41.53308868408203,19.64200210571289,-28.63833999633789
0.14264565706253052,0.058941975235939026,9.775543212890625,-0.0005218406614565815,-0.001744530069600413,-0.03878802581537939,3.740064859390259,2019-07-25 15:26:45:370,-178.4712378144407,179.21112416715903,0,-41.53308868408203,19.64200210571289,-28.63833999633789
0.13546140491962433,0.03259972855448723,9.792305946350098,-0.0047839387353934655,-0.0038755792203513722,-0.0438492677597233,3.750046730041504,2019-07-25 15:26:45:380,-178.48378991237226,179.22576811649276,0,-41.53308868408203,19.64200210571289,-28.63833999633789
0.18814590573310852,0.10204746574163437,9.787516593933105,-0.0029192708422688934,-0.003609198092762148,-0.04225097995389066,3.760042905807495,2019-07-25 15:26:45:390,-178.4900630510954,179.230944080975,0,-41.53308868408203,19.64200210571289,-28.63833999633789
0.10911916196346283,0.1451529562473297,9.78512191772461,-0.0031856519698581177,-0.0038755792203513722,-0.04198459726585548,3.7700486183166504,2019-07-25 15:26:45:400,-178.50530622255656,179.2311176416262,0,-41.53308868408203,19.64200210571289,-28.63833999633789
0.08038216829299927,0.11641597002744675,9.787516593933105,-0.005316700990571915,0.0014520435915074442,-0.037988881912463066,3.7800471782684326,2019-07-25 15:26:45:410,-178.52660442479086,179.23585092170973,0,-41.53308868408203,19.64200210571289,-28.63833999633789
0.09475066512823105,0.16431096196174622,9.76596450805664,-0.0047839387353934655,-0.006539390496243618,-0.03745612069758192,3.79006290435791,2019-07-25 15:26:45:420,-178.54127722890522,179.23454625497828,0,-41.982906341552734,18.292551040649414,-28.188522338867188
0.0851716697216034,0.13557396829128265,9.830622673034668,-0.0058494637658990135,-0.00041262439914499955,-0.04065269214805801,3.8000428676605225,2019-07-25 15:26:45:430,-178.56029259475417,179.2373309120698,0,-41.982906341552734,18.292551040649414,-28.188522338867188
0.04685567319393158,0.0733104720711708,9.866543769836426,-0.0058494637658990135,-0.005207484858297496,-0.04171821873900951,3.810051441192627,2019-07-25 15:26:45:440,-178.58071839115544,179.24735734126094,0,-41.982906341552734,18.292551040649414,-28.188522338867188
0.03967142477631569,0.10204746574163437,9.775543212890625,-0.006382226021077464,-0.0030764358375836983,-0.04464841166263963,3.820040225982666,2019-07-25 15:26:45:450,-178.6027281800469,179.25402794138338,0,-41.982906341552734,18.292551040649414,-28.188522338867188
0.07559266686439514,0.058941975235939026,9.83541202545166,-0.009312417904410284,-0.00547386598588672,-0.03825526043930904,3.830061674118042,2019-07-25 15:26:45:460,-178.61878639122907,179.2673203097777,0,-41.982906341552734,18.292551040649414,-28.188522338867188
0.020513426512479782,0.03499447554349899,9.883306503295898,-0.006382226021077464,-0.00787129665433839,-0.04198459726585548,3.8400330543518066,2019-07-25 15:26:45:470,-178.63962517346025,179.28148985660218,0,-41.982906341552734,18.292551040649414,-28.188522338867188
0.020513426512479782,0.12838971614837646,9.763568878173828,-0.0039847956127001165,-0.00041262439914499955,-0.03745612069758192,3.85003924369812,2019-07-25 15:26:45:480,-178.6641932536874,179.28303112262827,0,-41.982906341552734,18.292551040649414,-28.188522338867188
0.010934427380561829,-0.005716267507523298,9.87612247467041,-0.010111561807326608,-0.003609198092762148,-0.03852164312734421,3.860048532485962,2019-07-25 15:26:45:490,-178.6876122373454,172.10371665433505,0,-41.982906341552734,18.292551040649414,-28.188522338867188
0.06840842217206955,0.11162646859884262,9.794700622558594,-0.005050319862982691,-0.009469582899725089,-0.04544755140436675,3.8700456619262695,2019-07-25 15:26:45:500,-178.70054115540557,172.25141825723907,0,-41.982906341552734,18.292551040649414,-28.188522338867188
0.08277691900730133,0.11162646859884262,9.713279724121094,-0.003718414485110892,-0.0014781489420111885,-0.03825526043930904,3.880059242248535,2019-07-25 15:26:45:510,-178.71593392908096,172.39531215790848,0,-41.982906341552734,18.292551040649414,-28.188522338867188
0.15940891206264496,0.1714952141046524,9.749200820922852,0.0013428273291958624,-0.0009453866868327393,-0.04065269214805801,3.890045166015625,2019-07-25 15:26:45:520,-178.72234999988285,172.52649760794165,0,-41.982906341552734,18.292551040649414,-28.188522338867188
0.2815411388874054,0.14994245767593384,9.859359741210938,-0.0039847956127001165,-0.003609198092762148,-0.03718973800954674,3.9000494480133057,2019-07-25 15:26:45:530,-178.71316201484453,172.66078017745264,0,-41.982906341552734,18.292551040649414,-28.188522338867188
0.2791464030742645,0.09246847033500671,9.770753860473633,-0.005050319862982691,-0.0049411037307082704,-0.03772249922442789,3.910048484802246,2019-07-25 15:26:45:540,-178.70339518642345,172.7995556551082,0,-41.982906341552734,18.292551040649414,-28.188522338867188
0.3342256247997284,0.07809997349977493,9.710885047912598,-0.003452033357521668,-0.0006790055592435148,-0.03852164312734421,3.9200639724731445,2019-07-25 15:26:45:550,-178.68952129752773,172.936290007295,0,-41.233211517333984,19.64200210571289,-28.33846092224121
0.410857617855072,0.06612621992826462,9.718069076538086,-0.0015873652043227706,0.0014520435915074442,-0.043316502383652956,3.9300336837768555,2019-07-25 15:26:45:560,-178.66812587966177,173.07065559355104,0,-41.233211517333984,19.64200210571289,-28.33846092224121
0.4371998608112335,0.02781022898852825,9.809069633483887,-0.00851327504179126,-0.0014781489420111885,-0.042517362641925835,3.940047025680542,2019-07-25 15:26:45:570,-178.64289147442963,173.21078021255468,0,-41.233211517333984,19.64200210571289,-28.33846092224121
0.516226589679718,0.030204977840185165,9.84738540649414,-0.007714131659023586,-0.0025436735824052492,-0.04091907483609319,3.950047016143799,2019-07-25 15:26:45:580,-178.60858831919546,173.34738121196156,0,-41.233211517333984,19.64200210571289,-28.33846092224121
0.6742801070213318,-0.2859019935131073,9.696516036987305,-0.02422976208970416,-0.0068057716238328425,-0.0481113658011509,3.9600486755371094,2019-07-25 15:26:45:590,-178.5530374328555,166.32781838463413,0,-41.233211517333984,19.64200210571289,-28.33846092224121
0.7197803258895874,0.04217872768640518,9.782727241516113,0.008002355909037966,0.009976239934436956,-0.04997603213382952,3.970065116882324,2019-07-25 15:26:45:600,-178.5034265562006,166.5918206744529,0,-41.233211517333984,19.64200210571289,-28.33846092224121
0.540174126625061,-0.015295266173779964,9.718069076538086,0.0010764462016066379,-0.014530824844069007,-0.04997603213382952,3.980037212371826,2019-07-25 15:26:45:610,-178.46159207227677,159.66118507923392,0,-41.233211517333984,19.64200210571289,-28.33846092224121
0.6623063683509827,0.27925893664360046,9.813858985900879,-0.0015873652043227706,0.0038494739998847904,-0.03372678387103547,3.9900500774383545,2019-07-25 15:26:45:620,-178.4173073453439,160.03625494489282,0,-41.233211517333984,19.64200210571289,-28.33846092224121
0.5521478652954102,0.3367329239845276,9.830622673034668,0.012264453950465557,0.003583092872295566,-0.04225097995389066,4.000045537948608,2019-07-25 15:26:45:630,-178.3866781134885,160.38941025483138,0,-41.233211517333984,19.64200210571289,-28.33846092224121
0.3773311376571655,0.20023220777511597,9.964728355407715,0.013329978460822458,0.0017184247190966692,-0.04225097995389066,4.010061502456665,2019-07-25 15:26:45:640,-178.37653969255786,160.7511022964361,0,-41.233211517333984,19.64200210571289,-28.33846092224121
0.42283138632774353,0.10444221645593643,9.789911270141602,-0.003452033357521668,-0.0068057716238328425,-0.0438492677597233,4.02004861831665,2019-07-25 15:26:45:650,-178.35573043781997,161.12579149842688,0,-41.233211517333984,19.64200210571289,-28.33846092224121
0.3773311376571655,-0.04882176220417023,9.792305946350098,1.0921627247073539e-05,0.0003865190486412555,-0.04518117287752078,4.0300469398498535,2019-07-25 15:26:45:660,-178.3446985993731,154.30898271174127,0,-41.233211517333984,19.64200210571289,-28.33846092224121
0.3006991446018219,0.17388996481895447,9.809069633483887,0.003740257607536046,0.006513285275777036,-0.04518117287752078,4.040052652359009,2019-07-25 15:26:45:670,-178.34634662553316,154.80038965425416,0,-41.68302917480469,19.791940689086914,-28.188522338867188
0.29830437898635864,0.16670571267604828,9.701305389404297,0.01119892944010866,-0.00787129665433839,-0.043316502383652956,4.050045013427734,2019-07-25 15:26:45:680,-178.33977881236498,155.2784091847933,0,-41.68302917480469,19.791940689086914,-28.188522338867188
0.17138265073299408,0.20262695848941803,9.6989107131958,-0.0026528897146796686,-0.0009453866868327393,-0.03878802581537939,4.0600645542144775,2019-07-25 15:26:45:690,-178.35220480164637,155.7503968365551,0,-41.68302917480469,19.791940689086914,-28.188522338867188
0.1833564043045044,0.06373147666454315,9.682147979736328,-0.004251176740289341,0.013439195113245527,-0.048910509704067226,4.0700318813323975,2019-07-25 15:26:45:700,-178.37098387125351,156.23022539963674,0,-41.68302917480469,19.791940689086914,-28.188522338867188
0.20730389654636383,0.08767896890640259,9.840201377868652,0.0013428273291958624,-0.0068057716238328425,-0.045980316780437104,4.080049991607666,2019-07-25 15:26:45:710,-178.37559836477456,156.6946553695971,0,-41.68302917480469,19.791940689086914,-28.188522338867188
0.010934427380561829,0.04936297610402107,9.780332565307617,-0.005050319862982691,-0.008670440037106066,-0.04864412701603205,4.090044975280762,2019-07-25 15:26:45:720,-178.40193926444482,157.15781300868244,0,-41.68302917480469,19.791940689086914,-28.188522338867188
0.020513426512479782,0.051757726818323135,9.75638484954834,-0.004517557607804241,0.0014520435915074442,-0.049443270918948366,4.100068807601929,2019-07-25 15:26:45:730,-178.43230838509055,157.61112035873654,0,-41.68302917480469,19.791940689086914,-28.188522338867188
0.006144927814602852,0.09725797176361084,9.742016792297363,-0.001320984076733546,0.0003865190486412555,-0.04917688823091319,4.110034465789795,2019-07-25 15:26:45:740,-178.4631556980969,158.0481974377315,0,-41.68302917480469,19.791940689086914,-28.188522338867188
0.00853967759758234,0.11881071329116821,9.732437133789062,-0.00212012745950122,-0.010268726802641412,-0.0481113658011509,4.120049476623535,2019-07-25 15:26:45:750,-178.48711257538363,158.47443742095967,0,-41.68302917480469,19.791940689086914,-28.188522338867188
-0.10161881148815155,0.10444221645593643,9.72764778137207,-0.0015873652043227706,0.0009192813363289952,-0.041185453362939155,4.1300458908081055,2019-07-25 15:26:45:760,-171.32985656081206,158.8935368501165,0,-41.68302917480469,19.791940689086914,-28.188522338867188
-0.005828820634633303,-0.005716267507523298,9.775543212890625,-0.015172803751670527,0.005447760765420138,-0.04225097995389066,4.140061378479004,2019-07-25 15:26:45:770,-164.30700634741606,152.12486889275564,0,-41.68302917480469,19.791940689086914,-28.188522338867188
-0.003434071084484458,0.09007371962070465,9.880911827087402,-0.011177086317683507,-0.00787129665433839,-0.04411564628656928,4.150042533874512,2019-07-25 15:26:45:780,-157.41685308522855,152.67818980776255,0,-41.68302917480469,19.791940689086914,-28.188522338867188
-0.06090806424617767,0.13078446686267853,9.761174201965332,-0.003452033357521668,-0.009469582899725089,-0.036923355321511565,4.160045146942139,2019-07-25 15:26:45:790,-150.67034770148567,153.21121227219348,0,-41.68302917480469,19.791940689086914,-28.188522338867188
-0.020197318866848946,0.11162646859884262,9.787516593933105,-0.012242610828040405,-0.0025436735824052492,-0.04038631362121203,4.170050144195557,2019-07-25 15:26:45:800,-144.05787644905402,153.74079708910293,0,-41.38315200805664,18.89230728149414,-28.188522338867188
-0.015407819300889969,0.2768642008304596,9.912043571472168,-0.005050319862982691,-0.0025436735824052492,-0.03665697679466559,4.180046796798706,2019-07-25 15:26:45:810,-137.5770724009617,154.2368164362619,0,-41.38315200805664,18.89230728149414,-28.188522338867188
-0.003434071084484458,0.02541547827422619,9.837806701660156,-0.004251176740289341,-0.017993778982580276,-0.03718973800954674,4.190062999725342,2019-07-25 15:26:45:820,-131.21581110326008,154.7515105965348,0,-41.38315200805664,18.89230728149414,-28.188522338867188
-0.0848555639386177,0.051757726818323135,9.78512191772461,-0.008246893914202035,-0.00547386598588672,-0.04065269214805801,4.200042724609375,2019-07-25 15:26:45:830,-124.9983645568287,155.2550404308054,0,-41.38315200805664,18.89230728149414,-28.188522338867188
-0.08006606251001358,0.07809997349977493,9.76596450805664,-0.016504708869467997,-0.0009453866868327393,-0.03425954508591662,4.210048675537109,2019-07-25 15:26:45:840,-118.90726067176885,155.75004863458602,0,-41.38315200805664,18.89230728149414,-28.188522338867188
-0.020197318866848946,0.17388996481895447,9.900070190429688,0.0016092084567850867,-0.014530824844069007,-0.02946468374901328,4.22004508972168,2019-07-25 15:26:45:850,-112.92329714628069,156.21401903156473,0,-41.38315200805664,18.89230728149414,-28.188522338867188
-0.1303558051586151,0.0014679816085845232,9.811464309692383,-0.0018537463319119952,-0.008670440037106066,-0.02680087351341833,4.230059385299683,2019-07-25 15:26:45:860,-107.07517962278973,156.69060956421018,0,-41.38315200805664,18.89230728149414,-28.188522338867188
-0.041750065982341766,0.08288946747779846,9.797096252441406,-0.0029192708422688934,0.0027839492294535677,-0.02973106643704845,4.240043878555298,2019-07-25 15:26:45:870,-101.34012004940128,157.14873907747693,0,-41.38315200805664,18.89230728149414,-28.188522338867188
0.14264565706253052,0.11881071329116821,9.873727798461914,0.0013428273291958624,-0.004408341475529821,-0.026534492905977754,4.250044822692871,2019-07-25 15:26:45:880,-102.89428825632503,157.5912220751519,0,-41.38315200805664,18.89230728149414,-28.188522338867188
0.267172634601593,0.10204746574163437,9.787516593933105,0.0021419707119635363,-0.009203202292284515,-0.030530208259370174,4.260046720504761,2019-07-25 15:26:45:890,-104.39996130589034,158.02624747881868,0,-41.38315200805664,18.89230728149414,-28.188522338867188
0.34380462765693665,0.05654722452163696,9.787516593933105,-0.00798051278661281,-0.00041262439914499955,-0.03559145020371409,4.270047426223755,2019-07-25 15:26:45:900,-105.87149451379491,158.4635834567531,0,-41.38315200805664,18.89230728149414,-28.188522338867188
0.5569373369216919,0.10444221645593643,9.852174758911133,-0.0031856519698581177,-0.0025436735824052492,-0.03079659094740535,4.2800633907318115,2019-07-25 15:26:45:910,-107.28792504432897,158.88395606639062,0,-41.38315200805664,18.89230728149414,-28.188522338867188
0.4180418848991394,0.24812720715999603,9.852174758911133,-0.0031856519698581177,-0.006273009368654393,-0.028132778631215806,4.2900474071502686,2019-07-25 15:26:45:920,-108.69005619659829,159.2792090189874,0,-43.18241882324219,19.492063522338867,-28.788278579711914
0.4395946264266968,0.12838971614837646,9.706095695495605,-0.007181369403845137,-0.008137677781927616,-0.02786639802377523,4.300048828125,2019-07-25 15:26:45:930,-110.05982139798104,159.6825007505369,0,-43.18241882324219,19.492063522338867,-28.788278579711914
0.38930487632751465,0.13078446686267853,9.696516036987305,0.005072163505556494,0.005447760765420138,-0.02946468374901328,4.310045957565308,2019-07-25 15:26:45:940,-111.41570039811566,160.07054862089106,0,-43.18241882324219,19.492063522338867,-28.788278579711914
0.3725416362285614,0.08288946747779846,9.871333122253418,-0.003452033357521668,-0.007338533879011292,-0.03079659094740535,4.320059537887573,2019-07-25 15:26:45:950,-112.7400341648551,160.46145657928102,0,-43.18241882324219,19.492063522338867,-28.788278579711914
0.2887254059314728,0.08767896890640259,9.758779525756836,-0.0015873652043227706,-0.0068057716238328425,-0.03425954508591662,4.3300464153289795,2019-07-25 15:26:45:960,-114.04752364022609,160.8428222372951,0,-43.18241882324219,19.492063522338867,-28.788278579711914
0.09475066512823105,0.051757726818323135,9.821043014526367,0.0024083519695899235,0.003050330357042792,-0.04065269214805801,4.340046167373657,2019-07-25 15:26:45:970,-115.35723075246032,161.2185745236144,0,-43.18241882324219,19.492063522338867,-28.788278579711914
0.2096986472606659,0.09725797176361084,9.777937889099121,-0.0010546029491443213,0.0038494739998847904,-0.04651307799531825,4.350042819976807,2019-07-25 15:26:45:980,-116.6276752330321,161.58339731879659,0,-43.18241882324219,19.492063522338867,-28.788278579711914
0.042066171765327454,0.13796871900558472,9.792305946350098,-0.0007882218215550968,-0.0030764358375836983,-0.05263984236942447,4.360062837600708,2019-07-25 15:26:45:990,-117.88846821712737,161.93602853152504,0,-43.18241882324219,19.492063522338867,-28.788278579711914
0.11630341410636902,0.10444221645593643,9.804280281066895,-0.00851327504179126,0.0006529002087397708,-0.05263984236942447,4.370043039321899,2019-07-25 15:26:46:000,-119.11747192715178,162.28987203731424,0,-43.18241882324219,19.492063522338867,-28.788278579711914
0.2096986472606659,0.0996527224779129,9.828227996826172,0.000543683913918898,0.003583092872295566,-0.052107081154543315,4.38004732131958,2019-07-25 15:26:46:010,-120.31268928919724,162.63215064450063,0,-43.18241882324219,19.492063522338867,-28.788278579711914
0.2551988959312439,0.11641597002744675,9.823437690734863,-0.003718414485110892,-0.0014781489420111885,-0.05503727407817343,4.390047073364258,2019-07-25 15:26:46:020,-121.47584298747947,162.9680160400194,0,-43.18241882324219,19.492063522338867,-28.788278579711914
0.305488646030426,0.08528421819210052,9.74441146850586,-0.006914988276255913,-0.0033428169651729235,-0.050242414821864693,4.4000489711761475,2019-07-25 15:26:46:030,-122.60853593457803,163.3025102826502,0,-43.18241882324219,19.492063522338867,-28.788278579711914
0.3270413875579834,0.04696822538971901,9.677358627319336,-0.007181369403845137,0.005447760765420138,-0.05184070262769734,4.410061836242676,2019-07-25 15:26:46:040,-123.72071716222692,163.63493603495402,0,-43.18241882324219,19.492063522338867,-28.788278579711914
0.3845153748989105,0.13078446686267853,9.708490371704102,-0.004251176740289341,0.0019848058466858938,-0.05530365676620862,4.420043706893921,2019-07-25 15:26:46:050,-124.80205373335885,163.94918415701548,0,-42.13284683227539,21.14139175415039,-29.537973403930664
0.5569373369216919,0.03259972855448723,9.737227439880371,-0.0026528897146796686,-0.004674722603119046,-0.04651307799531825,4.43004846572876,2019-07-25 15:26:46:060,-125.8379152952927,164.26785432554192,0,-42.13284683227539,21.14139175415039,-29.537973403930664
0.4443841278553009,-0.03684801235795021,9.586358070373535,-0.00212012745950122,0.004115855127474016,-0.046779460683353424,4.440035343170166,2019-07-25 15:26:46:070,-126.87038307083434,157.38809077051383,0,-42.13284683227539,21.14139175415039,-29.537973403930664
0.42762088775634766,0.05654722452163696,9.852174758911133,-0.003452033357521668,-0.0033428169651729235,-0.0470458392101994,4.450061082839966,2019-07-25 15:26:46:080,-127.88138780620304,157.83569526834097,0,-42.13284683227539,21.14139175415039,-29.537973403930664
0.4850948750972748,0.0733104720711708,9.782727241516113,-0.010111561807326608,-0.004408341475529821,-0.04278374116877181,4.46004319190979,2019-07-25 15:26:46:090,-128.86451333157774,158.27606165329837,0,-42.13284683227539,21.14139175415039,-29.537973403930664
0.4850948750972748,0.058941975235939026,9.746806144714355,0.0018755895843743117,-0.0014781489420111885,-0.03639059410663042,4.470045804977417,2019-07-25 15:26:46:100,-129.82940810128963,158.70255737970828,0,-42.13284683227539,21.14139175415039,-29.537973403930664
0.4252261221408844,0.03499447554349899,9.725253105163574,-0.004517557607804241,0.00118566246391822,-0.041185453362939155,4.480050086975098,2019-07-25 15:26:46:110,-130.78341395110482,159.12692057899957,0,-42.13284683227539,21.14139175415039,-29.537973403930664
0.554542601108551,0.015836479142308235,9.938385963439941,0.011998073343024985,0.0049149985102416895,-0.035857832891749264,4.490045070648193,2019-07-25 15:26:46:120,-131.70663042576294,159.53582266914145,0,-42.13284683227539,21.14139175415039,-29.537973403930664
0.3150676488876343,0.3367329239845276,9.627068519592285,0.015727409129274127,-0.007072152751422067,-0.04038631362121203,4.500065088272095,2019-07-25 15:26:46:130,-132.6310295585638,159.89619243666527,0,-42.13284683227539,21.14139175415039,-29.537973403930664
0.28393590450286865,-0.13982224464416504,9.70370101928711,-0.019168520145360243,-0.0009453866868327393,-0.03425954508591662,4.510043621063232,2019-07-25 15:26:46:140,-133.54435868501537,153.12551912659538,0,-42.13284683227539,21.14139175415039,-29.537973403930664
0.2623831331729889,0.06852097064256668,9.861754417419434,-0.012242610828040405,0.003050330357042792,-0.03186211545776225,4.520047664642334,2019-07-25 15:26:46:150,-134.4447037705864,153.66192386521936,0,-42.13284683227539,21.14139175415039,-29.537973403930664
0.022908175364136696,0.09486322104930878,9.811464309692383,0.01013340492975176,-0.006539390496243618,-0.045713934092401924,4.530046701431274,2019-07-25 15:26:46:160,-135.34946266809112,154.1719169772843,0,-42.13284683227539,21.14139175415039,-29.537973403930664
