ACCELEROMETER X (m/s²),ACCELEROMETER Y (m/s²),ACCELEROMETER Z (m/s²),GYROSCOPE X (rad/s),GYROSCOPE Y (rad/s),GYROSCOPE Z (rad/s),Time since start in ms ,YYYY-MO-DD HH-MI-SS_SSS,Pitch (Deg),Roll (Deg),Heading (Deg),MagX,MagY,MagZ
0.05273478478193283,-0.04999997839331627,9.82120132446289,0.0014416547925500459,0.004247180958356922,-0.002145966493895956,0.0,2019-07-25 12:15:56:063,-3.593847083540153,-3.5941661658425317,0,-45.131622314453125,15.743589401245117,-37.93455505371094
0.05991903319954872,-0.03084198199212551,9.806833267211914,-0.0020213001261841987,0.004779943473609696,-0.004277015644646915,0.01001882553100586,2019-07-25 12:15:56:073,-7.117657753040021,-7.117541915421231,0,-45.131622314453125,15.743589401245117,-37.93455505371094
0.07189278304576874,-0.054789479821920395,9.802042961120605,0.0003761301846652757,0.005845467983966595,-0.002145966493895956,0.020014286041259766,2019-07-25 12:15:56:083,-10.570180798337967,-10.568997037031128,0,-45.131622314453125,15.743589401245117,-37.93455505371094
0.06710328161716461,-0.061973728239536285,9.80922794342041,0.0030399416881225563,0.006644611366734268,0.0005178449445427432,0.030025959014892578,2019-07-25 12:15:56:093,-13.95467358382577,-13.952086327296357,0,-45.131622314453125,15.743589401245117,-37.93455505371094
0.047945283353328705,-0.026052482426166534,9.763727188110352,-0.0028204436389890346,0.00557908685637737,0.0026488941928215744,0.04001951217651367,2019-07-25 12:15:56:103,-17.273083710182345,-17.268404315454937,0,-45.131622314453125,15.743589401245117,-37.93455505371094
0.09823502600193024,-0.08113172650337219,9.845149040222168,-0.0014885378710057496,0.004779943473609696,0.0023825130652323496,0.05002927780151367,2019-07-25 12:15:56:113,-20.518875007436726,-20.51275657417832,0,-45.131622314453125,15.743589401245117,-37.93455505371094
0.04555053263902664,-0.04999997839331627,9.828385353088379,0.000642511344763791,0.0023825130652323496,-0.0029451100067007917,0.060018301010131836,2019-07-25 12:15:56:123,-23.704523006217002,-23.697032245924063,0,-45.131622314453125,15.743589401245117,-37.93455505371094
0.08147177845239639,-0.09789497405290604,9.828385353088379,0.001974417047728495,-0.0008140607909312516,-0.0010804419185204762,0.07001876831054688,2019-07-25 12:15:56:133,-26.820476653498144,-26.812786847241814,0,-45.131622314453125,15.743589401245117,-37.93455505371094
0.055129531770944595,-0.06676322966814041,9.840359687805176,0.000642511344763791,0.0015833695524275135,-0.0029451100067007917,0.08002138137817383,2019-07-25 12:15:56:143,-29.87853661382543,-29.869117476304083,0,-45.131622314453125,15.743589401245117,-37.93455505371094
0.05273478478193283,-0.04999997839331627,9.835570335388184,0.0003761301846652757,0.001050607232230483,-0.0002812985032435118,0.09001851081848145,2019-07-25 12:15:56:153,-32.87541169904663,-32.86612095121772,0,-45.131622314453125,15.743589401245117,-37.93455505371094
0.04555053263902664,-0.05718422681093216,9.854727745056152,-0.003353205894167484,0.006644611366734268,-0.0016132042387175067,0.10000276565551758,2019-07-25 12:15:56:163,-35.81633191638956,-35.80026932337535,0,-45.131622314453125,15.743589401245117,-37.93455505371094
0.062313780188560486,-0.05239472910761833,9.816411972045898,0.00010974903269408318,0.002116131807605963,0.0031816564480000235,0.11001181602478027,2019-07-25 12:15:56:173,-38.69392047783837,-38.678209393397196,0,-45.131622314453125,15.743589401245117,-37.93455505371094
0.040761034935712814,-0.05718422681093216,9.785280227661133,0.0027735605605333316,0.001316988424838289,0.004247180958356922,0.12003111839294434,2019-07-25 12:15:56:183,-41.51600964637773,-41.49950901893559,0,-45.131622314453125,15.743589401245117,-37.93455505371094
0.033576786518096924,-0.033236730843782425,9.804438591003418,0.0014416547925500459,0.0031816564480000235,-0.0005476796633420271,0.12999582290649414,2019-07-25 12:15:56:193,-44.28354529735012,-44.26644086659693,0,-47.08082962036133,13.79438304901123,-38.984127044677734
0.040761034935712814,-0.011683983728289604,9.778096199035645,-0.00015663211927710938,0.004513562346020471,-0.002145966493895956,0.1400294303894043,2019-07-25 12:15:56:203,-46.99564042440416,-46.97965453507643,0,-47.08082962036133,13.79438304901123,-38.984127044677734
0.04315578565001488,-0.073947474360466,9.790069580078125,0.0038390850708902298,0.0023825130652323496,-0.004277015644646915,0.15001678466796875,2019-07-25 12:15:56:213,-49.65201240318701,-49.63355906322865,0,-47.08082962036133,13.79438304901123,-38.984127044677734
0.04555053263902664,-0.054789479821920395,9.814017295837402,-0.0017549189985949741,0.003448037575589248,0.001316988424838289,0.16003966331481934,2019-07-25 12:15:56:223,-52.255594067431545,-52.23350291702607,0,-47.08082962036133,13.79438304901123,-38.984127044677734
0.03836628422141075,-0.040420979261398315,9.763727188110352,-0.001222156743416525,0.0037144187031784726,0.0015833695524275135,0.17002439498901367,2019-07-25 12:15:56:233,-54.808061823638305,-54.78340370358021,0,-47.08082962036133,13.79438304901123,-38.984127044677734
0.055129531770944595,-0.05957897752523422,9.811622619628906,0.0003761301846652757,0.007710135877091167,-0.0013468231111282822,0.18001484870910645,2019-07-25 12:15:56:243,-57.309787083967734,-57.280988382941224,0,-47.08082962036133,13.79438304901123,-38.984127044677734
0.062313780188560486,-0.06436847895383835,9.763727188110352,0.00010974903269408318,-1.491734416091191e-05,-0.003744253389468466,0.19000005722045898,2019-07-25 12:15:56:253,-59.75626964822398,-59.72787567900209,0,-47.08082962036133,13.79438304901123,-38.984127044677734
0.07907702773809433,-0.05239472910761833,9.84993839263916,-0.004152349276935158,0.003448037575589248,-0.00480977815989969,0.20002365112304688,2019-07-25 12:15:56:263,-62.153885478513715,-62.12488572023986,0,-47.08082962036133,13.79438304901123,-38.984127044677734
0.08626127988100052,-0.047605227679014206,9.833174705505371,-0.00015663211927710938,-0.0002812985032435118,-0.004543397032310465,0.21002578735351562,2019-07-25 12:15:56:273,-64.50059752839313,-64.47675237462359,0,-47.08082962036133,13.79438304901123,-38.984127044677734
0.13176152110099792,-0.03563148155808449,9.864306449890137,-0.0020213001261841987,0.004513562346020471,-0.0016132042387175067,0.22001338005065918,2019-07-25 12:15:56:283,-66.79781124584441,-66.7819445622846,0,-47.08082962036133,13.79438304901123,-38.984127044677734
0.10541927814483643,-0.06436847895383835,9.790069580078125,-0.0014885378710057496,0.006910992494323493,-0.0032114911342900165,0.23000621795654297,2019-07-25 12:15:56:293,-69.0533940347146,-69.03793631502204,0,-47.08082962036133,13.79438304901123,-38.984127044677734
0.10541927814483643,-0.04521048069000244,9.797253608703613,-0.005750636042470505,0.003980799830767698,-0.009871020104243606,0.23999834060668945,2019-07-25 12:15:56:303,-71.26222993402806,-71.24866324475957,0,-47.08082962036133,13.79438304901123,-38.984127044677734
0.15810376405715942,-0.07873697578907013,9.811622619628906,-0.0020213001261841987,0.003980799830767698,0.001316988424838289,0.2500267028808594,2019-07-25 12:15:56:313,-73.42076328717667,-73.41335617970755,0,-47.08082962036133,13.79438304901123,-38.984127044677734
0.1533142775297165,-0.05718422681093216,9.816411972045898,-0.0017549189985949741,0.0015833695524275135,-0.0016132042387175067,0.26001667976379395,2019-07-25 12:15:56:323,-75.535340553896,-75.53742935293577,0,-47.08082962036133,13.79438304901123,-38.984127044677734
0.12936677038669586,-0.09310547262430191,9.756543159484863,-0.0006893944232194946,0.0026488941928215744,0.001050607232230483,0.270035982131958,2019-07-25 12:15:56:333,-77.61093060017959,-77.61535792725762,0,-47.08082962036133,13.79438304901123,-38.984127044677734
0.12457727640867233,-0.07873697578907013,9.86191177368164,-0.002287681383810586,0.003448037575589248,0.002116131807605963,0.28000974655151367,2019-07-25 12:15:56:343,-79.64616835462493,-79.65262087441165,0,-47.08082962036133,13.79438304901123,-38.984127044677734
0.11260352283716202,-0.12184246629476547,9.835570335388184,-0.000955775550808719,0.002116131807605963,0.004247180958356922,0.2900197505950928,2019-07-25 12:15:56:353,-81.64131582382106,-81.64483644458366,0,-47.08082962036133,13.79438304901123,-38.984127044677734
0.08147177845239639,-0.07873697578907013,9.802042961120605,-0.0049514926597028315,0.002116131807605963,-0.0032114911342900165,0.30002903938293457,2019-07-25 12:15:56:363,-83.60015451275572,-83.59995226627943,0,-47.08082962036133,13.79438304901123,-38.984127044677734
0.03836628422141075,-0.08592122793197632,9.80922794342041,0.000642511344763791,0.005046324601198921,0.001050607232230483,0.3100159168243408,2019-07-25 12:15:56:373,-85.52649927595908,-85.51827644176437,0,-47.08082962036133,13.79438304901123,-38.984127044677734
0.05752428248524666,-0.1457899659872055,9.893043518066406,0.0009088924723530155,0.004513562346020471,0.001849750680016738,0.3200337886810303,2019-07-25 12:15:56:383,-87.41184519102684,-87.39153647315791,0,-47.08082962036133,13.79438304901123,-38.984127044677734
0.06949803233146667,-0.1266319751739502,9.842754364013672,-0.0017549189985949741,0.002116131807605963,-0.0013468231111282822,0.3300001621246338,2019-07-25 12:15:56:393,-89.25670151410932,-89.22798170668004,0,-47.08082962036133,13.79438304901123,-38.984127044677734
0.06949803233146667,-0.10507921874523163,9.83796501159668,-0.001222156743416525,0.005312705728788145,0.004513562346020471,0.340029239654541,2019-07-25 12:15:56:403,-91.06646431346356,-91.03049478873868,0,-47.08082962036133,13.79438304901123,-38.984127044677734
0.028787286952137947,-0.05239472910761833,9.816411972045898,0.0003761301846652757,0.002116131807605963,0.0031816564480000235,0.35005640983581543,2019-07-25 12:15:56:413,-92.84296599595443,-92.80398044016063,0,-47.08082962036133,13.79438304901123,-38.984127044677734
0.026392536237835884,-0.040420979261398315,9.790069580078125,0.0041054661984794545,0.005046324601198921,0.005312705728788145,0.36003756523132324,2019-07-25 12:15:56:423,-94.58584563441808,-94.54547050198707,0,-47.08082962036133,13.79438304901123,-38.984127044677734
0.03597153350710869,-0.08831597119569778,9.881070137023926,-0.00042301326312097924,0.001849750680016738,0.001316988424838289,0.37021613121032715,2019-07-25 12:15:56:433,-96.29101427163971,-96.24407752830368,0,-47.08082962036133,13.79438304901123,-38.984127044677734
0.047945283353328705,-0.009289233945310116,9.794858932495117,-0.0017549189985949741,0.0031816564480000235,-0.006408064925435037,0.37999582290649414,2019-07-25 12:15:56:443,-97.96133197644895,-97.91714554052895,0,-46.93089294433594,13.644444465637207,-39.13406753540039
0.03118203580379486,-0.08352647721767426,9.794858932495117,0.0027735605605333316,0.003980799830767698,0.002915275320410799,0.3900480270385742,2019-07-25 12:15:56:453,-99.60070419741031,-99.55059645621469,0,-46.93089294433594,13.644444465637207,-39.13406753540039
0.012024038471281528,-0.06676322966814041,9.802042961120605,0.0027735605605333316,0.007710135877091167,0.002915275320410799,0.4000279903411865,2019-07-25 12:15:56:463,-101.2116049908877,-101.1533338696432,0,-46.93089294433594,13.644444465637207,-39.13406753540039
0.062313780188560486,-0.040420979261398315,9.84993839263916,-0.000955775550808719,0.0015833695524275135,-0.002412347751522343,0.41005897521972656,2019-07-25 12:15:56:473,-102.78101538320054,-102.72502642008338,0,-46.93089294433594,13.644444465637207,-39.13406753540039
0.05034003406763077,-0.011683983728289604,9.830780029296875,-0.003353205894167484,0.0005178449445427432,0.001316988424838289,0.4200279712677002,2019-07-25 12:15:56:483,-104.31981715602328,-104.26728697673481,0,-46.93089294433594,13.644444465637207,-39.13406753540039
0.03597153350710869,-0.08592122793197632,9.814017295837402,0.001974417047728495,0.00797651700468039,-0.0013468231111282822,0.43005895614624023,2019-07-25 12:15:56:493,-105.83371336305011,-105.77302112771306,0,-46.93089294433594,13.644444465637207,-39.13406753540039
0.0742875337600708,-0.040420979261398315,9.83796501159668,-0.0038859681493459333,0.003980799830767698,-0.0005476796633420271,0.44002532958984375,2019-07-25 12:15:56:503,-107.31061402559398,-107.25067791080552,0,-46.93089294433594,13.644444465637207,-39.13406753540039
0.07668227702379227,-0.08831597119569778,9.823596000671387,0.0014416547925500459,0.0015833695524275135,0.002915275320410799,0.45007991790771484,2019-07-25 12:15:56:513,-108.75635090594683,-108.69617654002383,0,-46.93089294433594,13.644444465637207,-39.13406753540039
0.05273478478193283,-0.05239472910761833,9.790069580078125,-0.0060170171700597306,0.002915275320410799,0.001050607232230483,0.4600217342376709,2019-07-25 12:15:56:523,-110.17667880480286,-110.1127614399159,0,-46.93089294433594,13.644444465637207,-39.13406753540039
0.08626127988100052,-0.12184246629476547,9.818806648254395,-0.003353205894167484,0.003448037575589248,-0.004010634517057691,0.4700472354888916,2019-07-25 12:15:56:533,-111.56501926733299,-111.49439954799074,0,-46.93089294433594,13.644444465637207,-39.13406753540039
0.10781402885913849,-0.1002897247672081,9.828385353088379,-0.0017549189985949741,0.001316988424838289,-0.002412347751522343,0.4800682067871094,2019-07-25 12:15:56:543,-112.92189012171454,-112.85183148637859,0,-46.93089294433594,13.644444465637207,-39.13406753540039
0.07907702773809433,-0.08352647721767426,9.804438591003418,-0.004152349276935158,0.0002514638006988733,0.003448037575589248,0.48998117446899414,2019-07-25 12:15:56:552,-114.2543501837106,-114.18272150326831,0,-46.93089294433594,13.644444465637207,-39.13406753540039
0.05273478478193283,0.005079264286905527,9.814017295837402,-0.0017549189985949741,-0.0005476796633420271,-1.491734416091191e-05,0.4999880790710449,2019-07-25 12:15:56:562,-115.56279802590608,-108.29867407905788,0,-46.93089294433594,13.644444465637207,-39.13406753540039
0.11499827355146408,-0.04999997839331627,9.818806648254395,0.0027735605605333316,0.001050607232230483,0.001050607232230483,0.5099811553955078,2019-07-25 12:15:56:572,-116.83871117384017,-109.72842161277099,0,-46.93089294433594,13.644444465637207,-39.13406753540039
0.026392536237835884,0.017053011804819107,9.816411972045898,-0.0060170171700597306,0.004779943473609696,-0.0010804419185204762,0.5200150012969971,2019-07-25 12:15:56:583,-118.1015490496026,-103.93245387423065,0,-46.93089294433594,13.644444465637207,-39.13406753540039
0.07907702773809433,0.021842511370778084,9.727806091308594,0.0022407983053548824,0.0026488941928215744,-0.0026787288791115674,0.5300142765045166,2019-07-25 12:15:56:593,-119.3316904049123,-98.25763590943296,0,-46.93089294433594,13.644444465637207,-39.13406753540039
0.019208287820219994,0.01944776251912117,9.991229057312012,0.003572703943301005,0.0071773736219127166,0.002915275320410799,0.5399937629699707,2019-07-25 12:15:56:603,-120.54687537799909,-92.69671564746498,0,-46.93089294433594,13.644444465637207,-39.13406753540039
0.14373527467250824,-0.11705297231674194,9.926569938659668,0.0022407983053548824,-0.004543397032310465,-0.006940827180613486,0.5499930381774902,2019-07-25 12:15:56:613,-121.71679541415445,-94.43052756977353,0,-46.93089294433594,13.644444465637207,-39.13406753540039
0.09823502600193024,-0.06676322966814041,9.816411972045898,0.0014416547925500459,0.005312705728788145,-0.0002812985032435118,0.5600168704986572,2019-07-25 12:15:56:623,-122.87398264192704,-96.13493497150719,0,-46.93089294433594,13.644444465637207,-39.13406753540039
0.13176152110099792,-0.1266319751739502,9.787674903869629,-0.005484254914881281,0.001316988424838289,-0.0018795853663067313,0.570014238357544,2019-07-25 12:15:56:633,-124.00181691630446,-97.79433276489505,0,-46.93089294433594,13.644444465637207,-39.13406753540039
0.09823502600193024,-0.1002897247672081,9.873886108398438,-0.002287681383810586,0.001316988424838289,0.001849750680016738,0.5799908638000488,2019-07-25 12:15:56:642,-125.11111802956674,-99.42552584071464,0,-46.93089294433594,13.644444465637207,-39.13406753540039
0.09344552457332611,-0.09550022333860397,9.823596000671387,0.000642511344763791,-0.0008140607909312516,0.002915275320410799,0.5899853706359863,2019-07-25 12:15:56:652,-126.19753879982702,-101.02623621175273,0,-46.93089294433594,13.644444465637207,-39.13406753540039
0.06470853090286255,-0.033236730843782425,9.833174705505371,0.0033063228157117807,0.006644611366734268,0.003448037575589248,0.6000139713287354,2019-07-25 12:15:56:663,-127.26978889174465,-102.60370004308037,0,-46.93089294433594,13.644444465637207,-39.13406753540039
0.047945283353328705,-0.054789479821920395,9.814017295837402,-0.00015663211927710938,-0.002412347751522343,0.0015833695524275135,0.6100399494171143,2019-07-25 12:15:56:673,-128.31743686726384,-104.1451405391413,0,-46.93089294433594,13.644444465637207,-39.13406753540039
0.06710328161716461,-0.08592122793197632,9.785280227661133,0.0003761301846652757,0.0026488941928215744,0.0037144187031784726,0.6199958324432373,2019-07-25 12:15:56:683,-129.3447108410761,-105.65238635551889,0,-46.93089294433594,13.644444465637207,-39.13406753540039
0.05752428248524666,-0.07873697578907013,9.804438591003418,-0.0017549189985949741,0.0002514638006988733,0.007443754749501942,0.6300888061523438,2019-07-25 12:15:56:693,-130.3512359321431,-107.12914172076201,0,-46.33113479614258,14.244200706481934,-39.13406753540039
0.05752428248524666,0.005079264286905527,9.778096199035645,-0.00042301326312097924,0.004513562346020471,0.002915275320410799,0.6403770446777344,2019-07-25 12:15:56:703,-131.34007730913322,-101.38690976826946,0,-46.33113479614258,14.244200706481934,-39.13406753540039
0.11739302426576614,-0.04999997839331627,9.794858932495117,0.004371847326068679,0.0002514638006988733,0.00557908685637737,0.6500132083892822,2019-07-25 12:15:56:713,-132.29967848962391,-102.95568752173659,0,-46.33113479614258,14.244200706481934,-39.13406753540039
0.04555053263902664,-0.01647348329424858,9.804438591003418,-0.00042301326312097924,0.001050607232230483,0.0037144187031784726,0.6603844165802002,2019-07-25 12:15:56:723,-133.24897295085464,-104.4944020597154,0,-46.33113479614258,14.244200706481934,-39.13406753540039
0.07907702773809433,-0.05239472910761833,9.787674903869629,0.0033063228157117807,0.002116131807605963,0.004779943473609696,0.6701188087463379,2019-07-25 12:15:56:733,-134.1758922054442,-106.00018702391316,0,-46.33113479614258,14.244200706481934,-39.13406753540039
0.07907702773809433,-0.04999997839331627,9.82120132446289,0.000642511344763791,0.005845467983966595,0.002915275320410799,0.6801543235778809,2019-07-25 12:15:56:743,-135.08644191077838,-107.47471149978911,0,-46.33113479614258,14.244200706481934,-39.13406753540039
0.10541927814483643,-0.011683983728289604,9.804438591003418,0.0027735605605333316,0.003448037575589248,0.006910992494323493,0.6900193691253662,2019-07-25 12:15:56:753,-135.97430237479213,-108.92538801216912,0,-46.33113479614258,14.244200706481934,-39.13406753540039
0.12218252569437027,-0.08592122793197632,9.823596000671387,0.0014416547925500459,0.0023825130652323496,0.0002514638006988733,0.6999905109405518,2019-07-25 12:15:56:762,-136.84189847340903,-110.33766500762705,0,-46.33113479614258,14.244200706481934,-39.13406753540039
0.10781402885913849,-0.1266319751739502,9.79964828491211,0.0038390850708902298,0.001849750680016738,0.006111849111555819,0.7099955081939697,2019-07-25 12:15:56:773,-137.69349299973058,-111.7182616210175,0,-46.33113479614258,14.244200706481934,-39.13406753540039
0.08626127988100052,-0.1002897247672081,9.900228500366211,-0.005217873787292057,0.0031816564480000235,0.001849750680016738,0.7200183868408203,2019-07-25 12:15:56:783,-138.5314295447075,-113.0693520811651,0,-46.33113479614258,14.244200706481934,-39.13406753540039
0.10302452743053436,-0.09071072190999985,9.792464256286621,0.00010974903269408318,0.004247180958356922,0.004779943473609696,0.730013370513916,2019-07-25 12:15:56:793,-139.35112904346758,-114.3974119543072,0,-46.33113479614258,14.244200706481934,-39.13406753540039
0.11739302426576614,-0.05957897752523422,9.835570335388184,-0.0017549189985949741,-0.0008140607909312516,0.004247180958356922,0.7400009632110596,2019-07-25 12:15:56:803,-140.14997344265328,-115.70153825320833,0,-46.33113479614258,14.244200706481934,-39.13406753540039
0.07907702773809433,-0.09789497405290604,9.782885551452637,0.0027735605605333316,0.0031816564480000235,0.001849750680016738,0.7499992847442627,2019-07-25 12:15:56:813,-140.93949770568778,-116.97759805927318,0,-46.33113479614258,14.244200706481934,-39.13406753540039
0.05991903319954872,-0.06676322966814041,9.782885551452637,-0.0038859681493459333,0.0037144187031784726,0.004513562346020471,0.7600212097167969,2019-07-25 12:15:56:823,-141.71577945378468,-118.22803917728801,0,-46.33113479614258,14.244200706481934,-39.13406753540039
0.09344552457332611,-0.061973728239536285,9.785280227661133,0.0003761301846652757,0.005845467983966595,0.002116131807605963,0.7700061798095703,2019-07-25 12:15:56:833,-142.4737984495235,-119.45643187094588,0,-46.33113479614258,14.244200706481934,-39.13406753540039
0.11020877212285995,-0.05957897752523422,9.835570335388184,-0.001222156743416525,0.005845467983966595,-0.0026787288791115674,0.7800107002258301,2019-07-25 12:15:56:843,-143.21476659913534,-120.65967538399025,0,-46.33113479614258,14.244200706481934,-39.13406753540039
0.08147177845239639,-0.054789479821920395,9.840359687805176,-0.003619587021756709,0.006910992494323493,0.001849750680016738,0.7900011539459229,2019-07-25 12:15:56:853,-143.9448608565279,-121.8380712225448,0,-46.33113479614258,14.244200706481934,-39.13406753540039
0.08147177845239639,-0.03084198199212551,9.835570335388184,-0.000955775550808719,0.0031816564480000235,-0.0029451100067007917,0.8000204563140869,2019-07-25 12:15:56:863,-144.6582617449492,-122.99717879173926,0,-46.33113479614258,14.244200706481934,-39.13406753540039
0.0742875337600708,-0.073947474360466,9.833174705505371,0.002507179432944107,-1.491734416091191e-05,-0.00480977815989969,0.8100008964538574,2019-07-25 12:15:56:873,-145.35643116763458,-124.13002288421812,0,-46.33113479614258,14.244200706481934,-39.13406753540039
0.10302452743053436,-0.07155272364616394,9.785280227661133,0.001974417047728495,0.008242898132269616,-0.002412347751522343,0.8200149536132812,2019-07-25 12:15:56:883,-146.04187307606554,-125.24015350940283,0,-46.33113479614258,14.244200706481934,-39.13406753540039
0.047945283353328705,-0.011683983728289604,9.778096199035645,0.0033063228157117807,0.005312705728788145,0.002116131807605963,0.8300004005432129,2019-07-25 12:15:56:893,-146.7183955870601,-126.33583496331214,0,-46.33113479614258,14.244200706481934,-39.13406753540039
0.06949803233146667,-0.054789479821920395,9.876280784606934,-0.00015663211927710938,0.004513562346020471,-0.004010634517057691,0.8399994373321533,2019-07-25 12:15:56:903,-147.37849827268687,-127.40267332803786,0,-46.33113479614258,14.244200706481934,-39.13406753540039
0.08147177845239639,-0.05718422681093216,9.749359130859375,0.0017080359201392707,0.0037144187031784726,-0.00480977815989969,0.85005784034729,2019-07-25 12:15:56:913,-148.02345036035615,-128.44886330682928,0,-46.33113479614258,14.244200706481934,-39.13406753540039
0.07668227702379227,-0.04521048069000244,9.840359687805176,-0.0028204436389890346,0.00904204151503729,-0.006940827180613486,0.8600022792816162,2019-07-25 12:15:56:923,-148.6591007234124,-129.47304641485368,0,-46.33113479614258,14.244200706481934,-39.13406753540039
0.07668227702379227,-0.04999997839331627,9.859517097473145,-0.00015663211927710938,0.006378230239145044,-0.004543397032310465,0.869999885559082,2019-07-25 12:15:56:933,-149.28058705407656,-130.4776863956196,0,-46.33113479614258,14.244200706481934,-39.13406753540039
0.08386652916669846,-0.08113172650337219,9.814017295837402,-0.00015663211927710938,0.0023825130652323496,-0.009071876201327283,0.8800008296966553,2019-07-25 12:15:56:943,-149.8865209352389,-131.45857173038965,0,-46.78095245361328,14.394139289855957,-38.68424987792969
0.09344552457332611,-0.05718422681093216,9.835570335388184,-0.0017549189985949741,0.00797651700468039,-0.008272732818559609,0.8900210857391357,2019-07-25 12:15:56:953,-150.4823916355097,-132.4217506112445,0,-46.78095245361328,14.394139289855957,-38.68424987792969
0.09105078130960464,-0.054789479821920395,9.778096199035645,-0.0014885378710057496,0.005845467983966595,-0.008272732818559609,0.9002366065979004,2019-07-25 12:15:56:963,-151.0654266403221,-133.36604094674695,0,-46.78095245361328,14.394139289855957,-38.68424987792969
0.09105078130960464,-0.06915797293186188,9.830780029296875,-0.000955775550808719,0.005845467983966595,-0.006674446053024261,0.9099957942962646,2019-07-25 12:15:56:973,-151.63670834500138,-134.29013518390855,0,-46.78095245361328,14.394139289855957,-38.68424987792969
0.05273478478193283,0.0026845145039260387,9.816411972045898,0.0014416547925500459,0.002116131807605963,-0.008539113946148834,0.9199998378753662,2019-07-25 12:15:56:983,-152.19900694532885,-128.00545567065814,0,-46.78095245361328,14.394139289855957,-38.68424987792969
0.062313780188560486,-0.07634222507476807,9.763727188110352,0.0017080359201392707,0.00557908685637737,-0.004010634517057691,0.9299988746643066,2019-07-25 12:15:56:993,-152.75084582397454,-129.03734583529013,0,-46.78095245361328,14.394139289855957,-38.68424987792969
0.06949803233146667,-0.06436847895383835,9.833174705505371,-0.0025540625113998103,0.005312705728788145,-0.006408064925435037,0.9400279521942139,2019-07-25 12:15:57:003,-153.29072179376,-130.04765952934378,0,-46.78095245361328,14.394139289855957,-38.68424987792969
0.03597153350710869,-0.061973728239536285,9.852333068847656,-0.001222156743416525,0.003980799830767698,-0.002145966493895956,0.9500126838684082,2019-07-25 12:15:57:013,-153.82295536214554,-131.0388131362202,0,-46.78095245361328,14.394139289855957,-38.68424987792969
-0.10531869530677795,-0.07634222507476807,9.864306449890137,-0.0028204436389890346,0.006644611366734268,-0.005076159287488914,0.9600002765655518,2019-07-25 12:15:57:023,-147.16245675099304,-132.00758682558626,0,-46.78095245361328,14.394139289855957,-38.68424987792969
0.05991903319954872,-0.10268447548151016,9.885859489440918,-0.004685111532113607,0.0026488941928215744,-0.002145966493895956,0.9699997901916504,2019-07-25 12:15:57:033,-147.8137494875411,-132.9529023299289,0,-46.78095245361328,14.394139289855957,-38.68424987792969
0.11020877212285995,-0.05239472910761833,9.818806648254395,-0.002287681383810586,0.007443754749501942,-1.491734416091191e-05,0.9800276756286621,2019-07-25 12:15:57:043,-148.4488043044562,-133.8864414398003,0,-46.78095245361328,14.394139289855957,-38.68424987792969
0.05752428248524666,-0.018868232145905495,9.797253608703613,-0.0006893944232194946,0.001849750680016738,0.001316988424838289,0.9900085926055908,2019-07-25 12:15:57:053,-149.074136736921,-134.80611937448202,0,-46.78095245361328,14.394139289855957,-38.68424987792969
0.09584027528762817,-0.08113172650337219,9.830780029296875,-0.0049514926597028315,0.004247180958356922,0.004513562346020471,1.0000026226043701,2019-07-25 12:15:57:063,-149.68386618751802,-135.69776156202835,0,-46.78095245361328,14.394139289855957,-38.68424987792969
0.12218252569437027,-0.05718422681093216,9.756543159484863,-0.0006893944232194946,0.001849750680016738,0.005312705728788145,1.010002613067627,2019-07-25 12:15:57:073,-150.27687778756834,-136.5767029703497,0,-46.78095245361328,14.394139289855957,-38.68424987792969
0.026392536237835884,-0.054789479821920395,9.80922794342041,0.0017080359201392707,-0.0013468231111282822,0.0023825130652323496,1.0200178623199463,2019-07-25 12:15:57:083,-150.8674996663647,-137.43972898397314,0,-46.78095245361328,14.394139289855957,-38.68424987792969
0.021603036671876907,-0.047605227679014206,9.761332511901855,0.001974417047728495,0.004779943473609696,0.004513562346020471,1.0300025939941406,2019-07-25 12:15:57:093,-151.45029345802777,-138.28645285091125,0,-46.78095245361328,14.394139289855957,-38.68424987792969
0.05752428248524666,-0.04999997839331627,9.84993839263916,-0.0076153039355950775,0.0031816564480000235,0.00557908685637737,1.0400118827819824,2019-07-25 12:15:57:103,-152.0163835983848,-139.1106270249118,0,-46.78095245361328,14.394139289855957,-38.68424987792969
0.04555053263902664,-0.03802622854709625,9.823596000671387,-0.0020213001261841987,0.0007842261046412585,0.004779943473609696,1.0500001907348633,2019-07-25 12:15:57:113,-152.5711823538218,-139.9228451433796,0,-46.78095245361328,14.394139289855957,-38.68424987792969
0.014418788254261017,-0.03084198199212551,9.790069580078125,-0.0028204436389890346,0.007443754749501942,0.006644611366734268,1.0599966049194336,2019-07-25 12:15:57:123,-153.12224916596804,-140.7191951290482,0,-46.78095245361328,14.394139289855957,-38.68424987792969
5.028974192100577e-05,-0.026052482426166534,9.792464256286621,0.0011752736649608213,0.009574803770215738,0.009308423162775165,1.0700249671936035,2019-07-25 12:15:57:133,-153.6651897852609,-141.50242435461212,0,-46.78095245361328,14.394139289855957,-38.68424987792969
0.040761034935712814,-0.028447231277823448,9.847543716430664,-0.00015663211927710938,0.0002514638006988733,0.0071773736219127166,1.0800135135650635,2019-07-25 12:15:57:143,-154.18728386815297,-142.26897774886035,0,-46.78095245361328,14.394139289855957,-38.68424987792969
0.08865603059530258,-0.021262982860207558,9.823596000671387,-0.000955775550808719,0.00557908685637737,0.0015833695524275135,1.0899994373321533,2019-07-25 12:15:57:153,-154.69632504778042,-143.0205819744578,0,-46.78095245361328,14.394139289855957,-38.68424987792969
0.05273478478193283,-0.02365773171186447,9.818806648254395,-0.0014885378710057496,0.005312705728788145,-0.0013468231111282822,1.1000452041625977,2019-07-25 12:15:57:163,-155.19924085941483,-143.75656969916065,0,-46.78095245361328,14.394139289855957,-38.68424987792969
0.03118203580379486,-0.09310547262430191,9.869096755981445,-0.005484254914881281,0.005046324601198921,0.001849750680016738,1.1100339889526367,2019-07-25 12:15:57:173,-155.69446578800535,-144.46755206209238,0,-46.78095245361328,14.394139289855957,-38.68424987792969
0.021603036671876907,-0.08592122793197632,9.871491432189941,-0.0025540625113998103,-0.0026787288791115674,0.003448037575589248,1.1200332641601562,2019-07-25 12:15:57:183,-156.17656473022524,-145.16679325183887,0,-46.78095245361328,14.394139289855957,-38.68424987792969
0.026392536237835884,-0.08113172650337219,9.792464256286621,-0.001222156743416525,0.0007842261046412585,-0.0008140607909312516,1.1305551528930664,2019-07-25 12:15:57:193,-156.65040830751087,-145.85324150419518,0,-46.78095245361328,14.69401741027832,-39.58388137817383
0.05752428248524666,-0.073947474360466,9.823596000671387,-0.004418730404524382,0.003448037575589248,-0.005608921542667363,1.1405346393585205,2019-07-25 12:15:57:203,-157.11262214765563,-146.52507489448766,0,-46.78095245361328,14.69401741027832,-39.58388137817383
0.07189278304576874,-0.09550022333860397,9.787674903869629,-0.001222156743416525,-1.491734416091191e-05,-0.0032114911342900165,1.1505241394042969,2019-07-25 12:15:57:213,-157.56194446823514,-147.18270731415777,0,-46.78095245361328,14.69401741027832,-39.58388137817383
0.07907702773809433,-0.10268447548151016,9.818806648254395,-0.0006893944232194946,0.0031816564480000235,-0.0034778722618792413,1.1605384349822998,2019-07-25 12:15:57:223,-158.00326604882088,-147.82668204262924,0,-46.78095245361328,14.69401741027832,-39.58388137817383
0.06710328161716461,-0.07634222507476807,9.792464256286621,0.0009088924723530155,0.001849750680016738,-0.0032114911342900165,1.1702322959899902,2019-07-25 12:15:57:233,-158.43635525088425,-148.4617097228175,0,-46.78095245361328,14.69401741027832,-39.58388137817383
0.05273478478193283,-0.06676322966814041,9.825990676879883,-0.0038859681493459333,0.003448037575589248,-0.0008140607909312516,1.1802845001220703,2019-07-25 12:15:57:243,-158.86342440386744,-149.08249630559405,0,-46.78095245361328,14.69401741027832,-39.58388137817383
0.05752428248524666,-0.054789479821920395,9.885859489440918,-0.00042301326312097924,-0.0002812985032435118,-0.007207208308202711,1.190171480178833,2019-07-25 12:15:57:253,-159.2793319224333,-149.6942607061753,0,-46.78095245361328,14.69401741027832,-39.58388137817383
0.10302452743053436,-0.10507921874523163,9.80922794342041,-0.004685111532113607,0.0023825130652323496,-0.005076159287488914,1.200251579284668,2019-07-25 12:15:57:263,-159.68305887790754,-150.28544883499345,0,-46.78095245361328,14.69401741027832,-39.58388137817383
0.11020877212285995,-0.08831597119569778,9.806833267211914,0.004371847326068679,0.001849750680016738,-0.0010804419185204762,1.2101337909698486,2019-07-25 12:15:57:273,-160.07754689072735,-150.87184640379385,0,-46.78095245361328,14.69401741027832,-39.58388137817383
0.11499827355146408,-0.08352647721767426,9.859517097473145,-0.004685111532113607,0.003448037575589248,-0.00480977815989969,1.220043420791626,2019-07-25 12:15:57:283,-160.4645495358646,-151.4420949903944,0,-46.78095245361328,14.69401741027832,-39.58388137817383
0.1006297767162323,-0.05718422681093216,9.79964828491211,-0.003619587021756709,0.0031816564480000235,-0.0026787288791115674,1.2300403118133545,2019-07-25 12:15:57:293,-160.84527782063557,-152.00453460425706,0,-46.78095245361328,14.69401741027832,-39.58388137817383
0.09344552457332611,-0.08831597119569778,9.742175102233887,0.0003761301846652757,0.0007842261046412585,-1.491734416091191e-05,1.2400588989257812,2019-07-25 12:15:57:303,-161.21782230621585,-152.55426769006314,0,-46.78095245361328,14.69401741027832,-39.58388137817383
0.09344552457332611,-0.073947474360466,9.802042961120605,-0.006549779425238179,0.0023825130652323496,-0.005875302670256588,1.2500898838043213,2019-07-25 12:15:57:313,-161.58388379094362,-153.09084852472364,0,-46.78095245361328,14.69401741027832,-39.58388137817383
0.08626127988100052,-0.07155272364616394,9.761332511901855,-0.00042301326312097924,0.001316988424838289,-0.0034778722618792413,1.2601001262664795,2019-07-25 12:15:57:323,-161.94282012213588,-153.6203941256031,0,-46.78095245361328,14.69401741027832,-39.58388137817383
0.0742875337600708,-0.08113172650337219,9.79964828491211,-0.0028204436389890346,-1.491734416091191e-05,-0.0034778722618792413,1.270127296447754,2019-07-25 12:15:57:333,-162.29526872211972,-154.1369113952686,0,-46.78095245361328,14.69401741027832,-39.58388137817383
0.08865603059530258,-0.06436847895383835,9.80922794342041,0.0027735605605333316,0.0015833695524275135,-0.0018795853663067313,1.280000925064087,2019-07-25 12:15:57:343,-162.63988464255047,-154.64819140922668,0,-46.78095245361328,14.69401741027832,-39.58388137817383
0.12457727640867233,-0.03563148155808449,9.842754364013672,0.0027735605605333316,0.00557908685637737,-0.0010804419185204762,1.2900285720825195,2019-07-25 12:15:57:353,-162.97572546802547,-155.15264095806825,0,-46.78095245361328,14.69401741027832,-39.58388137817383
0.04555053263902664,-0.04999997839331627,9.794858932495117,0.0011752736649608213,0.0037144187031784726,-0.004543397032310465,1.3002662658691406,2019-07-25 12:15:57:363,-163.31301718574636,-155.64441421577217,0,-46.78095245361328,14.69401741027832,-39.58388137817383
0.09584027528762817,-0.07634222507476807,9.835570335388184,0.0003761301846652757,0.002915275320410799,-0.0026787288791115674,1.3103046417236328,2019-07-25 12:15:57:373,-163.63723431016794,-156.1228436918127,0,-46.78095245361328,14.69401741027832,-39.58388137817383
0.05034003406763077,-0.05239472910761833,9.768516540527344,0.0041054661984794545,0.006910992494323493,-0.0008140607909312516,1.3202619552612305,2019-07-25 12:15:57:383,-163.96244838506996,-156.5965359807875,0,-46.78095245361328,14.69401741027832,-39.58388137817383
0.05273478478193283,-0.047605227679014206,9.830780029296875,0.0033063228157117807,0.001316988424838289,0.0005178449445427432,1.330017328262329,2019-07-25 12:15:57:393,-164.27777389329535,-157.0608673270009,0,-46.78095245361328,14.69401741027832,-39.58388137817383
0.05273478478193283,-0.033236730843782425,9.785280227661133,0.0017080359201392707,0.0031816564480000235,-0.0026787288791115674,1.3400750160217285,2019-07-25 12:15:57:403,-164.58783971412896,-157.51672236535754,0,-46.78095245361328,14.69401741027832,-39.58388137817383
0.05034003406763077,-0.026052482426166534,9.854727745056152,0.000642511344763791,0.0031816564480000235,-0.0002812985032435118,1.3500328063964844,2019-07-25 12:15:57:413,-164.89200834654307,-157.96371776815596,0,-46.78095245361328,14.69401741027832,-39.58388137817383
0.03118203580379486,-0.033236730843782425,9.864306449890137,0.000642511344763791,0.003980799830767698,-0.0002812985032435118,1.3601539134979248,2019-07-25 12:15:57:423,-165.1928081243268,-158.4009475251861,0,-46.78095245361328,14.69401741027832,-39.58388137817383
0.11020877212285995,-0.04521048069000244,9.909807205200195,0.000642511344763791,0.0005178449445427432,0.005312705728788145,1.3699827194213867,2019-07-25 12:15:57:432,-165.47649434249132,-158.82805531276324,0,-46.78095245361328,14.69401741027832,-39.58388137817383
0.03118203580379486,-0.05718422681093216,9.768516540527344,0.0022407983053548824,0.0071773736219127166,0.0037144187031784726,1.380021095275879,2019-07-25 12:15:57:443,-165.76735214760714,-159.2460492054163,0,-46.03125762939453,14.843955993652344,-38.234432220458984
0.07668227702379227,-0.040420979261398315,9.825990676879883,0.0014416547925500459,0.003448037575589248,-0.0005476796633420271,1.3899950981140137,2019-07-25 12:15:57:453,-166.0449935674433,-159.65722170086087,0,-46.03125762939453,14.843955993652344,-38.234432220458984
0.062313780188560486,-0.06436847895383835,9.825990676879883,-0.001222156743416525,0.002116131807605963,0.001849750680016738,1.3999998569488525,2019-07-25 12:15:57:463,-166.31801547677603,-160.05588410022767,0,-46.03125762939453,14.843955993652344,-38.234432220458984
0.0742875337600708,-0.0068944841623306274,9.806833267211914,0.0027735605605333316,0.004513562346020471,0.009841185417953615,1.4100100994110107,2019-07-25 12:15:57:473,-166.58551188741478,-160.45551975252528,0,-46.03125762939453,14.843955993652344,-38.234432220458984
0.09584027528762817,-0.1002897247672081,9.785280227661133,0.0017080359201392707,0.006644611366734268,0.005845467983966595,1.419999361038208,2019-07-25 12:15:57:483,-166.84630546554803,-160.8356232643576,0,-46.03125762939453,14.843955993652344,-38.234432220458984
0.11260352283716202,-0.09310547262430191,9.78049087524414,0.0017080359201392707,-0.002412347751522343,0.0007842261046412585,1.4299941062927246,2019-07-25 12:15:57:493,-167.09483310901422,-161.20896113047536,0,-46.03125762939453,14.843955993652344,-38.234432220458984
0.12457727640867233,-0.1002897247672081,9.86670207977295,-0.004152349276935158,0.002915275320410799,0.00557908685637737,1.4400053024291992,2019-07-25 12:15:57:503,-167.34010760682582,-161.57080054386253,0,-46.03125762939453,14.843955993652344,-38.234432220458984
0.17726176977157593,-0.014078733511269093,9.687095642089844,-0.005750636042470505,-0.0005476796633420271,0.0007842261046412585,1.4499969482421875,2019-07-25 12:15:57:513,-167.57203170390795,-161.9344928417887,0,-46.03125762939453,14.843955993652344,-38.234432220458984
0.1389457732439041,-0.07873697578907013,9.845149040222168,-0.007881685063184303,0.002915275320410799,0.006910992494323493,1.4600002765655518,2019-07-25 12:15:57:523,-167.8060571667578,-162.28221164586427,0,-46.03125762939453,14.843955993652344,-38.234432220458984
0.11020877212285995,-0.054789479821920395,9.830780029296875,-0.0028204436389890346,-0.004010634517057691,0.001050607232230483,1.4699995517730713,2019-07-25 12:15:57:533,-168.0348383774996,-162.62859743461388,0,-46.03125762939453,14.843955993652344,-38.234432220458984
0.09823502600193024,-0.03802622854709625,9.869096755981445,0.0003761301846652757,-0.0005476796633420271,0.00797651700468039,1.480003833770752,2019-07-25 12:15:57:543,-168.26242811771704,-162.9718215125019,0,-46.03125762939453,14.843955993652344,-38.234432220458984
0.002445039339363575,-0.05957897752523422,9.811622619628906,-0.0038859681493459333,0.0002514638006988733,0.009308423162775165,1.4899985790252686,2019-07-25 12:15:57:553,-168.4970351175777,-163.30324602145137,0,-46.03125762939453,14.843955993652344,-38.234432220458984
-0.050239454954862595,-0.14100046455860138,9.859517097473145,-0.005750636042470505,-0.002145966493895956,0.005312705728788145,1.4999988079071045,2019-07-25 12:15:57:563,-161.53172842592772,-163.6175654878848,0,-46.03125762939453,14.843955993652344,-38.234432220458984
-0.10052919387817383,-0.02365773171186447,9.816411972045898,0.0003761301846652757,-0.0010804419185204762,0.004513562346020471,1.5099992752075195,2019-07-25 12:15:57:573,-154.71222199421607,-163.94266371247835,0,-46.03125762939453,14.843955993652344,-38.234432220458984
-0.13884519040584564,-0.04521048069000244,9.840359687805176,-0.0006893944232194946,0.0023825130652323496,0.006111849111555819,1.520007848739624,2019-07-25 12:15:57:583,-148.0354840091873,-164.2581582626797,0,-46.03125762939453,14.843955993652344,-38.234432220458984
-0.09813445061445236,-0.061973728239536285,9.828385353088379,-0.004152349276935158,-0.0005476796633420271,0.005312705728788145,1.5299944877624512,2019-07-25 12:15:57:593,-141.48590857493622,-164.56344110067909,0,-46.03125762939453,14.843955993652344,-38.234432220458984
-0.14363469183444977,-0.028447231277823448,9.84993839263916,-0.0025540625113998103,0.0005178449445427432,-1.491734416091191e-05,1.5399971008300781,2019-07-25 12:15:57:603,-135.07319014174624,-164.86742833540404,0,-46.03125762939453,14.843955993652344,-38.234432220458984
-0.06221320107579231,-0.02365773171186447,9.86191177368164,-0.0006893944232194946,-1.491734416091191e-05,0.00904204151503729,1.5499999523162842,2019-07-25 12:15:57:613,-128.77894679528725,-165.16694363363067,0,-46.03125762939453,14.843955993652344,-38.234432220458984
-0.08855544775724411,-0.08113172650337219,9.859517097473145,0.0038390850708902298,-1.491734416091191e-05,0.00904204151503729,1.5599963665008545,2019-07-25 12:15:57:623,-122.61365150554558,-165.4563303627657,0,-46.03125762939453,14.843955993652344,-38.234432220458984
-0.09813445061445236,-0.08592122793197632,9.933754920959473,-0.009213590701130425,-0.0016132042387175067,0.003448037575589248,1.5700032711029053,2019-07-25 12:15:57:633,-116.57179204136452,-165.73211550567254,0,-46.03125762939453,14.843955993652344,-38.234432220458984
-0.023897206410765648,-0.04281572997570038,9.830780029296875,0.00010974903269408318,0.001316988424838289,-0.0013468231111282822,1.5800232887268066,2019-07-25 12:15:57:643,-110.64388271783424,-166.0125441992725,0,-46.03125762939453,14.843955993652344,-38.234432220458984
0.047945283353328705,0.017053011804819107,9.830780029296875,0.004371847326068679,0.0005178449445427432,-0.005076159287488914,1.5899946689605713,2019-07-25 12:15:57:653,-112.02570634816803,-159.09672884229346,0,-46.03125762939453,14.843955993652344,-38.234432220458984
0.11260352283716202,0.029026761651039124,9.854727745056152,-0.000955775550808719,-0.005076159287488914,-0.008006351690970383,1.5999987125396729,2019-07-25 12:15:57:663,-113.36924775463424,-152.31763262697106,0,-46.03125762939453,14.843955993652344,-38.234432220458984
0.014418788254261017,-0.03802622854709625,9.847543716430664,0.001974417047728495,-0.0029451100067007917,-0.008006351690970383,1.6099979877471924,2019-07-25 12:15:57:673,-114.69853139401357,-152.86796360266413,0,-46.03125762939453,14.843955993652344,-38.234432220458984
0.06470853090286255,-0.03802622854709625,9.794858932495117,-0.0049514926597028315,0.005046324601198921,-0.012002069124957404,1.620006799697876,2019-07-25 12:15:57:683,-115.9998265271162,-153.40337289974082,0,-46.03125762939453,14.843955993652344,-38.234432220458984
0.1341562718153,-0.10747396945953369,9.79964828491211,-0.003619587021756709,0.00797651700468039,-0.010137400711684182,1.6299970149993896,2019-07-25 12:15:57:693,-117.26861791990314,-153.9207081412937,0,-46.33113479614258,14.843955993652344,-38.53430938720703
0.22276201844215393,-0.04281572997570038,9.835570335388184,0.004371847326068679,0.004247180958356922,-0.009871020104243606,1.639997959136963,2019-07-25 12:15:57:703,-118.49968161147163,-154.43976068363824,0,-46.33113479614258,14.843955993652344,-38.53430938720703
0.22994625568389893,-0.047605227679014206,9.71822738647461,-0.0020213001261841987,0.003980799830767698,-0.013067593635314302,1.6500022411346436,2019-07-25 12:15:57:713,-119.70481531309055,-154.94421674621057,0,-46.33113479614258,14.843955993652344,-38.53430938720703
0.20839351415634155,-0.05718422681093216,9.818806648254395,0.0017080359201392707,0.008775660907596714,-0.01706331002900402,1.6600050926208496,2019-07-25 12:15:57:723,-120.8913307697124,-155.43961806637682,0,-46.33113479614258,14.843955993652344,-38.53430938720703
0.3305257558822632,-0.028447231277823448,9.818806648254395,-0.0025540625113998103,0.006378230239145044,-0.01360035589049275,1.6699986457824707,2019-07-25 12:15:57:733,-122.03852336933558,-155.92607256805783,0,-46.33113479614258,14.843955993652344,-38.53430938720703
0.3760260045528412,-0.047605227679014206,9.864306449890137,-0.001222156743416525,0.0026488941928215744,-0.010936544614600505,1.679995059967041,2019-07-25 12:15:57:743,-123.1555787145675,-156.40133496786987,0,-46.33113479614258,14.843955993652344,-38.53430938720703
0.2826307415962219,-0.05718422681093216,9.816411972045898,-0.0028204436389890346,-0.0005476796633420271,-0.006940827180613486,1.6899983882904053,2019-07-25 12:15:57:753,-124.25917582284868,-156.8650487599383,0,-46.33113479614258,14.843955993652344,-38.53430938720703
0.2969992458820343,-0.054789479821920395,9.835570335388184,-0.003619587021756709,0.008509279259858839,-0.009871020104243606,1.6999995708465576,2019-07-25 12:15:57:763,-125.34417875594762,-157.319331843729,0,-46.33113479614258,14.843955993652344,-38.53430938720703
0.30657824873924255,-0.040420979261398315,9.902623176574707,0.002507179432944107,0.004513562346020471,-0.0032114911342900165,1.7100064754486084,2019-07-25 12:15:57:773,-126.40436587714514,-157.76967653212773,0,-46.33113479614258,14.843955993652344,-38.53430938720703
0.24910426139831543,-0.08831597119569778,9.761332511901855,-0.00042301326312097924,0.0002514638006988733,0.0031816564480000235,1.7200019359588623,2019-07-25 12:15:57:783,-127.44718285232888,-158.20367816249862,0,-46.33113479614258,14.843955993652344,-38.53430938720703
0.179656520485878,-0.07634222507476807,9.737384796142578,0.0011752736649608213,0.003448037575589248,0.003448037575589248,1.7299978733062744,2019-07-25 12:15:57:793,-128.4790345246039,-158.63128031877665,0,-46.33113479614258,14.843955993652344,-38.53430938720703
0.16289326548576355,-0.13142146170139313,9.792464256286621,-0.0028204436389890346,0.006111849111555819,0.0026488941928215744,1.739999532699585,2019-07-25 12:15:57:803,-129.4938261628369,-159.04169273902053,0,-46.33113479614258,14.843955993652344,-38.53430938720703
0.17726176977157593,-0.08831597119569778,9.766121864318848,0.002507179432944107,0.001316988424838289,0.009574803770215738,1.7499995231628418,2019-07-25 12:15:57:813,-130.48389226052893,-159.4519043192573,0,-46.33113479614258,14.843955993652344,-38.53430938720703
0.05273478478193283,-0.10507921874523163,9.703858375549316,0.0011752736649608213,0.005845467983966595,0.007443754749501942,1.760005235671997,2019-07-25 12:15:57:823,-131.47127119407122,-159.8511183457068,0,-46.33113479614258,14.843955993652344,-38.53430938720703
0.11739302426576614,-0.08352647721767426,9.794858932495117,0.0003761301846652757,0.011173090535751088,0.004513562346020471,1.7699944972991943,2019-07-25 12:15:57:833,-132.43437937575084,-160.2445352945915,0,-46.33113479614258,14.843955993652344,-38.53430938720703
0.06949803233146667,-0.1338162124156952,9.814017295837402,0.0027735605605333316,0.00904204151503729,0.00904204151503729,1.7799992561340332,2019-07-25 12:15:57:843,-133.38265662469823,-160.62557884579593,0,-46.33113479614258,14.843955993652344,-38.53430938720703
0.08626127988100052,-0.12184246629476547,9.797253608703613,-0.0006893944232194946,0.010373947673132064,0.009308423162775165,1.7899997234344482,2019-07-25 12:15:57:853,-134.31073960966893,-160.99842983827202,0,-46.33113479614258,14.843955993652344,-38.53430938720703
0.23713050782680511,-0.10507921874523163,9.804438591003418,0.003572703943301005,0.005845467983966595,0.013570521204202757,1.8000037670135498,2019-07-25 12:15:57:863,-135.200098613135,-161.36818722362642,0,-46.33113479614258,14.843955993652344,-38.53430938720703
0.17486701905727386,-0.021262982860207558,9.732595443725586,0.0075684208571393735,0.001316988424838289,0.006910992494323493,1.809993028640747,2019-07-25 12:15:57:873,-136.07624870976994,-161.74256507453717,0,-46.33113479614258,14.843955993652344,-38.53430938720703
-0.0693974494934082,0.031421512365341187,9.816411972045898,0.005970134091604027,0.010107566025394189,0.012771377301286432,1.8199961185455322,2019-07-25 12:15:57:883,-129.7685018270388,-154.91473499829928,0,-46.33113479614258,14.843955993652344,-38.53430938720703
0.05752428248524666,-0.1912902146577835,10.000807762145996,-0.012942926487379568,-0.0010804419185204762,0.013037758949024307,1.8299987316131592,2019-07-25 12:15:57:893,-130.76593377319986,-155.38725516270702,0,-46.33113479614258,14.843955993652344,-38.53430938720703
-0.04544995352625847,-0.12184246629476547,9.828385353088379,0.0041054661984794545,0.011173090535751088,0.006910992494323493,1.8400256633758545,2019-07-25 12:15:57:903,-124.56220475293038,-155.86761629673126,0,-46.33113479614258,14.843955993652344,-38.53430938720703
-0.050239454954862595,-0.06676322966814041,9.75893783569336,0.005437371836425577,0.014636045714559657,0.006378230239145044,1.8500001430511475,2019-07-25 12:15:57:913,-118.485056978076,-156.34546989558817,0,-46.33113479614258,14.843955993652344,-38.53430938720703
0.004839789122343063,-0.06436847895383835,9.864306449890137,0.0017080359201392707,0.013037758949024307,0.006644611366734268,1.859997034072876,2019-07-25 12:15:57:923,-119.72211201843041,-156.81204181559775,0,-46.33113479614258,14.843955993652344,-38.53430938720703
0.06949803233146667,-0.11226347088813782,9.89064884185791,0.00010974903269408318,0.003448037575589248,0.001849750680016738,1.8699994087219238,2019-07-25 12:15:57:933,-120.92155450199593,-157.2628565007166,0,-46.33113479614258,14.843955993652344,-38.53430938720703
0.03597153350710869,-0.07873697578907013,9.82120132446289,0.004904609581247128,-0.0008140607909312516,0.001316988424838289,1.879995584487915,2019-07-25 12:15:57:943,-122.09846943420959,-157.71116559343977,0,-45.43150329589844,13.644444465637207,-37.03491973876953
0.21318301558494568,0.069737508893013,9.588911056518555,0.009433089270412597,0.013304139556464882,0.001050607232230483,1.8900055885314941,2019-07-25 12:15:57:953,-123.23850569558684,-150.97057802868989,0,-45.43150329589844,13.644444465637207,-37.03491973876953
0.4742107391357422,-0.15057946741580963,9.68949031829834,0.008633945367496272,0.02316024283771214,-0.0034778722618792413,1.8999948501586914,2019-07-25 12:15:57:963,-124.33068882670774,-151.53820254966428,0,-45.43150329589844,13.644444465637207,-37.03491973876953
0.38560497760772705,0.021842511370778084,9.9984130859375,0.01316242505666174,-0.040771231944890955,-0.014399498753111774,1.9100017547607422,2019-07-25 12:15:57:973,-125.37699405510337,-144.91733764611334,0,-45.43150329589844,13.644444465637207,-37.03491973876953
-0.16279268264770508,-0.09550022333860397,9.399724960327148,-0.0014885378710057496,0.010640328280572637,-0.013866736497933324,1.919996976852417,2019-07-25 12:15:57:983,-119.29526983684126,-145.60651349845918,0,-45.43150329589844,13.644444465637207,-37.03491973876953
0.12457727640867233,0.031421512365341187,9.967281341552734,-0.00042301326312097924,0.025557672465866516,-0.01599778551864712,1.930006980895996,2019-07-25 12:15:57:993,-120.5094077753587,-139.09775791710607,0,-45.43150329589844,13.644444465637207,-37.03491973876953
-0.004739209543913603,-0.04999997839331627,9.981649398803711,-0.00308682476657826,-0.027185793917691856,-0.010403782359422057,1.9400126934051514,2019-07-25 12:15:58:003,-114.48449018531105,-139.90832845982771,0,-45.43150329589844,13.644444465637207,-37.03491973876953
-0.3495831787586212,-0.004499734845012426,9.720622062683105,-0.003619587021756709,-0.00480977815989969,-0.007473589435791935,1.9499943256378174,2019-07-25 12:15:58:013,-108.63329752071378,-140.70760277926505,0,-45.43150329589844,13.644444465637207,-37.03491973876953
-0.1939244419336319,0.00028976472094655037,9.86191177368164,0.0009088924723530155,0.008775660907596714,0.0023825130652323496,1.960000991821289,2019-07-25 12:15:58:023,-102.88809273503132,-134.2939950752971,0,-45.43150329589844,13.644444465637207,-37.03491973876953
-0.08616069704294205,-0.014078733511269093,9.825990676879883,0.0011752736649608213,0.014636045714559657,0.001849750680016738,1.9699969291687012,2019-07-25 12:15:58:033,-97.24859353935429,-135.20713294721457,0,-45.43150329589844,13.644444465637207,-37.03491973876953
-0.031081456691026688,-0.04521048069000244,9.986438751220703,-0.004152349276935158,-0.010403782359422057,0.006910992494323493,1.980006217956543,2019-07-25 12:15:58:043,-91.70134103038433,-136.09546884478954,0,-45.43150329589844,13.644444465637207,-37.03491973876953
-0.12447669357061386,-0.1338162124156952,9.804438591003418,-0.002287681383810586,0.001849750680016738,0.006910992494323493,1.9899983406066895,2019-07-25 12:15:58:053,-86.2828997332108,-136.95663685305453,0,-45.43150329589844,13.644444465637207,-37.03491973876953
0.05034003406763077,-0.22242195904254913,9.806833267211914,-0.005217873787292057,0.014103283459381206,0.0031816564480000235,2.0000052452087402,2019-07-25 12:15:58:063,-88.15928406553624,-137.78858700513396,0,-45.43150329589844,13.644444465637207,-37.03491973876953
0.13655102252960205,-0.11226347088813782,9.936149597167969,-0.006283398297648954,0.0037144187031784726,-0.003744253389468466,2.0099985599517822,2019-07-25 12:15:58:073,-89.98243547517352,-138.61634294096356,0,-45.43150329589844,13.644444465637207,-37.03491973876953
0.0742875337600708,-0.009289233945310116,9.871491432189941,-0.00042301326312097924,-0.009071876201327283,-0.002145966493895956,2.0200018882751465,2019-07-25 12:15:58:083,-91.76906784267491,-139.44270015683347,0,-45.43150329589844,13.644444465637207,-37.03491973876953
0.09584027528762817,-0.08113172650337219,9.78049087524414,-0.0020213001261841987,0.006910992494323493,-0.00480977815989969,2.029996395111084,2019-07-25 12:15:58:093,-93.52633625370446,-140.24320636876303,0,-45.43150329589844,13.644444465637207,-37.03491973876953
0.15810376405715942,0.00028976472094655037,9.876280784606934,-0.0014885378710057496,0.008509279259858839,-0.005875302670256588,2.0399982929229736,2019-07-25 12:15:58:103,-95.24224563972098,-133.83753989131918,0,-45.43150329589844,13.644444465637207,-37.03491973876953
0.1988145112991333,0.024237262085080147,9.981649398803711,-0.000955775550808719,-0.004543397032310465,-0.005608921542667363,2.049997091293335,2019-07-25 12:15:58:113,-96.91202859099074,-127.56303497752887,0,-45.43150329589844,13.644444465637207,-37.03491973876953
0.15570901334285736,0.009868763387203217,9.811622619628906,0.0003761301846652757,-0.006141683797845812,0.003448037575589248,2.060004234313965,2019-07-25 12:15:58:123,-98.55215302271412,-121.41313821418939,0,-45.43150329589844,13.644444465637207,-37.03491973876953
0.1197877749800682,-0.03802622854709625,9.787674903869629,-0.005750636042470505,0.005312705728788145,0.0023825130652323496,2.0699992179870605,2019-07-25 12:15:58:133,-100.1700678010519,-122.5771961055466,0,-45.43150329589844,13.644444465637207,-37.03491973876953
0.17726176977157593,-0.05239472910761833,9.952912330627441,-0.00015663211927710938,-0.0029451100067007917,0.0037144187031784726,2.079996109008789,2019-07-25 12:15:58:143,-101.74460663850721,-123.71953191892668,0,-45.43150329589844,13.644444465637207,-37.03491973876953
0.11020877212285995,-0.09310547262430191,9.842754364013672,0.0011752736649608213,-0.0029451100067007917,0.0071773736219127166,2.0899975299835205,2019-07-25 12:15:58:153,-103.29523037864877,-124.83496206373702,0,-45.43150329589844,13.644444465637207,-37.03491973876953
0.055129531770944595,-0.05957897752523422,9.746964454650879,-0.00308682476657826,0.003980799830767698,0.007710135877091167,2.0999984741210938,2019-07-25 12:15:58:163,-104.82507988394215,-125.92952501182782,0,-45.43150329589844,13.644444465637207,-37.03491973876953
0.03118203580379486,-0.11226347088813782,9.830780029296875,-0.0025540625113998103,0.002915275320410799,0.009574803770215738,2.11004638671875,2019-07-25 12:15:58:173,-106.32658835994567,-126.99640822112806,0,-45.43150329589844,13.644444465637207,-37.03491973876953
0.0742875337600708,-0.12184246629476547,9.895438194274902,0.000642511344763791,-0.004277015644646915,0.00797651700468039,2.119988203048706,2019-07-25 12:15:58:182,-107.78906651348366,-128.042729788623,0,-45.43150329589844,13.644444465637207,-37.03491973876953
0.04315578565001488,-0.09310547262430191,9.713438034057617,0.0003761301846652757,-1.491734416091191e-05,-0.004010634517057691,2.1299891471862793,2019-07-25 12:15:58:192,-109.22818565716244,-129.07110288892252,0,-46.18119812011719,13.79438304901123,-39.28400421142578
-0.031081456691026688,-0.08592122793197632,9.751753807067871,0.000642511344763791,0.006378230239145044,-0.0008140607909312516,2.1399967670440674,2019-07-25 12:15:58:203,-103.45085836874527,-130.07994564758903,0,-46.18119812011719,13.79438304901123,-39.28400421142578
0.1389457732439041,-0.12423721700906754,9.955307006835938,-0.0025540625113998103,0.003980799830767698,-0.0013468231111282822,2.1500020027160645,2019-07-25 12:15:58:213,-104.9680851312331,-131.062612174093,0,-46.18119812011719,13.79438304901123,-39.28400421142578
0.13176152110099792,-0.06436847895383835,9.811622619628906,-0.001222156743416525,-0.0026787288791115674,-0.002412347751522343,2.1599977016448975,2019-07-25 12:15:58:223,-106.45183225248996,-132.03315639343413,0,-46.18119812011719,13.79438304901123,-39.28400421142578
0.10541927814483643,-0.08113172650337219,9.816411972045898,-0.0025540625113998103,0.00557908685637737,-0.003744253389468466,2.16999888420105,2019-07-25 12:15:58:233,-107.91362301620637,-132.98158832385008,0,-46.18119812011719,13.79438304901123,-39.28400421142578
0.1341562718153,-0.07155272364616394,9.823596000671387,0.0003761301846652757,0.007443754749501942,-0.005076159287488914,2.1799983978271484,2019-07-25 12:15:58:243,-109.34388174840753,-133.91382131620966,0,-46.18119812011719,13.79438304901123,-39.28400421142578
0.1916302591562271,-0.10747396945953369,9.897833824157715,0.0038390850708902298,-0.0026787288791115674,0.001050607232230483,2.1899969577789307,2019-07-25 12:15:58:253,-110.73331712410564,-134.8252579771315,0,-46.18119812011719,13.79438304901123,-39.28400421142578
0.07907702773809433,-0.09310547262430191,9.823596000671387,-0.001222156743416525,-0.0002812985032435118,0.004779943473609696,2.2000033855438232,2019-07-25 12:15:58:263,-112.10926865072287,-135.71720577417645,0,-46.18119812011719,13.79438304901123,-39.28400421142578
0.05752428248524666,-0.08352647721767426,9.756543159484863,-0.0014885378710057496,0.011439472183488963,-0.0005476796633420271,2.2100019454956055,2019-07-25 12:15:58:273,-113.46674939552426,-136.59221593982278,0,-46.18119812011719,13.79438304901123,-39.28400421142578
0.10302452743053436,-0.09310547262430191,9.87867546081543,-0.00015663211927710938,0.001316988424838289,0.0002514638006988733,2.2200002670288086,2019-07-25 12:15:58:283,-114.78620347100916,-137.44948387345391,0,-46.18119812011719,13.79438304901123,-39.28400421142578
0.04555053263902664,-0.05957897752523422,9.818806648254395,0.002507179432944107,-0.0026787288791115674,-0.0034778722618792413,2.229997396469116,2019-07-25 12:15:58:293,-116.08365973939635,-138.29494841911603,0,-46.18119812011719,13.79438304901123,-39.28400421142578
0.033576786518096924,-0.11705297231674194,9.802042961120605,-0.003619587021756709,0.002915275320410799,-0.0002812985032435118,2.240004539489746,2019-07-25 12:15:58:303,-117.35969933154199,-139.11333208584952,0,-46.18119812011719,13.79438304901123,-39.28400421142578
0.05752428248524666,-0.1002897247672081,9.852333068847656,-0.0014885378710057496,0.0037144187031784726,0.001316988424838289,2.249993085861206,2019-07-25 12:15:58:313,-118.60789807799055,-139.91856638877755,0,-47.08082962036133,14.094261169433594,-38.38437271118164
0.05991903319954872,-0.01647348329424858,9.847543716430664,0.00010974903269408318,0.0015833695524275135,0.0023825130652323496,2.259999990463257,2019-07-25 12:15:58:323,-119.82965736037212,-140.71833978207368,0,-47.08082962036133,14.094261169433594,-38.38437271118164
0.06470853090286255,-0.033236730843782425,9.756543159484863,-0.0006893944232194946,0.0005178449445427432,-0.0005476796633420271,2.2699966430664062,2019-07-25 12:15:58:333,-121.0257549158986,-141.49968235035,0,-47.08082962036133,14.094261169433594,-38.38437271118164
0.019208287820219994,-0.07155272364616394,9.814017295837402,0.004638228453657903,0.001050607232230483,0.0015833695524275135,2.2800049781799316,2019-07-25 12:15:58:343,-122.20358740645166,-142.26394065957757,0,-47.08082962036133,14.094261169433594,-38.38437271118164
0.01681353710591793,-0.05718422681093216,9.778096199035645,-0.0049514926597028315,0.008242898132269616,-0.0013468231111282822,2.2899978160858154,2019-07-25 12:15:58:353,-123.36217030780494,-143.00918211823168,0,-47.08082962036133,14.094261169433594,-38.38437271118164
0.05034003406763077,-0.09310547262430191,9.84993839263916,-0.001222156743416525,-0.0013468231111282822,-0.004010634517057691,2.299996852874756,2019-07-25 12:15:58:363,-124.48831436068724,-143.7374809825626,0,-47.08082962036133,14.094261169433594,-38.38437271118164
0.062313780188560486,-0.021262982860207558,9.804438591003418,-0.0014885378710057496,0.0023825130652323496,-0.007207208308202711,2.3099989891052246,2019-07-25 12:15:58:373,-125.59260317335728,-144.45941021780519,0,-47.08082962036133,14.094261169433594,-38.38437271118164
0.04555053263902664,-0.047605227679014206,9.83796501159668,-0.0006893944232194946,0.010107566025394189,0.0005178449445427432,2.319995880126953,2019-07-25 12:15:58:383,-126.68111909082573,-145.16429007729207,0,-47.08082962036133,14.094261169433594,-38.38437271118164
0.028787286952137947,-0.040420979261398315,9.864306449890137,-0.002287681383810586,0.0026488941928215744,-0.002412347751522343,2.3300037384033203,2019-07-25 12:15:58:393,-127.7456410796274,-145.8550231430647,0,-47.08082962036133,14.094261169433594,-38.38437271118164
0.047945283353328705,-0.028447231277823448,9.823596000671387,-0.003619587021756709,-0.002412347751522343,-0.007473589435791935,2.339996099472046,2019-07-25 12:15:58:403,-128.7837820234694,-146.53257349922671,0,-47.08082962036133,14.094261169433594,-38.38437271118164
0.07189278304576874,-0.026052482426166534,9.835570335388184,-0.002287681383810586,0.004779943473609696,0.002116131807605963,2.3499972820281982,2019-07-25 12:15:58:413,-129.80241474839337,-147.19760205047476,0,-47.08082962036133,14.094261169433594,-38.38437271118164
0.05273478478193283,-0.054789479821920395,9.914596557617188,-0.00042301326312097924,0.0015833695524275135,-0.0005476796633420271,2.3600001335144043,2019-07-25 12:15:58:423,-130.8011608095383,-147.84707999123856,0,-47.08082962036133,14.094261169433594,-38.38437271118164
0.05752428248524666,-0.04521048069000244,9.888254165649414,-0.00308682476657826,0.0002514638006988733,-0.0005476796633420271,2.3699984550476074,2019-07-25 12:15:58:433,-131.77861255120177,-148.48316618462684,0,-47.08082962036133,14.094261169433594,-38.38437271118164
0.040761034935712814,-0.07873697578907013,9.79964828491211,0.0027735605605333316,0.0037144187031784726,-0.0018795853663067313,2.380002975463867,2019-07-25 12:15:58:443,-132.74036054601802,-149.10585405572738,0,-46.93089294433594,13.94432258605957,-39.43394470214844
0.06710328161716461,-0.05718422681093216,9.80922794342041,0.00010974903269408318,0.00797651700468039,0.0023825130652323496,2.3899943828582764,2019-07-25 12:15:58:453,-133.68218939617964,-149.71711835067032,0,-46.93089294433594,13.94432258605957,-39.43394470214844
0.1006297767162323,-0.047605227679014206,9.842754364013672,-0.0038859681493459333,0.004247180958356922,0.002116131807605963,2.399998426437378,2019-07-25 12:15:58:463,-134.59921622222691,-150.31505087112302,0,-46.93089294433594,13.94432258605957,-39.43394470214844
0.07907702773809433,-0.08352647721767426,9.814017295837402,-0.00042301326312097924,0.002915275320410799,0.003980799830767698,2.4099977016448975,2019-07-25 12:15:58:473,-135.4996356190929,-150.89875977028916,0,-46.93089294433594,13.94432258605957,-39.43394470214844
0.06949803233146667,-0.04281572997570038,9.852333068847656,-0.002287681383810586,0.001316988424838289,0.003980799830767698,2.4200055599212646,2019-07-25 12:15:58:483,-136.38229985833755,-151.47451920955604,0,-46.93089294433594,13.94432258605957,-39.43394470214844
0.09105078130960464,-0.06676322966814041,9.83796501159668,-0.0006893944232194946,-1.491734416091191e-05,0.002116131807605963,2.4300215244293213,2019-07-25 12:15:58:493,-137.24404027738083,-152.0368647235018,0,-46.93089294433594,13.94432258605957,-39.43394470214844
0.05991903319954872,-0.06676322966814041,9.840359687805176,-0.001222156743416525,-0.0018795853663067313,0.004513562346020471,2.4400136470794678,2019-07-25 12:15:58:503,-138.09112739865392,-152.58766723274803,0,-46.93089294433594,13.94432258605957,-39.43394470214844
0.028787286952137947,-0.06436847895383835,9.77091121673584,-0.001222156743416525,0.004513562346020471,0.004247180958356922,2.4499971866607666,2019-07-25 12:15:58:513,-138.9284589246138,-153.127679863498,0,-46.93089294433594,13.94432258605957,-39.43394470214844
0.05752428248524666,-0.009289233945310116,9.739779472351074,0.0041054661984794545,0.003448037575589248,0.006378230239145044,2.459998846054077,2019-07-25 12:15:58:523,-139.74505830231007,-153.66633895527238,0,-46.93089294433594,13.94432258605957,-39.43394470214844
0.1197877749800682,-0.04281572997570038,9.782885551452637,-0.00015663211927710938,-0.0002812985032435118,0.0007842261046412585,2.470003843307495,2019-07-25 12:15:58:533,-140.5359685019311,-154.18790900684058,0,-46.93089294433594,13.94432258605957,-39.43394470214844
0.1006297767162323,-0.05718422681093216,9.83796501159668,0.000642511344763791,-0.0005476796633420271,0.004779943473609696,2.479997158050537,2019-07-25 12:15:58:543,-141.31322097662172,-154.6978506725041,0,-46.93089294433594,13.94432258605957,-39.43394470214844
0.1341562718153,-0.03563148155808449,9.859517097473145,0.0009088924723530155,0.001050607232230483,0.004779943473609696,2.489997386932373,2019-07-25 12:15:58:553,-142.07195522690873,-155.20026278622402,0,-46.93089294433594,13.94432258605957,-39.43394470214844
0.10781402885913849,-0.047605227679014206,9.823596000671387,-0.003353205894167484,0.003448037575589248,-1.491734416091191e-05,2.4999990463256836,2019-07-25 12:15:58:563,-142.81987658603452,-155.6888213245351,0,-47.08082962036133,13.79438304901123,-37.78461456298828
0.09584027528762817,-0.04999997839331627,9.816411972045898,0.00010974903269408318,0.0037144187031784726,0.001050607232230483,2.5100021362304688,2019-07-25 12:15:58:573,-143.55437781257098,-156.16926986062674,0,-47.08082962036133,13.79438304901123,-37.78461456298828
0.06710328161716461,-0.05957897752523422,9.766121864318848,-0.005217873787292057,0.004513562346020471,0.0007842261046412585,2.5199966430664062,2019-07-25 12:15:58:583,-144.27794973084642,-156.63596558432081,0,-47.08082962036133,13.79438304901123,-37.78461456298828
0.06470853090286255,-0.08352647721767426,9.852333068847656,-0.001222156743416525,0.001316988424838289,-0.003744253389468466,2.5300023555755615,2019-07-25 12:15:58:593,-144.9856045657335,-157.09284498802518,0,-47.08082962036133,13.79438304901123,-37.78461456298828
0.06949803233146667,-0.06676322966814041,9.86670207977295,0.0022407983053548824,0.0023825130652323496,-0.0013468231111282822,2.5399997234344482,2019-07-25 12:15:58:603,-145.67915855461138,-157.54449222070883,0,-47.08082962036133,13.79438304901123,-37.78461456298828
0.11260352283716202,-0.09550022333860397,9.83796501159668,0.0033063228157117807,0.001849750680016738,-0.0002812985032435118,2.55000376701355,2019-07-25 12:15:58:613,-146.35349907139283,-157.98433620876366,0,-47.08082962036133,13.79438304901123,-37.78461456298828
0.07668227702379227,-0.08592122793197632,9.773306846618652,0.001974417047728495,0.004247180958356922,-0.002145966493895956,2.5599968433380127,2019-07-25 12:15:58:623,-147.01982144904147,-158.4156833858183,0,-47.08082962036133,13.79438304901123,-37.78461456298828
0.11499827355146408,-0.11226347088813782,9.77091121673584,0.0033063228157117807,0.00557908685637737,0.0007842261046412585,2.570007085800171,2019-07-25 12:15:58:633,-147.66907470213567,-158.8360626287237,0,-47.08082962036133,13.79438304901123,-37.78461456298828
0.11499827355146408,-0.014078733511269093,9.775701522827148,0.0022407983053548824,-0.0008140607909312516,0.0005178449445427432,2.5800182819366455,2019-07-25 12:15:58:643,-148.3017560339999,-159.25895067073444,0,-47.08082962036133,13.79438304901123,-37.78461456298828
0.06949803233146667,-0.11465822160243988,9.806833267211914,-0.0017549189985949741,0.001316988424838289,-0.0018795853663067313,2.590236186981201,2019-07-25 12:15:58:653,-148.92835589644585,-159.65936774843613,0,-47.08082962036133,13.79438304901123,-37.78461456298828
0.05752428248524666,-0.05957897752523422,9.782885551452637,0.0017080359201392707,0.001849750680016738,-0.0010804419185204762,2.600022554397583,2019-07-25 12:15:58:663,-149.5440672091876,-160.06014028391158,0,-47.08082962036133,13.79438304901123,-37.78461456298828
0.062313780188560486,-0.07634222507476807,9.811622619628906,-0.000955775550808719,0.001316988424838289,-1.491734416091191e-05,2.6100306510925293,2019-07-25 12:15:58:673,-150.14664831962386,-160.449484422568,0,-47.08082962036133,13.79438304901123,-37.78461456298828
0.11020877212285995,-0.09550022333860397,9.835570335388184,-0.0017549189985949741,-1.491734416091191e-05,0.0005178449445427432,2.6200597286224365,2019-07-25 12:15:58:683,-150.73086736538994,-160.82838036219164,0,-47.08082962036133,13.79438304901123,-37.78461456298828
0.05273478478193283,-0.06676322966814041,9.761332511901855,-0.0049514926597028315,0.0037144187031784726,0.001849750680016738,2.630279302597046,2019-07-25 12:15:58:693,-151.31219080120064,-161.2011340139313,0,-46.18119812011719,13.79438304901123,-37.78461456298828
0.05034003406763077,-0.04521048069000244,9.859517097473145,-0.0020213001261841987,0.004779943473609696,-0.0032114911342900165,2.6399989128112793,2019-07-25 12:15:58:703,-151.88270497724656,-161.57075367924418,0,-46.18119812011719,13.79438304901123,-37.78461456298828
0.04555053263902664,-0.06915797293186188,9.778096199035645,0.0027735605605333316,0.003448037575589248,-0.0016132042387175067,2.650053024291992,2019-07-25 12:15:58:713,-152.4416592986727,-161.9327997505176,0,-46.18119812011719,13.79438304901123,-37.78461456298828
0.1006297767162323,-0.073947474360466,9.766121864318848,0.0009088924723530155,0.003448037575589248,0.002915275320410799,2.660043716430664,2019-07-25 12:15:58:723,-152.9829533228879,-162.28597710312238,0,-46.18119812011719,13.79438304901123,-37.78461456298828
0.12936677038669586,-0.03802622854709625,9.806833267211914,-0.0014885378710057496,0.005845467983966595,0.003980799830767698,2.670123815536499,2019-07-25 12:15:58:733,-153.51148730853743,-162.6349717616853,0,-46.18119812011719,13.79438304901123,-37.78461456298828
0.08386652916669846,-0.054789479821920395,9.766121864318848,-0.000955775550808719,0.002915275320410799,0.0023825130652323496,2.6800038814544678,2019-07-25 12:15:58:743,-154.03303454992837,-162.97531339697937,0,-46.18119812011719,13.79438304901123,-37.78461456298828
0.04315578565001488,-0.04521048069000244,9.811622619628906,-0.0025540625113998103,0.004247180958356922,0.0002514638006988733,2.6900999546051025,2019-07-25 12:15:58:753,-154.54974135376233,-163.30907907929358,0,-46.18119812011719,13.79438304901123,-37.78461456298828
0.01681353710591793,-0.06436847895383835,9.787674903869629,0.0033063228157117807,0.009308423162775165,0.0031816564480000235,2.700002908706665,2019-07-25 12:15:58:763,-155.0619539875907,-163.637199991027,0,-46.18119812011719,13.79438304901123,-37.78461456298828
0.09105078130960464,-0.10268447548151016,9.80922794342041,-0.0006893944232194946,0.003448037575589248,0.005046324601198921,2.710219621658325,2019-07-25 12:15:58:773,-155.55205667186013,-163.95206532950127,0,-46.18119812011719,13.79438304901123,-37.78461456298828
0.06710328161716461,-0.05718422681093216,9.825990676879883,-0.0017549189985949741,0.0007842261046412585,-0.0008140607909312516,2.720059633255005,2019-07-25 12:15:58:783,-156.03362331386364,-164.26538560424748,0,-46.18119812011719,13.79438304901123,-37.78461456298828
0.062313780188560486,-0.09071072190999985,9.825990676879883,-0.0006893944232194946,0.004779943473609696,0.003980799830767698,2.7300662994384766,2019-07-25 12:15:58:793,-156.50836957860454,-164.56911207720626,0,-46.18119812011719,13.79438304901123,-37.78461456298828
0.0742875337600708,-0.040420979261398315,9.768516540527344,-0.001222156743416525,0.0071773736219127166,0.006378230239145044,2.7400882244110107,2019-07-25 12:15:58:803,-156.97352682709464,-164.87230045407162,0,-46.18119812011719,13.79438304901123,-37.78461456298828
0.09584027528762817,-0.04521048069000244,9.792464256286621,-0.0038859681493459333,-0.0005476796633420271,0.0002514638006988733,2.7500016689300537,2019-07-25 12:15:58:813,-157.4225365460675,-165.16740086584187,0,-48.28034210205078,14.69401741027832,-38.38437271118164
0.09823502600193024,-0.06915797293186188,9.790069580078125,0.0030399416881225563,0.0023825130652323496,-0.0002812985032435118,2.7600481510162354,2019-07-25 12:15:58:823,-157.86393190829494,-165.45767298484478,0,-48.28034210205078,14.69401741027832,-38.38437271118164
0.06470853090286255,-0.04281572997570038,9.854727745056152,-0.00015663211927710938,0.001050607232230483,-0.0005476796633420271,2.7699997425079346,2019-07-25 12:15:58:833,-158.29971607760248,-165.74345338631954,0,-48.28034210205078,14.69401741027832,-38.38437271118164
0.03836628422141075,-0.061973728239536285,9.885859489440918,-0.0014885378710057496,0.004247180958356922,-0.0026787288791115674,2.780059814453125,2019-07-25 12:15:58:843,-158.73167367754195,-166.02055991901247,0,-48.28034210205078,14.69401741027832,-38.38437271118164
0.04555053263902664,-0.054789479821920395,9.785280227661133,0.005970134091604027,0.0023825130652323496,-0.002412347751522343,2.789998769760132,2019-07-25 12:15:58:853,-159.15303561064,-166.29706436633123,0,-48.28034210205078,14.69401741027832,-38.38437271118164
0.03836628422141075,-0.06676322966814041,9.864306449890137,-0.001222156743416525,0.005845467983966595,-0.0032114911342900165,2.8000471591949463,2019-07-25 12:15:58:863,-159.56881609571974,-166.56267789440116,0,-48.28034210205078,14.69401741027832,-38.38437271118164
0.05991903319954872,-0.05239472910761833,9.84993839263916,-0.00015663211927710938,0.002915275320410799,-0.0034778722618792413,2.810021162033081,2019-07-25 12:15:58:873,-159.97210170669342,-166.82524121072856,0,-48.28034210205078,14.69401741027832,-38.38437271118164
0.007234538905322552,-0.061973728239536285,9.814017295837402,-0.002287681383810586,0.0037144187031784726,0.0005178449445427432,2.8200180530548096,2019-07-25 12:15:58:883,-160.373899937775,-167.0802161042401,0,-48.28034210205078,14.69401741027832,-38.38437271118164
0.08386652916669846,-0.05957897752523422,9.82120132446289,-0.001222156743416525,0.0005178449445427432,-0.0032114911342900165,2.8300111293792725,2019-07-25 12:15:58:893,-160.75692738755347,-167.33097456266492,0,-48.28034210205078,14.69401741027832,-38.38437271118164
0.11499827355146408,-0.040420979261398315,9.811622619628906,-0.006283398297648954,0.006378230239145044,-0.005076159287488914,2.840014696121216,2019-07-25 12:15:58:903,-161.13194126168344,-167.5761048872922,0,-48.28034210205078,14.69401741027832,-38.38437271118164
0.08865603059530258,-0.05239472910761833,9.840359687805176,0.0011752736649608213,0.004513562346020471,-0.002412347751522343,2.8500313758850098,2019-07-25 12:15:58:913,-161.5015172559782,-167.81914246591043,0,-48.28034210205078,14.69401741027832,-38.38437271118164
0.1269720196723938,-0.08113172650337219,9.82120132446289,0.0022407983053548824,0.0031816564480000235,-0.0034778722618792413,2.860246181488037,2019-07-25 12:15:58:923,-161.85849779836576,-168.05457879744796,0,-48.28034210205078,14.69401741027832,-38.38437271118164
0.11020877212285995,-0.05957897752523422,9.840359687805176,-0.00015663211927710938,0.006111849111555819,0.001316988424838289,2.870109796524048,2019-07-25 12:15:58:933,-162.21187949398606,-168.28646255056884,0,-48.28034210205078,14.69401741027832,-38.38437271118164
0.09105078130960464,-0.08113172650337219,9.811622619628906,-0.006283398297648954,-0.0005476796633420271,-0.004010634517057691,2.8800015449523926,2019-07-25 12:15:58:943,-162.5567040459855,-168.50776808020055,0,-46.78095245361328,14.69401741027832,-38.984127044677734
0.04315578565001488,-0.07634222507476807,9.768516540527344,-0.0025540625113998103,-0.0005476796633420271,-0.0010804419185204762,2.890042781829834,2019-07-25 12:15:58:953,-162.90019873177178,-168.72721740537654,0,-46.78095245361328,14.69401741027832,-38.984127044677734
0.05034003406763077,-0.07155272364616394,9.825990676879883,-0.0006893944232194946,0.0015833695524275135,-0.0029451100067007917,2.8999991416931152,2019-07-25 12:15:58:963,-163.23720928986293,-168.94394325906623,0,-46.78095245361328,14.69401741027832,-38.984127044677734
0.07189278304576874,-0.06915797293186188,9.794858932495117,-0.005484254914881281,0.001849750680016738,-0.0016132042387175067,2.9100499153137207,2019-07-25 12:15:58:973,-163.56509831399663,-169.15387859395085,0,-46.78095245361328,14.69401741027832,-38.984127044677734
0.10541927814483643,-0.04999997839331627,9.792464256286621,-0.0006893944232194946,-0.0005476796633420271,0.0015833695524275135,2.9200000762939453,2019-07-25 12:15:58:983,-163.88115465626453,-169.36456490338884,0,-46.78095245361328,14.69401741027832,-38.984127044677734
0.05034003406763077,-0.04999997839331627,9.794858932495117,0.0003761301846652757,0.001849750680016738,-0.0008140607909312516,2.930220365524292,2019-07-25 12:15:58:993,-164.1987037695348,-169.57163993088383,0,-46.78095245361328,14.69401741027832,-38.984127044677734
0.09344552457332611,-0.047605227679014206,9.847543716430664,-0.001222156743416525,0.006378230239145044,0.002116131807605963,2.940155029296875,2019-07-25 12:15:59:003,-164.50741414182667,-169.77398580757404,0,-46.78095245361328,14.69401741027832,-38.984127044677734
0.06949803233146667,-0.08113172650337219,9.78049087524414,-0.00042301326312097924,0.002116131807605963,-0.002145966493895956,2.95002818107605,2019-07-25 12:15:59:013,-164.81029650304836,-169.96876613185316,0,-46.78095245361328,14.69401741027832,-38.984127044677734
0.10781402885913849,-0.08113172650337219,9.840359687805176,0.0009088924723530155,-0.0005476796633420271,0.0015833695524275135,2.960055112838745,2019-07-25 12:15:59:023,-165.10122771956472,-170.16045490302704,0,-46.78095245361328,14.69401741027832,-38.984127044677734
0.047945283353328705,-0.06436847895383835,9.86191177368164,0.0011752736649608213,0.0026488941928215744,0.0023825130652323496,2.970001459121704,2019-07-25 12:15:59:033,-165.3951115248909,-170.35042291946277,0,-46.78095245361328,14.69401741027832,-38.984127044677734
0.10302452743053436,-0.08352647721767426,9.790069580078125,0.0038390850708902298,0.006910992494323493,0.0015833695524275135,2.9800491333007812,2019-07-25 12:15:59:043,-165.67904985832453,-170.53580394484962,0,-46.78095245361328,14.69401741027832,-38.984127044677734
0.07189278304576874,-0.05957897752523422,9.883464813232422,-0.003619587021756709,0.0007842261046412585,-0.0010804419185204762,2.9900033473968506,2019-07-25 12:15:59:053,-165.95757189057662,-170.71615711444784,0,-46.78095245361328,14.69401741027832,-38.984127044677734
0.08626127988100052,-0.073947474360466,9.835570335388184,-0.00042301326312097924,-0.0013468231111282822,0.0037144187031784726,3.0000367164611816,2019-07-25 12:15:59:063,-166.22761188012146,-170.892980401101,0,-45.28156280517578,15.29377269744873,-39.28400421142578
0.055129531770944595,-0.07873697578907013,9.869096755981445,-0.0006893944232194946,0.0031816564480000235,0.001050607232230483,3.010019540786743,2019-07-25 12:15:59:073,-166.49844196402063,-171.06559228980808,0,-45.28156280517578,15.29377269744873,-39.28400421142578
0.08147177845239639,-0.06436847895383835,9.811622619628906,-0.0006893944232194946,0.0002514638006988733,0.0002514638006988733,3.0200304985046387,2019-07-25 12:15:59:083,-166.75909947132791,-171.23637533282957,0,-45.28156280517578,15.29377269744873,-39.28400421142578
0.08865603059530258,-0.05957897752523422,9.792464256286621,0.000642511344763791,0.0031816564480000235,-0.0008140607909312516,3.0300545692443848,2019-07-25 12:15:59:093,-167.0153340197501,-171.4050376092343,0,-45.28156280517578,15.29377269744873,-39.28400421142578
0.06949803233146667,-0.061973728239536285,9.778096199035645,0.0041054661984794545,0.002915275320410799,-0.0005476796633420271,3.0400476455688477,2019-07-25 12:15:59:103,-167.2685186461811,-171.57197774080558,0,-45.28156280517578,15.29377269744873,-39.28400421142578
0.08147177845239639,-0.061973728239536285,9.802042961120605,-0.0028204436389890346,0.001316988424838289,0.0023825130652323496,3.050067663192749,2019-07-25 12:15:59:113,-167.5143649373257,-171.73170634937026,0,-45.28156280517578,15.29377269744873,-39.28400421142578
0.05752428248524666,-0.054789479821920395,9.823596000671387,0.000642511344763791,-0.0013468231111282822,-0.003744253389468466,3.0600507259368896,2019-07-25 12:15:59:123,-167.7566125895458,-171.8910412924212,0,-45.28156280517578,15.29377269744873,-39.28400421142578
0.05034003406763077,-0.09550022333860397,9.854727745056152,-0.0006893944232194946,0.003980799830767698,-0.008006351690970383,3.070051670074463,2019-07-25 12:15:59:133,-167.99786223414014,-172.04172884157651,0,-45.28156280517578,15.29377269744873,-39.28400421142578
0.06710328161716461,-0.07873697578907013,9.873886108398438,-0.0017549189985949741,0.001849750680016738,-0.0032114911342900165,3.080052375793457,2019-07-25 12:15:59:143,-168.23115613197703,-172.1907711706716,0,-45.28156280517578,15.29377269744873,-39.28400421142578
0.07907702773809433,-0.06915797293186188,9.811622619628906,-0.001222156743416525,0.008509279259858839,-0.008805495593886707,3.0900630950927734,2019-07-25 12:15:59:153,-168.46208074313984,-172.33819183233172,0,-45.28156280517578,15.29377269744873,-39.28400421142578
0.08626127988100052,-0.07155272364616394,9.859517097473145,-0.0006893944232194946,0.002915275320410799,-1.491734416091191e-05,3.100046396255493,2019-07-25 12:15:59:163,-168.68444791582894,-172.48272552797872,0,-45.28156280517578,15.29377269744873,-39.28400421142578
0.07668227702379227,-0.073947474360466,9.869096755981445,0.0011752736649608213,0.001050607232230483,0.002116131807605963,3.1100521087646484,2019-07-25 12:15:59:173,-168.90244569428856,-172.62514531775025,0,-45.28156280517578,15.29377269744873,-39.28400421142578
0.1269720196723938,-0.06915797293186188,9.806833267211914,0.000642511344763791,0.006378230239145044,-0.0005476796633420271,3.1200497150421143,2019-07-25 12:15:59:183,-169.11314160589097,-172.76492220990968,0,-45.28156280517578,15.29377269744873,-39.28400421142578
0.06949803233146667,-0.073947474360466,9.79964828491211,-0.0020213001261841987,0.0026488941928215744,-0.0010804419185204762,3.130016565322876,2019-07-25 12:15:59:193,-169.32423462211278,-172.89984573439895,0,-46.481075286865234,12.894749641418457,-38.68424987792969
0.05273478478193283,-0.08352647721767426,9.79964828491211,0.00010974903269408318,0.0007842261046412585,0.0023825130652323496,3.140054702758789,2019-07-25 12:15:59:203,-169.53202550218154,-173.03214380010363,0,-46.481075286865234,12.894749641418457,-38.68424987792969
0.055129531770944595,-0.061973728239536285,9.80922794342041,0.000642511344763791,0.001316988424838289,0.0002514638006988733,3.1500132083892822,2019-07-25 12:15:59:213,-169.73568123790523,-173.16462051175588,0,-46.481075286865234,12.894749641418457,-38.68424987792969
0.08865603059530258,-0.03084198199212551,9.833174705505371,0.000642511344763791,-0.0013468231111282822,0.0002514638006988733,3.1600534915924072,2019-07-25 12:15:59:223,-169.92987701754708,-173.29809614484975,0,-46.481075286865234,12.894749641418457,-38.68424987792969
0.09823502600193024,-0.03802622854709625,9.737384796142578,-0.003619587021756709,0.0031816564480000235,-0.0016132042387175067,3.1700122356414795,2019-07-25 12:15:59:233,-170.12149849366008,-173.42563523109035,0,-46.481075286865234,12.894749641418457,-38.68424987792969
0.0742875337600708,-0.05957897752523422,9.895438194274902,-0.0006893944232194946,0.003448037575589248,-0.00480977815989969,3.180049180984497,2019-07-25 12:15:59:243,-170.3124092312339,-173.5498346964943,0,-46.481075286865234,12.894749641418457,-38.68424987792969
0.10781402885913849,-0.06676322966814041,9.814017295837402,-0.00308682476657826,0.0023825130652323496,-0.008539113946148834,3.190056562423706,2019-07-25 12:15:59:253,-170.49491161250944,-173.66930811041016,0,-46.481075286865234,12.894749641418457,-38.68424987792969
0.05991903319954872,-0.07873697578907013,9.873886108398438,-0.0014885378710057496,0.003448037575589248,0.0015833695524275135,3.2000532150268555,2019-07-25 12:15:59:263,-170.6799949720019,-173.78594877608916,0,-46.481075286865234,12.894749641418457,-38.68424987792969
0.12218252569437027,-0.04281572997570038,9.78049087524414,-0.000955775550808719,0.005312705728788145,-0.0029451100067007917,3.210009813308716,2019-07-25 12:15:59:273,-170.85505062670327,-173.9046790585566,0,-46.481075286865234,12.894749641418457,-38.68424987792969
0.11020877212285995,-0.018868232145905495,9.77091121673584,0.0027735605605333316,0.0005178449445427432,-0.0010804419185204762,3.220041513442993,2019-07-25 12:15:59:283,-171.0253167587886,-174.02593493376344,0,-46.481075286865234,12.894749641418457,-38.68424987792969
0.07189278304576874,-0.09789497405290604,9.871491432189941,-0.004418730404524382,-0.0008140607909312516,0.001316988424838289,3.23002552986145,2019-07-25 12:15:59:293,-171.19600865412554,-174.13157548768726,0,-46.481075286865234,12.894749641418457,-38.68424987792969
0.07668227702379227,-0.04999997839331627,9.80922794342041,-0.004152349276935158,-0.0002812985032435118,0.0031816564480000235,3.2400119304656982,2019-07-25 12:15:59:303,-171.3629728936206,-174.24077465526298,0,-46.481075286865234,12.894749641418457,-38.68424987792969
0.05034003406763077,-0.05239472910761833,9.785280227661133,0.000642511344763791,0.005845467983966595,0.001316988424838289,3.250040292739868,2019-07-25 12:15:59:313,-171.53310989627016,-174.3501852730971,0,-45.58143997192383,15.29377269744873,-38.38437271118164
0.06470853090286255,-0.08592122793197632,9.847543716430664,-0.000955775550808719,0.0031816564480000235,-0.003744253389468466,3.2600347995758057,2019-07-25 12:15:59:323,-171.69670347241882,-174.45264717198398,0,-45.58143997192383,15.29377269744873,-38.38437271118164
0.062313780188560486,-0.08592122793197632,9.825990676879883,-0.001222156743416525,0.0037144187031784726,0.0007842261046412585,3.2700560092926025,2019-07-25 12:15:59:333,-171.8575924777074,-174.5528865806491,0,-45.58143997192383,15.29377269744873,-38.38437271118164
0.055129531770944595,-0.08592122793197632,9.818806648254395,-0.0025540625113998103,0.0023825130652323496,-0.0029451100067007917,3.280027151107788,2019-07-25 12:15:59:343,-172.01534065498544,-174.6503716010934,0,-45.58143997192383,15.29377269744873,-38.38437271118164
0.06949803233146667,-0.08831597119569778,9.818806648254395,-0.004418730404524382,0.0026488941928215744,-0.0008140607909312516,3.2900569438934326,2019-07-25 12:15:59:353,-172.16841490794206,-174.74456892278374,0,-45.58143997192383,15.29377269744873,-38.38437271118164
0.08865603059530258,-0.05957897752523422,9.82120132446289,0.0027735605605333316,0.006644611366734268,-0.005608921542667363,3.300025701522827,2019-07-25 12:15:59:363,-172.31842198921152,-174.84427857400465,0,-45.58143997192383,15.29377269744873,-38.38437271118164
0.0742875337600708,-0.09310547262430191,9.845149040222168,-0.004152349276935158,0.004247180958356922,-0.0026787288791115674,3.310060977935791,2019-07-25 12:15:59:373,-172.4658002945028,-174.9342166503899,0,-45.58143997192383,15.29377269744873,-38.38437271118164
0.06470853090286255,-0.03802622854709625,9.842754364013672,-0.0025540625113998103,0.006378230239145044,-0.002145966493895956,3.320000648498535,2019-07-25 12:15:59:383,-172.61251064591772,-175.0296797896304,0,-45.58143997192383,15.29377269744873,-38.38437271118164
0.062313780188560486,-0.07155272364616394,9.845149040222168,-0.00015663211927710938,0.006111849111555819,0.0002514638006988733,3.330003023147583,2019-07-25 12:15:59:393,-172.75644019395884,-175.12067006814124,0,-45.58143997192383,15.29377269744873,-38.38437271118164
0.033576786518096924,-0.03802622854709625,9.811622619628906,0.001974417047728495,0.005845467983966595,-0.0002812985032435118,3.3400139808654785,2019-07-25 12:15:59:403,-172.90067573598992,-175.21492539035086,0,-45.58143997192383,15.29377269744873,-38.38437271118164
0.06470853090286255,-0.06676322966814041,9.83796501159668,0.00010974903269408318,0.002915275320410799,-0.002412347751522343,3.3500208854675293,2019-07-25 12:15:59:413,-173.0367632031877,-175.3029121591692,0,-45.58143997192383,15.29377269744873,-38.38437271118164
0.07668227702379227,-0.09310547262430191,9.871491432189941,-0.00308682476657826,0.003448037575589248,-0.003744253389468466,3.360013961791992,2019-07-25 12:15:59:423,-173.16906131208808,-175.38431419535803,0,-45.58143997192383,15.29377269744873,-38.38437271118164
0.06470853090286255,-0.028447231277823448,9.852333068847656,0.0003761301846652757,0.00557908685637737,-0.0013468231111282822,3.370015859603882,2019-07-25 12:15:59:433,-173.30128724990513,-175.47353048660636,0,-45.58143997192383,15.29377269744873,-38.38437271118164
0.08147177845239639,-0.07873697578907013,9.82120132446289,0.0030399416881225563,0.003980799830767698,-0.0034778722618792413,3.3800206184387207,2019-07-25 12:15:59:443,-173.4279920572255,-175.55658095659152,0,-46.18119812011719,13.494505882263184,-38.38437271118164
0.06710328161716461,-0.061973728239536285,9.82120132446289,0.00010974903269408318,0.001849750680016738,-1.491734416091191e-05,3.390014171600342,2019-07-25 12:15:59:453,-173.55264084145932,-175.6382800629884,0,-46.18119812011719,13.494505882263184,-38.38437271118164
0.05034003406763077,-0.09310547262430191,9.84993839263916,-0.0028204436389890346,0.003980799830767698,0.0002514638006988733,3.4000213146209717,2019-07-25 12:15:59:463,-173.67796846047668,-175.71309833518538,0,-46.18119812011719,13.494505882263184,-38.38437271118164
0.09344552457332611,-0.07155272364616394,9.871491432189941,0.0033063228157117807,0.003448037575589248,0.0037144187031784726,3.4100234508514404,2019-07-25 12:15:59:473,-173.79549842965795,-175.79238732791643,0,-46.18119812011719,13.494505882263184,-38.38437271118164
0.06470853090286255,-0.08592122793197632,9.78049087524414,0.0027735605605333316,0.006378230239145044,0.0031816564480000235,3.420024871826172,2019-07-25 12:15:59:483,-173.91558897652598,-175.86803058867105,0,-46.18119812011719,13.494505882263184,-38.38437271118164
0.07668227702379227,-0.05239472910761833,9.749359130859375,-0.001222156743416525,0.00557908685637737,0.0005178449445427432,3.429983377456665,2019-07-25 12:15:59:492,-174.0313839883674,-175.9438282973044,0,-46.18119812011719,13.494505882263184,-38.38437271118164
0.08626127988100052,-0.07634222507476807,9.83796501159668,-0.00042301326312097924,0.003980799830767698,-0.0013468231111282822,3.4400436878204346,2019-07-25 12:15:59:503,-174.14295763925992,-176.015820695648,0,-46.18119812011719,13.494505882263184,-38.38437271118164
0.05752428248524666,-0.04281572997570038,9.828385353088379,0.001974417047728495,0.003980799830767698,-0.003744253389468466,3.4500463008880615,2019-07-25 12:15:59:513,-174.255627463427,-176.0916212443639,0,-46.18119812011719,13.494505882263184,-38.38437271118164
0.02399778738617897,-0.054789479821920395,9.82120132446289,0.0017080359201392707,0.0037144187031784726,-0.0013468231111282822,3.4600017070770264,2019-07-25 12:15:59:523,-174.36979125247458,-176.16435095605593,0,-46.18119812011719,13.494505882263184,-38.38437271118164
0.05273478478193283,-0.08113172650337219,9.806833267211914,0.0017080359201392707,0.006111849111555819,-0.0008140607909312516,3.4700064659118652,2019-07-25 12:15:59:533,-174.47966692455356,-176.2325435337413,0,-46.18119812011719,13.494505882263184,-38.38437271118164
0.09344552457332611,-0.09071072190999985,9.857122421264648,0.0009088924723530155,0.0037144187031784726,0.0026488941928215744,3.480031967163086,2019-07-25 12:15:59:543,-174.5813015909041,-176.29785925157125,0,-46.18119812011719,13.494505882263184,-38.38437271118164
0.09823502600193024,-0.06915797293186188,9.816411972045898,-0.00308682476657826,0.001316988424838289,-1.491734416091191e-05,3.490004777908325,2019-07-25 12:15:59:553,-174.6789459853372,-176.36210053177504,0,-46.18119812011719,13.494505882263184,-38.38437271118164
0.08865603059530258,-0.06436847895383835,9.842754364013672,-0.00042301326312097924,0.001050607232230483,0.0015833695524275135,3.499997138977051,2019-07-25 12:15:59:563,-174.77563527425943,-176.4271273650134,0,-47.68058776855469,13.19462776184082,-38.38437271118164
0.0742875337600708,-0.040420979261398315,9.881070137023926,-0.00015663211927710938,0.002915275320410799,0.0005178449445427432,3.5100173950195312,2019-07-25 12:15:59:573,-174.8731477853888,-176.4938090637633,0,-47.68058776855469,13.19462776184082,-38.38437271118164
0.08386652916669846,-0.047605227679014206,9.823596000671387,0.004371847326068679,0.0007842261046412585,0.0002514638006988733,3.5200138092041016,2019-07-25 12:15:59:583,-174.96634227947553,-176.56083371558765,0,-47.68058776855469,13.19462776184082,-38.38437271118164
0.09584027528762817,-0.06915797293186188,9.756543159484863,0.0014416547925500459,0.005312705728788145,0.0026488941928215744,3.5299925804138184,2019-07-25 12:15:59:593,-175.05873600565909,-176.62230227413167,0,-47.68058776855469,13.19462776184082,-38.38437271118164
0.05273478478193283,-0.05239472910761833,9.806833267211914,-0.005217873787292057,0.0023825130652323496,0.002116131807605963,3.539989709854126,2019-07-25 12:15:59:602,-175.15273674840748,-176.6808050435948,0,-47.68058776855469,13.19462776184082,-38.38437271118164
0.09823502600193024,-0.07634222507476807,9.794858932495117,0.000642511344763791,-1.491734416091191e-05,0.0007842261046412585,3.54998517036438,2019-07-25 12:15:59:612,-175.23818135991328,-176.7386183348824,0,-47.68058776855469,13.19462776184082,-38.38437271118164
0.09823502600193024,-0.07634222507476807,9.835570335388184,-0.0028204436389890346,0.0037144187031784726,0.001050607232230483,3.5600152015686035,2019-07-25 12:15:59:623,-175.32406492162636,-176.79336329023607,0,-47.68058776855469,13.19462776184082,-38.38437271118164
0.06470853090286255,-0.07873697578907013,9.806833267211914,-0.0025540625113998103,0.0005178449445427432,0.0037144187031784726,3.5699942111968994,2019-07-25 12:15:59:633,-175.41031278494881,-176.846864817488,0,-47.68058776855469,13.19462776184082,-38.38437271118164
0.10541927814483643,-0.073947474360466,9.830780029296875,-0.001222156743416525,0.0023825130652323496,0.0005178449445427432,3.580007791519165,2019-07-25 12:15:59:643,-175.49115849621145,-176.90062089490277,0,-47.68058776855469,13.19462776184082,-38.38437271118164
0.05273478478193283,-0.08113172650337219,9.857122421264648,-0.00015663211927710938,0.001849750680016738,0.0002514638006988733,3.5899817943573,2019-07-25 12:15:59:652,-175.5762407640542,-176.9530892000322,0,-47.68058776855469,13.19462776184082,-38.38437271118164
0.0742875337600708,-0.06915797293186188,9.823596000671387,0.00010974903269408318,0.0015833695524275135,0.006378230239145044,3.600013256072998,2019-07-25 12:15:59:663,-175.6569423821741,-177.00602213802918,0,-47.68058776855469,13.19462776184082,-38.38437271118164
0.03597153350710869,-0.04999997839331627,9.792464256286621,-0.0014885378710057496,0.001849750680016738,0.002915275320410799,3.610415458679199,2019-07-25 12:15:59:673,-175.74067456594497,-177.05918131281237,0,-47.68058776855469,13.19462776184082,-38.38437271118164
0.03836628422141075,-0.06436847895383835,9.828385353088379,0.001974417047728495,0.006378230239145044,0.005845467983966595,3.6200034618377686,2019-07-25 12:15:59:683,-175.8248216944149,-177.11155587195924,0,-47.68058776855469,13.19462776184082,-38.38437271118164
0.0742875337600708,-0.03084198199212551,9.775701522827148,-0.0006893944232194946,0.0005178449445427432,-0.0008140607909312516,3.6299941539764404,2019-07-25 12:15:59:693,-175.8999078823122,-177.16532271086652,0,-47.980464935302734,14.394139289855957,-39.28400421142578
0.05991903319954872,-0.08113172650337219,9.811622619628906,0.0011752736649608213,0.0007842261046412585,0.0015833695524275135,3.6400229930877686,2019-07-25 12:15:59:703,-175.975353380733,-177.21320278213557,0,-47.980464935302734,14.394139289855957,-39.28400421142578
0.03118203580379486,-0.040420979261398315,9.797253608703613,-0.0028204436389890346,0.005312705728788145,0.0031816564480000235,3.649986505508423,2019-07-25 12:15:59:712,-176.05517137534815,-177.26263309991023,0,-47.980464935302734,14.394139289855957,-39.28400421142578
0.062313780188560486,-0.08113172650337219,9.825990676879883,-0.00042301326312097924,0.0037144187031784726,0.001316988424838289,3.660022020339966,2019-07-25 12:15:59:723,-176.12889400611158,-177.3076806353933,0,-47.980464935302734,14.394139289855957,-39.28400421142578
0.05752428248524666,-0.06676322966814041,9.86670207977295,-0.003619587021756709,0.005046324601198921,0.0007842261046412585,3.670013189315796,2019-07-25 12:15:59:733,-176.20246635223134,-177.35174268273175,0,-47.980464935302734,14.394139289855957,-39.28400421142578
0.07189278304576874,-0.06676322966814041,9.79964828491211,-0.001222156743416525,0.0015833695524275135,-0.0010804419185204762,3.6800179481506348,2019-07-25 12:15:59:743,-176.27089992243918,-177.39621446847656,0,-47.980464935302734,14.394139289855957,-39.28400421142578
0.06470853090286255,-0.04281572997570038,9.79964828491211,0.002507179432944107,0.0023825130652323496,-1.491734416091191e-05,3.690016269683838,2019-07-25 12:15:59:753,-176.33925293668204,-177.44469112257485,0,-47.980464935302734,14.394139289855957,-39.28400421142578
0.08626127988100052,-0.03084198199212551,9.811622619628906,-0.0020213001261841987,0.002915275320410799,-0.0002812985032435118,3.7000181674957275,2019-07-25 12:15:59:763,-176.4040307741228,-177.49106005337205,0,-47.980464935302734,14.394139289855957,-39.28400421142578
0.062313780188560486,-0.04281572997570038,9.82120132446289,-0.0025540625113998103,0.0037144187031784726,-0.0029451100067007917,3.7100131511688232,2019-07-25 12:15:59:773,-176.4707642198812,-177.53480985804225,0,-47.980464935302734,14.394139289855957,-39.28400421142578
0.1006297767162323,-0.061973728239536285,9.835570335388184,-0.003353205894167484,0.0026488941928215744,0.0031816564480000235,3.720014810562134,2019-07-25 12:15:59:783,-176.53111283982176,-177.5750102326729,0,-47.980464935302734,14.394139289855957,-39.28400421142578
0.05991903319954872,-0.03802622854709625,9.80922794342041,-0.0006893944232194946,0.0015833695524275135,-0.0016132042387175067,3.7300021648406982,2019-07-25 12:15:59:793,-176.5943788545313,-177.61868121559814,0,-47.980464935302734,14.394139289855957,-39.28400421142578
0.08386652916669846,-0.061973728239536285,9.895438194274902,0.0033063228157117807,0.003448037575589248,0.001050607232230483,3.7399895191192627,2019-07-25 12:15:59:802,-176.6547131838859,-177.66098512612183,0,-47.980464935302734,14.394139289855957,-39.28400421142578
0.06470853090286255,-0.073947474360466,9.869096755981445,-0.000955775550808719,0.0023825130652323496,-0.0008140607909312516,3.7499911785125732,2019-07-25 12:15:59:812,-176.71544362336812,-177.69864267666483,0,-45.731380462646484,15.143834114074707,-38.234432220458984
0.08865603059530258,-0.06676322966814041,9.78049087524414,-0.001222156743416525,0.0002514638006988733,-0.0010804419185204762,3.7599918842315674,2019-07-25 12:15:59:822,-176.77088899972037,-177.73616144968844,0,-45.731380462646484,15.143834114074707,-38.234432220458984
0.08865603059530258,-0.04999997839331627,9.804438591003418,0.0003761301846652757,0.004247180958356922,0.0031816564480000235,3.7699854373931885,2019-07-25 12:15:59:832,-176.82749288005107,-177.77580547298507,0,-45.731380462646484,15.143834114074707,-38.234432220458984
0.08386652916669846,-0.026052482426166534,9.816411972045898,-0.0025540625113998103,0.0026488941928215744,-1.491734416091191e-05,3.7800135612487793,2019-07-25 12:15:59:843,-176.88264466270647,-177.81581000691088,0,-45.731380462646484,15.143834114074707,-38.234432220458984
0.08386652916669846,-0.08113172650337219,9.818806648254395,-0.0014885378710057496,-1.491734416091191e-05,0.0005178449445427432,3.790018081665039,2019-07-25 12:15:59:853,-176.93519588387474,-177.84918925712688,0,-45.731380462646484,15.143834114074707,-38.234432220458984
0.0742875337600708,-0.08831597119569778,9.847543716430664,0.00010974903269408318,0.0015833695524275135,-1.491734416091191e-05,3.800011396408081,2019-07-25 12:15:59:863,-176.98873608028453,-177.88199038694995,0,-45.731380462646484,15.143834114074707,-38.234432220458984
0.055129531770944595,-0.07634222507476807,9.79964828491211,-0.003619587021756709,0.0015833695524275135,0.001849750680016738,3.8100152015686035,2019-07-25 12:15:59:873,-177.04340428837747,-177.91339056409817,0,-45.731380462646484,15.143834114074707,-38.234432220458984
0.08147177845239639,-0.08113172650337219,9.842754364013672,-0.00308682476657826,0.0037144187031784726,-0.0010804419185204762,3.8200151920318604,2019-07-25 12:15:59:883,-177.0951369306799,-177.9439441824862,0,-45.731380462646484,15.143834114074707,-38.234432220458984
0.07189278304576874,-0.06436847895383835,9.869096755981445,-0.0025540625113998103,0.002915275320410799,0.0002514638006988733,3.8300182819366455,2019-07-25 12:15:59:893,-177.14652419003414,-177.9761569386658,0,-45.731380462646484,15.143834114074707,-38.234432220458984
0.014418788254261017,-0.07634222507476807,9.818806648254395,0.000642511344763791,0.003980799830767698,-1.491734416091191e-05,3.8400216102600098,2019-07-25 12:15:59:903,-177.2041469031293,-178.00808525792718,0,-45.731380462646484,15.143834114074707,-38.234432220458984
0.09584027528762817,-0.06676322966814041,9.773306846618652,-0.000955775550808719,0.0037144187031784726,-0.0013468231111282822,3.8500139713287354,2019-07-25 12:15:59:913,-177.25091114629186,-178.039559460815,0,-45.731380462646484,15.143834114074707,-38.234432220458984
0.05752428248524666,-0.1002897247672081,9.828385353088379,-0.004152349276935158,0.0031816564480000235,-0.0032114911342900165,3.8600170612335205,2019-07-25 12:15:59:923,-177.3009731503301,-178.06474339316375,0,-45.731380462646484,15.143834114074707,-38.234432220458984
0.07907702773809433,-0.04999997839331627,9.859517097473145,-0.005750636042470505,-0.0002812985032435118,0.001050607232230483,3.8700146675109863,2019-07-25 12:15:59:933,-177.34560530032985,-178.09440916064713,0,-45.731380462646484,15.143834114074707,-38.234432220458984
0.0742875337600708,-0.08831597119569778,9.816411972045898,0.001974417047728495,-0.0005476796633420271,0.0005178449445427432,3.8800177574157715,2019-07-25 12:15:59:943,-177.3897138128845,-178.12332069506422,0,-46.78095245361328,14.993894577026367,-37.18486022949219
0.04315578565001488,-0.08592122793197632,9.825990676879883,-0.0028204436389890346,0.005312705728788145,-0.0008140607909312516,3.8900279998779297,2019-07-25 12:15:59:953,-177.43987283612276,-178.1492490307716,0,-46.78095245361328,14.993894577026367,-37.18486022949219
0.028787286952137947,-0.07873697578907013,9.869096755981445,-0.0014885378710057496,0.00904204151503729,-0.002412347751522343,3.900017023086548,2019-07-25 12:15:59:963,-177.49280437490756,-178.1762870815201,0,-46.78095245361328,14.993894577026367,-37.18486022949219
0.10302452743053436,-0.061973728239536285,9.852333068847656,-0.005217873787292057,0.002915275320410799,0.001050607232230483,3.910015106201172,2019-07-25 12:15:59:973,-177.53260264761886,-178.20262406151215,0,-46.78095245361328,14.993894577026367,-37.18486022949219
0.06470853090286255,-0.07873697578907013,9.787674903869629,0.0022407983053548824,0.003448037575589248,-0.0010804419185204762,3.919994354248047,2019-07-25 12:15:59:983,-177.5763068487712,-178.23060905240771,0,-46.78095245361328,14.993894577026367,-37.18486022949219
0.08626127988100052,-0.06915797293186188,9.811622619628906,-0.0017549189985949741,0.004779943473609696,-0.0029451100067007917,3.929987668991089,2019-07-25 12:15:59:992,-177.61738851166623,-178.25693520550723,0,-46.78095245361328,14.993894577026367,-37.18486022949219
0.12218252569437027,-0.061973728239536285,9.830780029296875,0.00010974903269408318,0.001050607232230483,0.0005178449445427432,3.940014600753784,2019-07-25 12:16:00:003,-177.6513908872395,-178.28463447788027,0,-46.78095245361328,14.993894577026367,-37.18486022949219
0.09823502600193024,-0.06676322966814041,9.830780029296875,-0.00015663211927710938,0.002915275320410799,-0.0016132042387175067,3.950016736984253,2019-07-25 12:16:00:013,-177.68855005036988,-178.31107174763312,0,-46.78095245361328,14.993894577026367,-37.18486022949219
0.11020877212285995,-0.06676322966814041,9.785280227661133,-0.002287681383810586,0.005046324601198921,-0.0005476796633420271,3.960015058517456,2019-07-25 12:16:00:023,-177.72470650901153,-178.33574774099364,0,-46.78095245361328,14.993894577026367,-37.18486022949219
0.14373527467250824,-0.021262982860207558,9.78049087524414,-0.001222156743416525,0.00797651700468039,0.002116131807605963,3.969991683959961,2019-07-25 12:16:00:032,-177.75784141163783,-178.36585691138254,0,-46.78095245361328,14.993894577026367,-37.18486022949219
0.10541927814483643,-0.05718422681093216,9.83796501159668,0.0011752736649608213,0.00557908685637737,-1.491734416091191e-05,3.9800217151641846,2019-07-25 12:16:00:043,-177.793547986542,-178.39254098725945,0,-46.78095245361328,14.993894577026367,-37.18486022949219
0.09823502600193024,-0.047605227679014206,9.854727745056152,-0.00042301326312097924,0.008509279259858839,-0.005608921542667363,3.9900147914886475,2019-07-25 12:16:00:053,-177.8310291987141,-178.41891727986675,0,-46.78095245361328,14.993894577026367,-37.18486022949219
0.09105078130960464,-0.11226347088813782,9.833174705505371,0.000642511344763791,0.006910992494323493,-0.004543397032310465,4.000016927719116,2019-07-25 12:16:00:063,-177.8676795961324,-178.43781765029794,0,-47.230770111083984,14.244200706481934,-37.93455505371094
0.08626127988100052,-0.08352647721767426,9.806833267211914,0.0011752736649608213,0.011173090535751088,-0.0010804419185204762,4.010012865066528,2019-07-25 12:16:00:073,-177.90651787321755,-178.45996122056079,0,-47.230770111083984,14.244200706481934,-37.93455505371094
0.13176152110099792,-0.061973728239536285,9.840359687805176,0.004371847326068679,0.006644611366734268,-0.0013468231111282822,4.020020008087158,2019-07-25 12:16:00:083,-177.93677833238627,-178.4860017547661,0,-47.230770111083984,14.244200706481934,-37.93455505371094
0.12936677038669586,-0.06436847895383835,9.804438591003418,0.0003761301846652757,0.005312705728788145,-1.491734416091191e-05,4.030016660690308,2019-07-25 12:16:00:093,-177.96590569226944,-178.50896974435182,0,-47.230770111083984,14.244200706481934,-37.93455505371094
0.12218252569437027,-0.08831597119569778,9.80922794342041,0.003572703943301005,0.006910992494323493,-0.004543397032310465,4.040015935897827,2019-07-25 12:16:00:103,-177.99619516579054,-178.53047946522693,0,-47.230770111083984,14.244200706481934,-37.93455505371094
0.11739302426576614,-0.07634222507476807,9.802042961120605,0.002507179432944107,0.00797651700468039,-0.0032114911342900165,4.050014019012451,2019-07-25 12:16:00:113,-178.02702593907165,-178.55235271611488,0,-47.230770111083984,14.244200706481934,-37.93455505371094
0.12218252569437027,-0.061973728239536285,9.869096755981445,-0.0014885378710057496,0.003448037575589248,-0.004010634517057691,4.06002140045166,2019-07-25 12:16:00:123,-178.05423684667602,-178.57327346512713,0,-47.230770111083984,14.244200706481934,-37.93455505371094
0.08386652916669846,-0.047605227679014206,9.794858932495117,0.0030399416881225563,0.006111849111555819,-0.0016132042387175067,4.07001256942749,2019-07-25 12:16:00:133,-178.0867694397829,-178.5979440467082,0,-47.230770111083984,14.244200706481934,-37.93455505371094
0.11260352283716202,-0.03084198199212551,9.814017295837402,0.004904609581247128,0.006111849111555819,-0.004543397032310465,4.079986572265625,2019-07-25 12:16:00:142,-178.11530955895105,-178.62513074277268,0,-47.230770111083984,14.244200706481934,-37.93455505371094
0.10302452743053436,-0.047605227679014206,9.785280227661133,0.0003761301846652757,0.006378230239145044,-0.0013468231111282822,4.0900139808654785,2019-07-25 12:16:00:153,-178.1445302009162,-178.64726508680974,0,-47.230770111083984,14.244200706481934,-37.93455505371094
0.07668227702379227,-0.01647348329424858,9.802042961120605,-0.001222156743416525,0.007710135877091167,-0.005608921542667363,4.099992036819458,2019-07-25 12:16:00:163,-178.1769949082044,-178.67170920782257,0,-47.230770111083984,14.244200706481934,-37.93455505371094
0.002445039339363575,-0.06436847895383835,9.802042961120605,-0.003619587021756709,0.00904204151503729,0.001316988424838289,4.110015630722046,2019-07-25 12:16:00:173,-178.2182582436398,-178.688712895459,0,-47.230770111083984,14.244200706481934,-37.93455505371094
0.05752428248524666,-0.03802622854709625,9.840359687805176,-0.0014885378710057496,0.005845467983966595,0.0015833695524275135,4.120014905929565,2019-07-25 12:16:00:183,-178.25047640345275,-178.70967473182276,0,-47.230770111083984,14.244200706481934,-37.93455505371094
0.014418788254261017,-0.05957897752523422,9.804438591003418,0.001974417047728495,0.0005178449445427432,0.0007842261046412585,4.129985809326172,2019-07-25 12:16:00:192,-178.28407157180945,-178.72962330398514,0,-46.18119812011719,14.993894577026367,-38.38437271118164
0.004839789122343063,-0.05718422681093216,9.804438591003418,-0.000955775550808719,0.0023825130652323496,-0.005342540415078138,4.140014410018921,2019-07-25 12:16:00:203,-178.31916608327091,-178.7478091782841,0,-46.18119812011719,14.993894577026367,-38.38437271118164
0.01681353710591793,-0.07873697578907013,9.823596000671387,-0.00042301326312097924,0.001050607232230483,-0.0013468231111282822,4.1500208377838135,2019-07-25 12:16:00:213,-178.3514117699126,-178.76343090428796,0,-46.18119812011719,14.993894577026367,-38.38437271118164
0.019208287820219994,-0.05239472910761833,9.79964828491211,0.0017080359201392707,0.001050607232230483,-1.491734416091191e-05,4.1600213050842285,2019-07-25 12:16:00:223,-178.3827273706658,-178.78299470518158,0,-46.18119812011719,14.993894577026367,-38.38437271118164
5.028974192100577e-05,-0.05718422681093216,9.806833267211914,-0.000955775550808719,0.004247180958356922,0.001316988424838289,4.170016288757324,2019-07-25 12:16:00:233,-178.4174505370041,-178.80011658752957,0,-46.18119812011719,14.993894577026367,-38.38437271118164
0.007234538905322552,-0.04999997839331627,9.818806648254395,0.0017080359201392707,0.004247180958356922,-0.0002812985032435118,4.180002689361572,2019-07-25 12:16:00:243,-178.45063875405214,-178.8192367544331,0,-46.18119812011719,14.993894577026367,-38.38437271118164
0.01681353710591793,-0.03802622854709625,9.794858932495117,0.0017080359201392707,0.0031816564480000235,-0.0016132042387175067,4.189985990524292,2019-07-25 12:16:00:252,-178.4814424518993,-178.83936075313966,0,-46.18119812011719,14.993894577026367,-38.38437271118164
0.033576786518096924,-0.05957897752523422,9.802042961120605,-0.0006893944232194946,0.001316988424838289,-0.0018795853663067313,4.200010299682617,2019-07-25 12:16:00:263,-178.50862958225153,-178.85522046130467,0,-46.18119812011719,14.993894577026367,-38.38437271118164
0.03118203580379486,-0.05239472910761833,9.811622619628906,0.00010974903269408318,0.003980799830767698,-0.0034778722618792413,4.210001707077026,2019-07-25 12:16:00:273,-178.5370484945273,-178.87205841438652,0,-46.18119812011719,14.993894577026367,-38.38437271118164
0.055129531770944595,-0.05957897752523422,9.842754364013672,-0.00308682476657826,0.004779943473609696,0.0015833695524275135,4.220019578933716,2019-07-25 12:16:00:283,-178.56257801616934,-178.88594466676898,0,-46.18119812011719,14.993894577026367,-38.38437271118164
0.06710328161716461,-0.08831597119569778,9.818806648254395,-0.001222156743416525,0.00797651700468039,0.001050607232230483,4.2300169467926025,2019-07-25 12:16:00:293,-178.587972833472,-178.89723297145574,0,-46.18119812011719,14.993894577026367,-38.38437271118164
0.08147177845239639,-0.1002897247672081,9.854727745056152,-0.00015663211927710938,0.004513562346020471,-0.002412347751522343,4.240025520324707,2019-07-25 12:16:00:303,-178.609276521303,-178.90753892140597,0,-46.18119812011719,14.993894577026367,-38.38437271118164
0.10541927814483643,-0.08831597119569778,9.830780029296875,-0.005217873787292057,0.004247180958356922,-0.005875302670256588,4.250020265579224,2019-07-25 12:16:00:313,-178.62718689643322,-178.91616566264366,0,-46.93089294433594,14.843955993652344,-37.93455505371094
0.09823502600193024,-0.1002897247672081,9.75893783569336,-0.00015663211927710938,0.002116131807605963,-0.0034778722618792413,4.2600250244140625,2019-07-25 12:16:00:323,-178.64429734941623,-178.92597853693547,0,-46.93089294433594,14.843955993652344,-37.93455505371094
0.08626127988100052,-0.05957897752523422,9.818806648254395,0.002507179432944107,-0.0016132042387175067,-0.0032114911342900165,4.270000696182251,2019-07-25 12:16:00:333,-178.66044082712628,-178.94191016856442,0,-46.93089294433594,14.843955993652344,-37.93455505371094
0.0742875337600708,-0.05957897752523422,9.869096755981445,0.0033063228157117807,0.002116131807605963,-0.0026787288791115674,4.280022621154785,2019-07-25 12:16:00:343,-178.67979734706256,-178.95801481113233,0,-46.93089294433594,14.843955993652344,-37.93455505371094
0.05991903319954872,-0.06436847895383835,9.854727745056152,0.0011752736649608213,0.0002514638006988733,0.002915275320410799,4.290036678314209,2019-07-25 12:16:00:353,-178.69937544814528,-178.97203064557178,0,-46.93089294433594,14.843955993652344,-37.93455505371094
0.06470853090286255,-0.054789479821920395,9.864306449890137,-0.0028204436389890346,0.003448037575589248,-0.0002812985032435118,4.300015211105347,2019-07-25 12:16:00:363,-178.71980290621278,-178.98464504471352,0,-46.93089294433594,14.843955993652344,-37.93455505371094
0.062313780188560486,-0.028447231277823448,9.75893783569336,0.0011752736649608213,0.0037144187031784726,0.001050607232230483,4.310023784637451,2019-07-25 12:16:00:373,-178.740177357847,-179.00227229819285,0,-46.93089294433594,14.843955993652344,-37.93455505371094
0.08865603059530258,-0.06676322966814041,9.840359687805176,-0.0020213001261841987,0.0031816564480000235,0.001050607232230483,4.320001840591431,2019-07-25 12:16:00:383,-178.7568326193235,-179.01331988800402,0,-46.93089294433594,14.843955993652344,-37.93455505371094
0.08147177845239639,-0.061973728239536285,9.768516540527344,-0.00015663211927710938,0.004779943473609696,-0.0013468231111282822,4.330027103424072,2019-07-25 12:16:00:393,-178.77482968890087,-179.025695463336,0,-46.93089294433594,14.843955993652344,-37.93455505371094
0.0742875337600708,-0.054789479821920395,9.763727188110352,-0.00042301326312097924,0.001316988424838289,-0.0005476796633420271,4.339999437332153,2019-07-25 12:16:00:403,-178.7913519806399,-179.03851441387718,0,-46.93089294433594,14.843955993652344,-37.93455505371094
0.09344552457332611,-0.06436847895383835,9.794858932495117,-0.000955775550808719,-0.0005476796633420271,-1.491734416091191e-05,4.3500096797943115,2019-07-25 12:16:00:413,-178.8042851008792,-179.04967645043843,0,-46.93089294433594,14.843955993652344,-37.93455505371094
0.0742875337600708,-0.08831597119569778,9.83796501159668,0.000642511344763791,0.0031816564480000235,0.004779943473609696,4.360015869140625,2019-07-25 12:16:00:423,-178.82133423272253,-179.05875724088912,0,-46.93089294433594,14.843955993652344,-37.93455505371094
0.1006297767162323,-0.03802622854709625,9.900228500366211,-0.0020213001261841987,-0.0016132042387175067,0.002915275320410799,4.370012998580933,2019-07-25 12:16:00:433,-178.83235486502443,-179.07204608801825,0,-46.93089294433594,14.843955993652344,-37.93455505371094
0.11499827355146408,-0.07873697578907013,9.80922794342041,-0.00015663211927710938,-0.0010804419185204762,0.002116131807605963,4.380023241043091,2019-07-25 12:16:00:443,-178.8416669782298,-179.08131925878152,0,-46.78095245361328,13.79438304901123,-38.68424987792969
0.08865603059530258,-0.03802622854709625,9.794858932495117,0.000642511344763791,0.008509279259858839,0.002915275320410799,4.3899970054626465,2019-07-25 12:16:00:453,-178.85922733021073,-179.09560397182136,0,-46.78095245361328,13.79438304901123,-38.68424987792969
0.06710328161716461,-0.07155272364616394,9.83796501159668,-0.004152349276935158,0.00904204151503729,-0.0026787288791115674,4.400023698806763,2019-07-25 12:16:00:463,-178.87931743316662,-179.10301989287188,0,-46.78095245361328,13.79438304901123,-38.68424987792969
0.07189278304576874,-0.04281572997570038,9.787674903869629,-0.0006893944232194946,0.00557908685637737,-0.0002812985032435118,4.410001039505005,2019-07-25 12:16:00:473,-178.89643976662208,-179.11556055547683,0,-46.78095245361328,13.79438304901123,-38.68424987792969
0.06470853090286255,-0.04281572997570038,9.792464256286621,0.003572703943301005,0.00557908685637737,-0.0005476796633420271,4.420028209686279,2019-07-25 12:16:00:483,-178.91408004095618,-179.1302505922777,0,-46.78095245361328,13.79438304901123,-38.68424987792969
0.09584027528762817,-0.061973728239536285,9.794858932495117,0.0022407983053548824,0.003448037575589248,0.0005178449445427432,4.43001651763916,2019-07-25 12:16:00:493,-178.92652010169112,-179.14165200963046,0,-46.78095245361328,13.79438304901123,-38.68424987792969
0.11739302426576614,-0.06436847895383835,9.79964828491211,-0.0006893944232194946,0.002915275320410799,0.001050607232230483,4.440021991729736,2019-07-25 12:16:00:503,-178.9359008973926,-179.1509048849298,0,-46.78095245361328,13.79438304901123,-38.68424987792969
0.09584027528762817,-0.06436847895383835,9.811622619628906,0.00010974903269408318,0.0023825130652323496,-0.0016132042387175067,4.450023889541626,2019-07-25 12:16:00:513,-178.94732792331422,-179.16043082987366,0,-46.78095245361328,13.79438304901123,-38.68424987792969
0.10302452743053436,-0.040420979261398315,9.840359687805176,0.0030399416881225563,0.004779943473609696,0.0007842261046412585,4.460013389587402,2019-07-25 12:16:00:523,-178.95906565086412,-179.17422032414194,0,-46.78095245361328,13.79438304901123,-38.68424987792969
0.07907702773809433,-0.05957897752523422,9.794858932495117,-0.0014885378710057496,0.001849750680016738,0.0007842261046412585,4.47002911567688,2019-07-25 12:16:00:533,-178.9716734617596,-179.18292864113968,0,-46.78095245361328,13.79438304901123,-38.68424987792969
0.05991903319954872,-0.09071072190999985,9.804438591003418,-0.0014885378710057496,0.004513562346020471,0.0005178449445427432,4.4800145626068115,2019-07-25 12:16:00:543,-178.9877675801383,-179.18783375759097,0,-46.78095245361328,13.79438304901123,-38.68424987792969
0.09344552457332611,-0.073947474360466,9.873886108398438,-0.005217873787292057,0.003980799830767698,-0.0013468231111282822,4.490020275115967,2019-07-25 12:16:00:553,-178.99940420604628,-179.19256375303127,0,-46.78095245361328,13.79438304901123,-38.68424987792969
