ACCELEROMETER X (m/s²),ACCELEROMETER Y (m/s²),ACCELEROMETER Z (m/s²),GYROSCOPE X (rad/s),GYROSCOPE Y (rad/s),GYROSCOPE Z (rad/s),Time since start in ms ,YYYY-MO-DD HH-MI-SS_SSS,Pitch (Deg),Roll (Deg),Heading (Deg),MagX,MagY,MagZ
-0.16580528020858765,-0.32214173674583435,9.587152481079102,-0.002171006319889343,0.012774840451000838,0.01858967376005311,0.0,2019-08-06 14:26:37:659,3.5801839058697014,-3.5615101142784114,0,-40.78339385986328,42.58266067504883,-43.482295989990234
-0.10114704072475433,-0.3125627338886261,9.656600952148438,-0.004568436468192365,0.013041222098738713,0.013794813463447072,0.010019779205322266,2019-08-06 14:26:37:669,7.089240783532541,-7.050631868712105,0,-40.78339385986328,42.58266067504883,-43.482295989990234
-0.15143679082393646,-0.34129971265792847,9.627863883972168,-0.0037692930854246903,0.01357398435391716,0.015126719621541844,0.01999831199645996,2019-08-06 14:26:37:679,10.521827921541627,-10.466902576569414,0,-40.78339385986328,42.58266067504883,-43.482295989990234
-0.13946303725242615,-0.2862204909324646,9.654206275939941,-0.003236530830246241,0.01410674660909561,0.013528432856006497,0.03001689910888672,2019-08-06 14:26:37:689,13.886903169182519,-13.821780562884953,0,-40.78339385986328,42.58266067504883,-43.482295989990234
-0.1298840343952179,-0.3245364725589752,9.601521492004395,-0.002171006319889343,0.011176553685465489,0.018056912545171964,0.04001450538635254,2019-08-06 14:26:37:699,17.18739062596147,-17.10540841736602,0,-40.78339385986328,42.58266067504883,-43.482295989990234
-0.10833129286766052,-0.31016796827316284,9.658995628356934,0.0002264239747054862,0.011442934292906064,0.0113973838352927,0.050020694732666016,2019-08-06 14:26:37:709,20.424362069017203,-20.326642664942387,0,-40.78339385986328,42.58266067504883,-43.482295989990234
-0.10833129286766052,-0.3053784668445587,9.694916725158691,0.0004928051185493561,0.01570503337463096,0.01725776864225564,0.06000256538391113,2019-08-06 14:26:37:719,23.594268497267297,-23.484302957356906,0,-40.78339385986328,42.58266067504883,-43.482295989990234
-0.1226997897028923,-0.3245364725589752,9.613494873046875,-0.0003063383292368989,0.015438651726893083,0.01779053193773139,0.07001590728759766,2019-08-06 14:26:37:729,26.699077924655118,-26.57577503669082,0,-40.78339385986328,42.58266067504883,-43.482295989990234
-0.0963575467467308,-0.3173522353172302,9.647021293640137,-0.0016382440647108938,0.012774840451000838,0.014327575718625522,0.08001565933227539,2019-08-06 14:26:37:739,29.746478096187083,-29.605656782820063,0,-40.78339385986328,42.58266067504883,-43.482295989990234
-0.09875229001045227,-0.33651024103164673,9.625469207763672,0.0015583297264341264,0.013307602706179285,0.01486033797380397,0.09000110626220703,2019-08-06 14:26:37:749,32.732331124416866,-32.574372017453754,0,-40.78339385986328,42.58266067504883,-43.482295989990234
-0.1035417914390564,-0.300588995218277,9.663784980773926,-0.0013718629371216693,0.01756970178790418,0.01858967376005311,0.10001444816589355,2019-08-06 14:26:37:759,35.65552863195577,-35.486481394175335,0,-40.78339385986328,42.58266067504883,-43.482295989990234
-0.11072604358196259,-0.307773232460022,9.62067985534668,-0.003502911957835466,0.015971413982071532,0.01832329315261254,0.1100006103515625,2019-08-06 14:26:37:769,38.52027458626228,-38.33814135075585,0,-40.78339385986328,42.58266067504883,-43.482295989990234
-0.08917329460382462,-0.3125627338886261,9.611100196838379,0.001824710854023351,0.014639508864274061,0.016458625779636617,0.1200113296508789,2019-08-06 14:26:37:779,41.3310085394431,-41.13515098604617,0,-40.78339385986328,42.58266067504883,-43.482295989990234
-0.10114704072475433,-0.2742467224597931,9.637442588806152,-0.0003063383292368989,0.012242078195822388,0.011131002187554825,0.1300182342529297,2019-08-06 14:26:37:789,44.08548352226464,-43.87967602774495,0,-40.78339385986328,42.58266067504883,-43.482295989990234
-0.10593654215335846,-0.3532734811306,9.67336368560791,0.005820428027936045,0.013840364961357736,0.01539310126927972,0.14001798629760742,2019-08-06 14:26:37:799,46.78345385951859,-46.56352007616462,0,-40.78339385986328,42.58266067504883,-43.482295989990234
-0.10593654215335846,-0.33411547541618347,9.66139030456543,0.003955759874737148,0.012508459843560263,0.019122437055528865,0.15002107620239258,2019-08-06 14:26:37:809,49.42819473949813,-49.19485862271726,0,-40.78339385986328,42.58266067504883,-43.482295989990234
-0.08438379317522049,-0.32932597398757935,9.651811599731445,-0.0013718629371216693,0.012508459843560263,0.01299567060082805,0.15999841690063477,2019-08-06 14:26:37:819,52.022605028425225,-51.77110868779115,0,-40.78339385986328,42.58266067504883,-43.482295989990234
-0.11551553755998611,-0.33411547541618347,9.675758361816406,-0.0037692930854246903,0.014905889471714633,0.01486033797380397,0.1700124740600586,2019-08-06 14:26:37:829,54.560091485300596,-54.29401297051923,0,-40.78339385986328,42.58266067504883,-43.482295989990234
-0.10114704072475433,-0.27664148807525635,9.658995628356934,0.0015583297264341264,0.015172271119452508,0.010864621580114251,0.18000102043151855,2019-08-06 14:26:37:839,57.04838084683598,-56.776195724354906,0,-40.78339385986328,42.58266067504883,-43.482295989990234
-0.12748928368091583,-0.34129971265792847,9.658995628356934,0.001824710854023351,0.011442934292906064,0.01193014609047115,0.19001269340515137,2019-08-06 14:26:37:849,59.48585645234242,-59.201223596717355,0,-40.78339385986328,42.58266067504883,-43.482295989990234
-0.12030503898859024,-0.3317207396030426,9.656600952148438,0.0004928051185493561,0.015971413982071532,0.013262051208268621,0.20000457763671875,2019-08-06 14:26:37:859,61.87290322796927,-61.57812692426512,0,-40.78339385986328,42.58266067504883,-43.482295989990234
-0.1035417914390564,-0.3173522353172302,9.615889549255371,0.001824710854023351,0.013840364961357736,0.0113973838352927,0.21001219749450684,2019-08-06 14:26:37:869,64.21532940455042,-63.90978492379414,0,-40.78339385986328,42.58266067504883,-43.482295989990234
-0.14664728939533234,-0.33411547541618347,9.682943344116211,-0.0016382440647108938,0.01810246300278533,0.009799097069757354,0.22001290321350098,2019-08-06 14:26:37:879,66.50350413090605,-66.19114449998776,0,-40.78339385986328,42.58266067504883,-43.482295989990234
-0.11072604358196259,-0.34848397970199585,9.584757804870605,-0.002171006319889343,0.013041222098738713,0.008733572559400455,0.23000121116638184,2019-08-06 14:26:37:889,68.7528826041523,-68.42445900101235,0,-42.28278350830078,42.882537841796875,-42.58266067504883
-0.11551553755998611,-0.3125627338886261,9.589548110961914,-0.0005727194893354142,0.012242078195822388,0.0023404247170360896,0.2400045394897461,2019-08-06 14:26:37:899,70.95714574136534,-70.61831125835553,0,-42.28278350830078,42.882537841796875,-42.58266067504883
-0.15383154153823853,-0.3389049768447876,9.611100196838379,-0.004035674213013915,0.014639508864274061,-0.0021880547120550534,0.25000548362731934,2019-08-06 14:26:37:909,73.11144247167846,-72.76328844831228,0,-42.28278350830078,42.882537841796875,-42.58266067504883
-0.13227878510951996,-0.3508787155151367,9.639837265014648,0.0023574731092018,0.017036938492428433,-0.004052722605179625,0.2600224018096924,2019-08-06 14:26:37:919,75.2239078417451,-74.8676570653293,0,-42.28278350830078,42.882537841796875,-42.58266067504883
-0.14664728939533234,-0.31495746970176697,9.611100196838379,-0.0003063383292368989,0.008512742409573244,-0.001655292456876604,0.2700212001800537,2019-08-06 14:26:37:929,77.29716720874409,-76.93259351108443,0,-42.28278350830078,42.882537841796875,-42.58266067504883
-0.11551553755998611,-0.3245364725589752,9.778733253479004,0.0002264239747054862,0.015438651726893083,-5.7005565367755386e-05,0.28001904487609863,2019-08-06 14:26:37:939,79.3290209545629,-78.95605207207815,0,-42.28278350830078,42.882537841796875,-42.58266067504883
-0.12509453296661377,-0.28861522674560547,9.654206275939941,-0.005900342106138487,0.010910172037727614,-5.7005565367755386e-05,0.28999924659729004,2019-08-06 14:26:37:949,81.32147922846876,-80.93937728533463,0,-42.28278350830078,42.882537841796875,-42.58266067504883
-0.15383154153823853,-0.3460892140865326,9.627863883972168,-0.0011054818095324445,0.014639508864274061,-0.004052722605179625,0.3000168800354004,2019-08-06 14:26:37:959,83.26850749698625,-82.87879384874546,0,-42.28278350830078,42.882537841796875,-42.58266067504883
-0.13946303725242615,-0.28382572531700134,9.64462661743164,-0.003236530830246241,0.013840364961357736,-0.0013889113292873795,0.30998849868774414,2019-08-06 14:26:37:969,85.17881906611909,-84.78569311365403,0,-42.28278350830078,42.882537841796875,-42.58266067504883
-0.13706828653812408,-0.307773232460022,9.639837265014648,0.00608680915552527,0.011176553685465489,-0.005118247115536523,0.3200078010559082,2019-08-06 14:26:37:979,87.05266234235918,-86.65683010472843,0,-42.28278350830078,42.882537841796875,-42.58266067504883
-0.11791028827428818,-0.2814309895038605,9.635047912597656,-0.002171006319889343,0.012508459843560263,-0.006982915528809746,0.3300039768218994,2019-08-06 14:26:37:989,88.89056569097045,-88.48901331317803,0,-42.28278350830078,42.882537841796875,-42.58266067504883
-0.14664728939533234,-0.32932597398757935,9.647021293640137,0.0010255674062370958,0.015971413982071532,-0.0053846282431257485,0.340012788772583,2019-08-06 14:26:37:999,90.68636047942618,-90.28070580779492,0,-42.28278350830078,42.882537841796875,-42.58266067504883
-0.15383154153823853,-0.3173522353172302,9.654206275939941,-0.0016382440647108938,0.014905889471714633,-0.00431910373276885,0.350003719329834,2019-08-06 14:26:38:009,92.44601358164569,-92.03651777464846,0,-42.28278350830078,42.882537841796875,-42.58266067504883
-0.15862104296684265,-0.3197469711303711,9.594337463378906,0.0002264239747054862,0.01410674660909561,-0.006450152753482647,0.3599817752838135,2019-08-06 14:26:38:019,94.17024633145672,-93.75773889684832,0,-42.28278350830078,42.882537841796875,-42.58266067504883
-0.16580528020858765,-0.3245364725589752,9.606310844421387,0.0015583297264341264,0.014639508864274061,-0.0032535792224119516,0.3699965476989746,2019-08-06 14:26:38:029,95.85883261577904,-95.4447618911481,0,-42.28278350830078,42.882537841796875,-42.58266067504883
-0.14664728939533234,-0.300588995218277,9.618284225463867,-0.004035674213013915,0.01410674660909561,-0.012044157473153664,0.379993200302124,2019-08-06 14:26:38:039,97.51626759501752,-97.09780107773636,0,-42.28278350830078,42.882537841796875,-42.58266067504883
-0.15143679082393646,-0.36045771837234497,9.6901273727417,0.0010255674062370958,0.013041222098738713,-0.004851865987947299,0.39000940322875977,2019-08-06 14:26:38:049,99.14070090019135,-98.71381520487897,0,-42.28278350830078,42.882537841796875,-42.58266067504883
-0.19933177530765533,-0.2910099923610687,9.649415969848633,-3.9957173202045016e-05,0.012242078195822388,-0.007249296656398971,0.3999948501586914,2019-08-06 14:26:38:059,100.72735471345784,-100.30496810176469,0,-42.28278350830078,42.882537841796875,-42.58266067504883
-0.1873580366373062,-0.2790362238883972,9.639837265014648,0.0002264239747054862,0.016237795629809405,-0.007515677783988195,0.40999698638916016,2019-08-06 14:26:38:069,102.28141917845707,-101.8658353127835,0,-42.28278350830078,42.882537841796875,-42.58266067504883
-0.21848978102207184,-0.3269312381744385,9.70210075378418,0.0010255674062370958,0.016237795629809405,-0.01071225131505889,0.4199967384338379,2019-08-06 14:26:38:079,103.80087204327742,-103.39049518776741,0,-42.28278350830078,42.882537841796875,-42.58266067504883
-0.1873580366373062,-0.28861522674560547,9.64462661743164,-0.0008391006169246387,0.015172271119452508,-0.012576919728332112,0.4299755096435547,2019-08-06 14:26:38:089,105.29409554081182,-104.88793386359261,0,-42.28278350830078,42.882537841796875,-42.58266067504883
-0.16101577877998352,-0.2934047281742096,9.654206275939941,-0.0013718629371216693,0.017036938492428433,-0.007515677783988195,0.43999695777893066,2019-08-06 14:26:38:099,106.75951673868184,-106.35458798599038,0,-42.28278350830078,42.882537841796875,-42.58266067504883
-0.16580528020858765,-0.2981942296028137,9.639837265014648,-0.0005727194893354142,0.013840364961357736,-0.00431910373276885,0.44999170303344727,2019-08-06 14:26:38:109,108.19685132718917,-107.79173889546414,0,-42.28278350830078,42.882537841796875,-42.58266067504883
-0.13467353582382202,-0.2981942296028137,9.666179656982422,0.0031566164919694735,0.016237795629809405,-0.01017948905988044,0.46001601219177246,2019-08-06 14:26:38:119,109.60781026129597,-109.2023414525868,0,-42.28278350830078,42.882537841796875,-42.58266067504883
-0.1490420401096344,-0.32214173674583435,9.668574333190918,-0.002171006319889343,0.016770557884987856,-0.01071225131505889,0.4700794219970703,2019-08-06 14:26:38:129,110.98851469543919,-110.5789018847097,0,-42.28278350830078,42.882537841796875,-42.58266067504883
-0.15862104296684265,-0.33411547541618347,9.670969009399414,-0.002703768575067792,0.011975696548084513,-0.008581202294345095,0.48000574111938477,2019-08-06 14:26:38:139,112.34327624692168,-111.92624318233608,0,-41.38315200805664,41.982906341552734,-43.482295989990234
-0.11072604358196259,-0.307773232460022,9.615889549255371,-0.0003063383292368989,0.009844647527370716,-0.011777775825415789,0.49002575874328613,2019-08-06 14:26:38:149,113.67767737584424,-113.25088146538985,0,-41.38315200805664,41.982906341552734,-43.482295989990234
-0.15862104296684265,-0.30298373103141785,9.613494873046875,-0.0019046251923001184,0.014639508864274061,-0.00778205891157742,0.5000042915344238,2019-08-06 14:26:38:159,114.97701571189046,-114.5486933868754,0,-41.38315200805664,41.982906341552734,-43.482295989990234
-0.13946303725242615,-0.28382572531700134,9.63265323638916,0.004754903517579147,0.011442934292906064,-0.008847582901785668,0.5100300312042236,2019-08-06 14:26:38:169,116.25444408405545,-115.82664167427987,0,-41.38315200805664,41.982906341552734,-43.482295989990234
-0.1490420401096344,-0.307773232460022,9.627863883972168,-0.002171006319889343,0.010377409782549165,-0.008847582901785668,0.5199873447418213,2019-08-06 14:26:38:179,117.50581549512522,-117.07227609602114,0,-41.38315200805664,41.982906341552734,-43.482295989990234
-0.1490420401096344,-0.32214173674583435,9.623074531555176,0.001824710854023351,0.011442934292906064,-0.007515677783988195,0.5300052165985107,2019-08-06 14:26:38:189,118.73151600488261,-118.2935106639005,0,-41.38315200805664,41.982906341552734,-43.482295989990234
-0.10833129286766052,-0.2814309895038605,9.651811599731445,-0.0024373874474785677,0.017036938492428433,-0.005118247115536523,0.5399904251098633,2019-08-06 14:26:38:199,119.93447247637667,-119.49287033138,0,-41.38315200805664,41.982906341552734,-43.482295989990234
-0.11791028827428818,-0.2646677494049072,9.649415969848633,-0.0016382440647108938,0.016504176237249982,-0.004052722605179625,0.5499973297119141,2019-08-06 14:26:38:209,121.11250782619497,-120.67066969960747,0,-41.38315200805664,41.982906341552734,-43.482295989990234
-0.14425253868103027,-0.3125627338886261,9.654206275939941,0.0002264239747054862,0.01357398435391716,-0.0027208169672335025,0.5599937438964844,2019-08-06 14:26:38:219,122.26551770485877,-121.82029640752668,0,-41.38315200805664,41.982906341552734,-43.482295989990234
-0.11312079429626465,-0.2981942296028137,9.615889549255371,-0.0005727194893354142,0.01357398435391716,0.00047575672638364575,0.5699982643127441,2019-08-06 14:26:38:229,123.39910226566278,-122.94804463994602,0,-41.38315200805664,41.982906341552734,-43.482295989990234
-0.17059478163719177,-0.30298373103141785,9.623074531555176,-0.0011054818095324445,0.015438651726893083,-0.0053846282431257485,0.5799927711486816,2019-08-06 14:26:38:239,124.50214390360972,-124.05239597771018,0,-41.38315200805664,41.982906341552734,-43.482295989990234
-0.14425253868103027,-0.3125627338886261,9.599126815795898,-3.9957173202045016e-05,0.017036938492428433,-5.7005565367755386e-05,0.5900497436523438,2019-08-06 14:26:38:249,125.58526115799411,-125.13402585116154,0,-41.38315200805664,41.982906341552734,-43.482295989990234
-0.1226997897028923,-0.24311499297618866,9.60391616821289,0.0015583297264341264,0.014373127216536186,-0.0013889113292873795,0.5999953746795654,2019-08-06 14:26:38:259,126.65088988209115,-126.20321388928957,0,-41.38315200805664,41.982906341552734,-43.482295989990234
-0.18975278735160828,-0.3197469711303711,9.589548110961914,-0.003502911957835466,0.01756970178790418,0.0020740435894468653,0.609997034072876,2019-08-06 14:26:38:269,127.68533328500727,-127.23898797275945,0,-41.38315200805664,41.982906341552734,-43.482295989990234
-0.13946303725242615,-0.300588995218277,9.534468650817871,-0.0003063383292368989,0.01410674660909561,0.0020740435894468653,0.6200037002563477,2019-08-06 14:26:38:279,128.70694002381967,-128.2579212757636,0,-41.38315200805664,41.982906341552734,-43.482295989990234
-0.16580528020858765,-0.31016796827316284,9.615889549255371,-0.0019046251923001184,0.01410674660909561,0.0007421378864821609,0.6299951076507568,2019-08-06 14:26:38:289,129.70513022492943,-129.25474474044427,0,-41.38315200805664,41.982906341552734,-43.482295989990234
-0.1562262922525406,-0.36045771837234497,9.558416366577148,0.003955759874737148,0.015438651726893083,0.001541281334268416,0.6399881839752197,2019-08-06 14:26:38:299,130.6836372397585,-130.22867627288704,0,-41.38315200805664,41.982906341552734,-43.482295989990234
-0.17298953235149384,-0.2790362238883972,9.62067985534668,-0.0061667232337277115,0.014639508864274061,0.0031395680998037635,0.6503477096557617,2019-08-06 14:26:38:309,131.64084639972654,-131.18728906540835,0,-41.38315200805664,41.982906341552734,-43.482295989990234
-0.15143679082393646,-0.300588995218277,9.64462661743164,0.001824710854023351,0.01410674660909561,0.0020740435894468653,0.6599822044372559,2019-08-06 14:26:38:319,132.58240675091605,-132.12882781767365,0,-41.38315200805664,41.982906341552734,-43.482295989990234
-0.2208845317363739,-0.28861522674560547,9.637442588806152,0.0002264239747054862,0.014373127216536186,-0.0005897678815011245,0.6700000762939453,2019-08-06 14:26:38:329,133.49641458513605,-133.05207181953608,0,-41.38315200805664,41.982906341552734,-43.482295989990234
-0.19214753806591034,-0.31016796827316284,9.658995628356934,-0.0011054818095324445,0.010377409782549165,0.0020740435894468653,0.679999589920044,2019-08-06 14:26:38:339,134.39786684784843,-133.9536248872848,0,-41.38315200805664,41.982906341552734,-43.482295989990234
-0.16341052949428558,-0.2646677494049072,9.608705520629883,0.0023574731092018,0.010910172037727614,0.0018076624618576407,0.6900122165679932,2019-08-06 14:26:38:349,135.28428958453887,-134.8443219951431,0,-41.38315200805664,41.982906341552734,-43.482295989990234
-0.17298953235149384,-0.2862204909324646,9.630258560180664,-0.0011054818095324445,0.016770557884987856,0.0007421378864821609,0.7000167369842529,2019-08-06 14:26:38:359,136.14860087998957,-135.71276686408928,0,-41.38315200805664,41.982906341552734,-43.482295989990234
-0.2089107781648636,-0.31495746970176697,9.637442588806152,0.0012919485988449018,0.015438651726893083,0.0007421378864821609,0.7100143432617188,2019-08-06 14:26:38:369,136.99212604058837,-136.56180088761832,0,-41.38315200805664,41.982906341552734,-43.482295989990234
-0.18975278735160828,-0.3317207396030426,9.630258560180664,-0.0008391006169246387,0.012774840451000838,0.0018076624618576407,0.7200207710266113,2019-08-06 14:26:38:379,137.82252987155147,-137.3906371792434,0,-41.38315200805664,41.982906341552734,-43.482295989990234
-0.18975278735160828,-0.27664148807525635,9.613494873046875,0.0007591862786478714,0.016770557884987856,-0.001655292456876604,0.7300224304199219,2019-08-06 14:26:38:389,138.63404572705178,-138.21028459466643,0,-41.233211517333984,42.43272399902344,-42.43272399902344
-0.1945422738790512,-0.2790362238883972,9.64462661743164,-0.0011054818095324445,0.014639508864274061,0.0031395680998037635,0.740015983581543,2019-08-06 14:26:38:399,139.43003885762306,-139.0123144433379,0,-41.233211517333984,42.43272399902344,-42.43272399902344
-0.13946303725242615,-0.300588995218277,9.618284225463867,-0.0016382440647108938,0.014639508864274061,0.003938711482571438,0.7500104904174805,2019-08-06 14:26:38:409,140.21660816809992,-139.79534847942028,0,-41.233211517333984,42.43272399902344,-42.43272399902344
-0.1825685352087021,-0.3053784668445587,9.651811599731445,-0.0061667232337277115,0.010377409782549165,0.0007421378864821609,0.7600204944610596,2019-08-06 14:26:38:419,140.98477032869917,-140.5597313368412,0,-41.233211517333984,42.43272399902344,-42.43272399902344
-0.19933177530765533,-0.28861522674560547,9.635047912597656,0.0020910919816125757,0.017036938492428433,-0.000856149009090349,0.7700090408325195,2019-08-06 14:26:38:429,141.73181611427893,-141.31539418337806,0,-41.233211517333984,42.43272399902344,-42.43272399902344
-0.20412127673625946,-0.30298373103141785,9.639837265014648,0.002890235364380249,0.011176553685465489,0.0020740435894468653,0.7800137996673584,2019-08-06 14:26:38:439,142.46664031945522,-142.05470522769318,0,-41.233211517333984,42.43272399902344,-42.43272399902344
-0.15383154153823853,-0.34848397970199585,9.637442588806152,0.004488522389989922,0.014905889471714633,0.0018076624618576407,0.7900102138519287,2019-08-06 14:26:38:449,143.19065148271733,-142.77471296254546,0,-41.233211517333984,42.43272399902344,-42.43272399902344
-0.12748928368091583,-0.307773232460022,9.680547714233398,-0.0008391006169246387,0.016770557884987856,-0.0027208169672335025,0.800011157989502,2019-08-06 14:26:38:459,143.9023305004534,-143.48232772806753,0,-41.233211517333984,42.43272399902344,-42.43272399902344
-0.14425253868103027,-0.2934047281742096,9.647021293640137,-0.0005727194893354142,0.012774840451000838,0.0028731869722145387,0.810021162033081,2019-08-06 14:26:38:469,144.59996998530954,-144.1775181075753,0,-41.233211517333984,42.43272399902344,-42.43272399902344
-0.1490420401096344,-0.3125627338886261,9.59194278717041,0.0020910919816125757,0.01357398435391716,0.005803379635770335,0.8200089931488037,2019-08-06 14:26:38:479,145.2825539923601,-144.85781290227513,0,-41.233211517333984,42.43272399902344,-42.43272399902344
-0.1418577879667282,-0.307773232460022,9.6901273727417,0.0012919485988449018,0.011975696548084513,0.00047575672638364575,0.8300118446350098,2019-08-06 14:26:38:489,145.95340232308024,-145.52499848195657,0,-41.233211517333984,42.43272399902344,-42.43272399902344
-0.1753842830657959,-0.307773232460022,9.649415969848633,-0.005101198723370813,0.01357398435391716,-0.0019216735844658289,0.840012788772583,2019-08-06 14:26:38:499,146.60588633039234,-146.17509672785033,0,-41.233211517333984,42.43272399902344,-42.43272399902344
-0.13706828653812408,-0.307773232460022,9.663784980773926,0.0007591862786478714,0.017836082395344753,0.0028731869722145387,0.8500134944915771,2019-08-06 14:26:38:509,147.24750072080687,-146.81553819770488,0,-41.233211517333984,42.43272399902344,-42.43272399902344
-0.12030503898859024,-0.2790362238883972,9.62067985534668,-0.002171006319889343,0.012242078195822388,0.003672330354982212,0.8600215911865234,2019-08-06 14:26:38:519,147.881342489047,-147.4447808439419,0,-41.233211517333984,42.43272399902344,-42.43272399902344
-0.12509453296661377,-0.28382572531700134,9.627863883972168,0.0015583297264341264,0.017303320140166306,-0.0019216735844658289,0.8700292110443115,2019-08-06 14:26:38:529,148.49910443774212,-148.06298952354476,0,-41.233211517333984,42.43272399902344,-42.43272399902344
-0.09396279603242874,-0.26227298378944397,9.630258560180664,-0.0037692930854246903,0.016770557884987856,-0.001655292456876604,0.8800115585327148,2019-08-06 14:26:38:539,149.10854193944215,-148.66841656322558,0,-41.233211517333984,42.43272399902344,-42.43272399902344
-0.13227878510951996,-0.28861522674560547,9.63265323638916,-0.003502911957835466,0.016237795629809405,0.0028731869722145387,0.8900110721588135,2019-08-06 14:26:38:549,149.70151894052114,-149.2587575944368,0,-41.233211517333984,42.43272399902344,-42.43272399902344
-0.08198904246091843,-0.3245364725589752,9.630258560180664,-0.0037692930854246903,0.01357398435391716,-0.0021880547120550534,0.900015115737915,2019-08-06 14:26:38:559,150.29010797087582,-149.83286277277784,0,-41.233211517333984,42.43272399902344,-42.43272399902344
-0.17298953235149384,-0.2910099923610687,9.608705520629883,-0.002970149702657017,0.013307602706179285,0.0020740435894468653,0.9100117683410645,2019-08-06 14:26:38:569,150.85620794416275,-150.39984365837208,0,-41.233211517333984,42.43272399902344,-42.43272399902344
-0.13227878510951996,-0.2910099923610687,9.58236312866211,-0.002703768575067792,0.01410674660909561,-0.000856149009090349,0.9200174808502197,2019-08-06 14:26:38:579,151.415340667564,-150.9555377544996,0,-41.233211517333984,42.43272399902344,-42.43272399902344
-0.11791028827428818,-0.3245364725589752,9.66139030456543,-0.002703768575067792,0.016504176237249982,0.0031395680998037635,0.9300155639648438,2019-08-06 14:26:38:589,151.96378418052555,-151.49643106116613,0,-41.233211517333984,42.43272399902344,-42.43272399902344
-0.1298840343952179,-0.3317207396030426,9.67336368560791,-0.003502911957835466,0.01570503337463096,0.0023404247170360896,0.9400150775909424,2019-08-06 14:26:38:599,152.5003053128826,-152.0252551028776,0,-41.233211517333984,42.43272399902344,-42.43272399902344
-0.10833129286766052,-0.29579949378967285,9.60391616821289,-0.0037692930854246903,0.015971413982071532,0.0018076624618576407,0.9500179290771484,2019-08-06 14:26:38:609,153.02840344770638,-152.54735003235524,0,-41.233211517333984,42.43272399902344,-42.43272399902344
-0.11551553755998611,-0.33411547541618347,9.613494873046875,-0.0003063383292368989,0.01570503337463096,-0.0003233867214026093,0.9600114822387695,2019-08-06 14:26:38:619,153.54525407567797,-153.05642104483366,0,-41.233211517333984,42.43272399902344,-42.43272399902344
-0.18017378449440002,-0.30298373103141785,9.668574333190918,-0.0008391006169246387,0.012508459843560263,-0.0013889113292873795,0.9700121879577637,2019-08-06 14:26:38:629,154.04597336125408,-153.5589236728752,0,-41.233211517333984,42.43272399902344,-42.43272399902344
-0.15383154153823853,-0.34848397970199585,9.611100196838379,-0.0008391006169246387,0.011442934292906064,-0.000856149009090349,0.9800136089324951,2019-08-06 14:26:38:639,154.54028827452504,-154.04574300330165,0,-40.63345718383789,41.53308868408203,-43.33235549926758
-0.11551553755998611,-0.2910099923610687,9.658995628356934,-0.0019046251923001184,0.01410674660909561,-0.0032535792224119516,0.9900133609771729,2019-08-06 14:26:38:649,155.0278580070367,-154.52924457342274,0,-40.63345718383789,41.53308868408203,-43.33235549926758
-0.14664728939533234,-0.3245364725589752,9.601521492004395,-0.0003063383292368989,0.016504176237249982,0.00020937558253977584,1.0000207424163818,2019-08-06 14:26:38:659,155.50052633781033,-154.9997697374665,0,-40.63345718383789,41.53308868408203,-43.33235549926758
-0.16341052949428558,-0.300588995218277,9.606310844421387,0.0023574731092018,0.015971413982071532,-5.7005565367755386e-05,1.0100436210632324,2019-08-06 14:26:38:669,155.9620363653767,-155.46525618790793,0,-40.63345718383789,41.53308868408203,-43.33235549926758
-0.11312079429626465,-0.300588995218277,9.599126815795898,0.0002264239747054862,0.015971413982071532,-0.0005897678815011245,1.0200119018554688,2019-08-06 14:26:38:679,156.4203527530087,-155.92020608743036,0,-40.63345718383789,41.53308868408203,-43.33235549926758
-0.1035417914390564,-0.3053784668445587,9.630258560180664,0.0004928051185493561,0.014373127216536186,-0.004585484860358075,1.0300123691558838,2019-08-06 14:26:38:689,156.8715547467898,-156.3657535237443,0,-40.63345718383789,41.53308868408203,-43.33235549926758
-0.13706828653812408,-0.36764198541641235,9.618284225463867,0.0007591862786478714,0.019700750808617978,0.0010085190140713856,1.040010929107666,2019-08-06 14:26:38:699,157.3067341865368,-156.79508537987903,0,-40.63345718383789,41.53308868408203,-43.33235549926758
-0.1490420401096344,-0.3125627338886261,9.658995628356934,0.0002264239747054862,0.014373127216536186,0.0018076624618576407,1.050018310546875,2019-08-06 14:26:38:709,157.7348425364128,-157.2222422901488,0,-40.63345718383789,41.53308868408203,-43.33235549926758
-0.15143679082393646,-0.3125627338886261,9.73083782196045,-0.0011054818095324445,0.016237795629809405,0.004737855125413436,1.0599968433380127,2019-08-06 14:26:38:719,158.15321581252704,-157.64038292418647,0,-40.63345718383789,41.53308868408203,-43.33235549926758
-0.1418577879667282,-0.3173522353172302,9.649415969848633,0.0002264239747054862,0.013307602706179285,-0.0021880547120550534,1.0700151920318604,2019-08-06 14:26:38:729,158.56582048862856,-158.050029076556,0,-40.63345718383789,41.53308868408203,-43.33235549926758
-0.15143679082393646,-0.23593074083328247,9.625469207763672,0.0010255674062370958,0.010377409782549165,-0.0003233867214026093,1.0800116062164307,2019-08-06 14:26:38:739,158.9706521493775,-158.4615221261465,0,-40.63345718383789,41.53308868408203,-43.33235549926758
-0.1825685352087021,-0.3389049768447876,9.60391616821289,-0.003502911957835466,0.013840364961357736,-0.0003233867214026093,1.0900189876556396,2019-08-06 14:26:38:749,159.3616810200213,-158.84990281794057,0,-40.63345718383789,41.53308868408203,-43.33235549926758
-0.21609503030776978,-0.255088746547699,9.642231941223145,0.0012919485988449018,0.014639508864274061,0.004205092610160662,1.1000375747680664,2019-08-06 14:26:38:759,159.74053488765156,-159.24332299389016,0,-40.63345718383789,41.53308868408203,-43.33235549926758
-0.17059478163719177,-0.29579949378967285,9.560811042785645,0.0004928051185493561,0.017303320140166306,0.0012749002066791914,1.109989881515503,2019-08-06 14:26:38:769,160.11561018713732,-159.62329003909568,0,-40.78339385986328,41.68302917480469,-43.18241882324219
-0.2017265260219574,-0.2934047281742096,9.642231941223145,-0.0011054818095324445,0.012774840451000838,-0.008581202294345095,1.120016098022461,2019-08-06 14:26:38:779,160.48213575399802,-159.9953434263123,0,-40.78339385986328,41.68302917480469,-43.18241882324219
-0.1873580366373062,-0.2814309895038605,9.613494873046875,-0.002970149702657017,0.007979980154394795,-0.006450152753482647,1.130012035369873,2019-08-06 14:26:38:789,160.84568411352384,-160.36023288500613,0,-40.78339385986328,41.68302917480469,-43.18241882324219
-0.24962152540683746,-0.2814309895038605,9.596732139587402,-0.003236530830246241,0.012508459843560263,-0.004052722605179625,1.1400189399719238,2019-08-06 14:26:38:799,161.19194229709004,-160.71761450426456,0,-40.78339385986328,41.68302917480469,-43.18241882324219
-0.2280687838792801,-0.2670624852180481,9.642231941223145,-0.002970149702657017,0.009844647527370716,-0.009646726804701992,1.1500275135040283,2019-08-06 14:26:38:809,161.53547153990203,-161.06986254877822,0,-40.78339385986328,41.68302917480469,-43.18241882324219
-0.2017265260219574,-0.28861522674560547,9.668574333190918,-0.002171006319889343,0.01064379143028704,-0.007515677783988195,1.1600143909454346,2019-08-06 14:26:38:819,161.87488839793536,-161.41305147307529,0,-40.78339385986328,41.68302917480469,-43.18241882324219
-0.1873580366373062,-0.2646677494049072,9.685338020324707,-0.008031391647000934,0.01064379143028704,-0.012843300335772686,1.1700115203857422,2019-08-06 14:26:38:829,162.2092514696444,-161.74897589040341,0,-40.78339385986328,41.68302917480469,-43.18241882324219
-0.14664728939533234,-0.25748348236083984,9.706890106201172,-0.0037692930854246903,0.01570503337463096,-0.009113964549523543,1.1800189018249512,2019-08-06 14:26:38:839,162.5389309205076,-162.08148910188692,0,-40.78339385986328,41.68302917480469,-43.18241882324219
-0.10833129286766052,-0.3125627338886261,9.675758361816406,0.0010255674062370958,0.014639508864274061,-0.004585484860358075,1.1900100708007812,2019-08-06 14:26:38:849,162.86711018413774,-162.40343022799456,0,-40.78339385986328,41.68302917480469,-43.18241882324219
-0.1035417914390564,-0.31016796827316284,9.623074531555176,-0.0011054818095324445,0.013307602706179285,-0.008048440039166644,1.2000455856323242,2019-08-06 14:26:38:859,163.18993996284925,-162.71781667709996,0,-40.78339385986328,41.68302917480469,-43.18241882324219
-0.0963575467467308,-0.3269312381744385,9.654206275939941,0.0010255674062370958,0.011975696548084513,-0.0032535792224119516,1.2100133895874023,2019-08-06 14:26:38:869,163.5080016011551,-163.02524374017733,0,-40.78339385986328,41.68302917480469,-43.18241882324219
-0.14664728939533234,-0.3125627338886261,9.630258560180664,-0.0011054818095324445,0.01570503337463096,-0.00431910373276885,1.2200126647949219,2019-08-06 14:26:38:879,163.81157547163704,-163.3269390344056,0,-40.78339385986328,41.68302917480469,-43.18241882324219
-0.06762054562568665,-0.398773729801178,9.678153038024902,-0.0037692930854246903,0.014639508864274061,0.00047575672638364575,1.230015516281128,2019-08-06 14:26:38:889,164.11911525603304,-163.611094162678,0,-40.33357620239258,41.83296585083008,-44.231990814208984
-0.07001529633998871,-0.3652472198009491,9.618284225463867,-3.9957173202045016e-05,0.0183688436102259,0.0031395680998037635,1.24001145362854,2019-08-06 14:26:38:899,164.41808163484623,-163.89535545572528,0,-40.33357620239258,41.83296585083008,-44.231990814208984
-0.13227878510951996,-0.3532734811306,9.589548110961914,0.0007591862786478714,0.0183688436102259,0.003405949227392988,1.2499845027923584,2019-08-06 14:26:38:909,164.7036278948201,-164.17567768494,0,-40.33357620239258,41.83296585083008,-44.231990814208984
-0.08917329460382462,-0.31495746970176697,9.66139030456543,0.001824710854023351,0.015971413982071532,0.007934428656484131,1.260010004043579,2019-08-06 14:26:38:919,164.989988198485,-164.4558481504603,0,-40.33357620239258,41.83296585083008,-44.231990814208984
-0.08917329460382462,-0.35566821694374084,9.618284225463867,-0.0003063383292368989,0.015172271119452508,0.009799097069757354,1.2700135707855225,2019-08-06 14:26:38:929,165.27104244738308,-164.72420435558476,0,-40.33357620239258,41.83296585083008,-44.231990814208984
-0.15143679082393646,-0.30298373103141785,9.647021293640137,0.0034229976195586987,0.0183688436102259,0.009532715422019479,1.2800178527832031,2019-08-06 14:26:38:939,165.53731625098564,-164.99566518712578,0,-40.33357620239258,41.83296585083008,-44.231990814208984
-0.10833129286766052,-0.28861522674560547,9.6901273727417,0.004222141002326372,0.014373127216536186,0.014593957366363397,1.290025234222412,2019-08-06 14:26:38:949,165.80568318696385,-165.26400396801472,0,-40.33357620239258,41.83296585083008,-44.231990814208984
-0.13946303725242615,-0.28861522674560547,9.635047912597656,0.001824710854023351,0.011442934292906064,0.010598239932376376,1.3000364303588867,2019-08-06 14:26:38:959,166.066551676694,-165.5254342812354,0,-40.33357620239258,41.83296585083008,-44.231990814208984
-0.12030503898859024,-0.300588995218277,9.618284225463867,-0.003502911957835466,0.015971413982071532,0.008733572559400455,1.3100132942199707,2019-08-06 14:26:38:969,166.3219411542704,-165.7771629573761,0,-40.33357620239258,41.83296585083008,-44.231990814208984
-0.16580528020858765,-0.2790362238883972,9.59194278717041,-0.0019046251923001184,0.017303320140166306,0.0026068058446253144,1.3200087547302246,2019-08-06 14:26:38:979,166.5659847511868,-166.02722466407963,0,-40.33357620239258,41.83296585083008,-44.231990814208984
-0.1562262922525406,-0.26945722103118896,9.666179656982422,0.0002264239747054862,0.017036938492428433,0.007401666401305682,1.3300204277038574,2019-08-06 14:26:38:989,166.80656881892426,-166.2748718519323,0,-40.33357620239258,41.83296585083008,-44.231990814208984
-0.16101577877998352,-0.3053784668445587,9.670969009399414,0.0010255674062370958,0.014373127216536186,0.003938711482571438,1.3400065898895264,2019-08-06 14:26:38:999,167.04330108078068,-166.51377711937215,0,-40.33357620239258,41.83296585083008,-44.231990814208984
-0.13467353582382202,-0.2862204909324646,9.608705520629883,0.0002264239747054862,0.012508459843560263,-0.004052722605179625,1.3500115871429443,2019-08-06 14:26:39:009,167.27934821296083,-166.7495047668561,0,-40.33357620239258,41.83296585083008,-44.231990814208984
-0.16580528020858765,-0.3700367212295532,9.642231941223145,-0.0024373874474785677,0.01357398435391716,-0.000856149009090349,1.3600108623504639,2019-08-06 14:26:39:019,167.506437106635,-166.96919133030332,0,-40.33357620239258,41.83296585083008,-44.231990814208984
-0.1490420401096344,-0.32214173674583435,9.649415969848633,-0.0003063383292368989,0.015438651726893083,-0.003519960350001176,1.3700199127197266,2019-08-06 14:26:39:029,167.72993366925053,-167.19139362730073,0,-40.33357620239258,41.83296585083008,-44.231990814208984
-0.10114704072475433,-0.3269312381744385,9.642231941223145,0.0026238542367910244,0.015438651726893083,0.0012749002066791914,1.3800113201141357,2019-08-06 14:26:39:039,167.95465344573182,-167.41019903956874,0,-40.33357620239258,41.83296585083008,-44.231990814208984
-0.17777903378009796,-0.3436944782733917,9.658995628356934,0.0026238542367910244,0.010377409782549165,0.001541281334268416,1.3899853229522705,2019-08-06 14:26:39:049,168.16865980916253,-167.62270678606453,0,-40.33357620239258,41.83296585083008,-44.231990814208984
-0.17059478163719177,-0.28861522674560547,9.606310844421387,0.005287665772757595,0.012508459843560263,0.0020740435894468653,1.4000110626220703,2019-08-06 14:26:39:059,168.37789731593625,-167.8388113905107,0,-40.33357620239258,41.83296585083008,-44.231990814208984
-0.14664728939533234,-0.307773232460022,9.675758361816406,0.0010255674062370958,0.013307602706179285,0.0020740435894468653,1.4100127220153809,2019-08-06 14:26:39:069,168.58549958470863,-168.04617332098505,0,-40.33357620239258,41.83296585083008,-44.231990814208984
-0.15862104296684265,-0.31495746970176697,9.658995628356934,0.004222141002326372,0.01357398435391716,0.003938711482571438,1.4200208187103271,2019-08-06 14:26:39:079,168.78734499310957,-168.25027008263507,0,-40.33357620239258,41.83296585083008,-44.231990814208984
-0.13227878510951996,-0.33651024103164673,9.618284225463867,-3.9957173202045016e-05,0.011442934292906064,0.0018076624618576407,1.4300107955932617,2019-08-06 14:26:39:089,168.98942073369636,-168.4451670212136,0,-40.33357620239258,41.83296585083008,-44.231990814208984
-0.1873580366373062,-0.3389049768447876,9.630258560180664,-0.004035674213013915,0.013307602706179285,0.005803379635770335,1.4400086402893066,2019-08-06 14:26:39:099,169.1798705916291,-168.6336880841647,0,-40.33357620239258,41.83296585083008,-44.231990814208984
-0.14664728939533234,-0.3317207396030426,9.625469207763672,-0.002970149702657017,0.016770557884987856,0.0023404247170360896,1.4500131607055664,2019-08-06 14:26:39:109,169.36939521541308,-168.81986998291296,0,-40.33357620239258,41.83296585083008,-44.231990814208984
-0.15862104296684265,-0.3173522353172302,9.62067985534668,0.0020910919816125757,0.013307602706179285,0.004205092610160662,1.4600119590759277,2019-08-06 14:26:39:119,169.55564442658587,-169.00686058214976,0,-40.33357620239258,41.83296585083008,-44.231990814208984
-0.14664728939533234,-0.300588995218277,9.637442588806152,0.0012919485988449018,0.013307602706179285,0.0023404247170360896,1.4700188636779785,2019-08-06 14:26:39:129,169.73961880073287,-169.19172011183787,0,-40.33357620239258,41.83296585083008,-44.231990814208984
-0.16101577877998352,-0.3317207396030426,9.668574333190918,0.0015583297264341264,0.014373127216536186,0.003405949227392988,1.4800028800964355,2019-08-06 14:26:39:139,169.9176870706368,-169.36945931615747,0,-40.18363952636719,41.38315200805664,-42.58266067504883
-0.21130552887916565,-0.307773232460022,9.615889549255371,-0.0003063383292368989,0.015172271119452508,0.005270617380591885,1.4900152683258057,2019-08-06 14:26:39:149,170.08562655699882,-169.54523340776694,0,-40.18363952636719,41.38315200805664,-42.58266067504883
-0.16341052949428558,-0.2814309895038605,9.615889549255371,-0.0003063383292368989,0.014373127216536186,0.0012749002066791914,1.500009536743164,2019-08-06 14:26:39:159,170.2563765709884,-169.7206285613043,0,-40.18363952636719,41.38315200805664,-42.58266067504883
-0.1682000309228897,-0.2814309895038605,9.647021293640137,0.0004928051185493561,0.015172271119452508,-0.0013889113292873795,1.5100185871124268,2019-08-06 14:26:39:169,170.42274460501596,-169.8930728186565,0,-40.18363952636719,41.38315200805664,-42.58266067504883
-0.10114704072475433,-0.28382572531700134,9.63265323638916,0.0023574731092018,0.010377409782549165,-0.001122530201698155,1.5200138092041016,2019-08-06 14:26:39:179,170.5964334265255,-170.0627798588911,0,-40.18363952636719,41.38315200805664,-42.58266067504883
-0.13946303725242615,-0.2526939809322357,9.606310844421387,0.0026238542367910244,0.01064379143028704,-0.001122530201698155,1.5299897193908691,2019-08-06 14:26:39:189,170.76190761195997,-170.23285764634423,0,-40.18363952636719,41.38315200805664,-42.58266067504883
-0.16580528020858765,-0.2934047281742096,9.623074531555176,0.0007591862786478714,0.012242078195822388,-0.0019216735844658289,1.5400137901306152,2019-08-06 14:26:39:199,170.92003686632137,-170.39369999089283,0,-40.18363952636719,41.38315200805664,-42.58266067504883
-0.16580528020858765,-0.2598782479763031,9.658995628356934,0.0002264239747054862,0.015971413982071532,-0.003519960350001176,1.550013780593872,2019-08-06 14:26:39:209,171.07299947830418,-170.5551293526247,0,-40.18363952636719,41.38315200805664,-42.58266067504883
-0.19933177530765533,-0.2981942296028137,9.668574333190918,0.0002264239747054862,0.013307602706179285,-0.005118247115536523,1.5600223541259766,2019-08-06 14:26:39:219,171.2204395050485,-170.70882334903752,0,-40.18363952636719,41.38315200805664,-42.58266067504883
-0.18017378449440002,-0.300588995218277,9.642231941223145,-0.0008391006169246387,0.017036938492428433,-0.006982915528809746,1.5700109004974365,2019-08-06 14:26:39:229,171.36506548113712,-170.85846481631924,0,-40.18363952636719,41.38315200805664,-42.58266067504883
-0.1682000309228897,-0.29579949378967285,9.635047912597656,0.0023574731092018,0.016504176237249982,-0.005651009370714973,1.5800135135650635,2019-08-06 14:26:39:239,171.50849234187558,-171.00745060252066,0,-40.18363952636719,41.38315200805664,-42.58266067504883
-0.19693702459335327,-0.24311499297618866,9.670969009399414,-0.0016382440647108938,0.01410674660909561,-0.011777775825415789,1.590015172958374,2019-08-06 14:26:39:249,171.64706836797677,-171.15758087419997,0,-40.18363952636719,41.38315200805664,-42.58266067504883
-0.1682000309228897,-0.2335359901189804,9.639837265014648,-0.0016382440647108938,0.013840364961357736,-0.012576919728332112,1.6000089645385742,2019-08-06 14:26:39:259,171.78636807943857,-171.305754280398,0,-40.18363952636719,41.38315200805664,-42.58266067504883
-0.1562262922525406,-0.28861522674560547,9.596732139587402,-0.0019046251923001184,0.011975696548084513,-0.01071225131505889,1.610020637512207,2019-08-06 14:26:39:269,171.9252556888259,-171.444116250278,0,-40.18363952636719,41.38315200805664,-42.58266067504883
-0.21130552887916565,-0.2335359901189804,9.556020736694336,-0.002970149702657017,0.010910172037727614,-0.014707968749045909,1.6200153827667236,2019-08-06 14:26:39:279,172.05529305490447,-171.58556804049124,0,-40.18363952636719,41.38315200805664,-42.58266067504883
-0.17777903378009796,-0.2598782479763031,9.658995628356934,-0.002970149702657017,0.017303320140166306,-0.015773493259402808,1.6300139427185059,2019-08-06 14:26:39:289,172.18338398774114,-171.72136540974427,0,-40.18363952636719,41.38315200805664,-42.58266067504883
-0.19214753806591034,-0.24550974369049072,9.666179656982422,-0.006965867136644035,0.01410674660909561,-0.018437303494997753,1.639984130859375,2019-08-06 14:26:39:299,172.30904311063398,-171.8539397672148,0,-40.18363952636719,41.38315200805664,-42.58266067504883
-0.1682000309228897,-0.2718519866466522,9.613494873046875,-0.004568436468192365,0.012242078195822388,-0.016306255514581258,1.6499955654144287,2019-08-06 14:26:39:309,172.43593330733938,-171.9818971119174,0,-40.18363952636719,41.38315200805664,-42.58266067504883
-0.15143679082393646,-0.2910099923610687,9.67336368560791,0.0007591862786478714,0.014373127216536186,-0.010978632962796765,1.6600120067596436,2019-08-06 14:26:39:319,172.5611930041443,-172.10822323442028,0,-40.18363952636719,41.38315200805664,-42.58266067504883
-0.15383154153823853,-0.31495746970176697,9.66139030456543,-0.003236530830246241,0.011709315940643939,-0.015240731004224359,1.6701538562774658,2019-08-06 14:26:39:329,172.68505704778477,-172.22687251742246,0,-40.18363952636719,41.38315200805664,-42.58266067504883
-0.17059478163719177,-0.307773232460022,9.670969009399414,-0.0013718629371216693,0.012508459843560263,-0.013376062590951136,1.6800053119659424,2019-08-06 14:26:39:339,172.80422503043084,-172.3451203853707,0,-40.18363952636719,41.38315200805664,-42.58266067504883
-0.16101577877998352,-0.2934047281742096,9.66139030456543,-0.0024373874474785677,0.011176553685465489,-0.005917390498304197,1.6899819374084473,2019-08-06 14:26:39:349,172.9227836306615,-172.4620632099923,0,-40.18363952636719,41.38315200805664,-42.58266067504883
-0.16580528020858765,-0.3125627338886261,9.642231941223145,-0.0061667232337277115,0.010377409782549165,-0.004585484860358075,1.700016736984253,2019-08-06 14:26:39:359,173.03877785846328,-172.5722142753517,0,-40.18363952636719,41.38315200805664,-42.58266067504883
-0.15862104296684265,-0.3317207396030426,9.589548110961914,-0.0024373874474785677,0.016237795629809405,-0.006982915528809746,1.7100610733032227,2019-08-06 14:26:39:369,173.14989147698634,-172.67977172826238,0,-40.18363952636719,41.38315200805664,-42.58266067504883
-0.1562262922525406,-0.3317207396030426,9.639837265014648,-3.9957173202045016e-05,0.01410674660909561,-0.002987198094822727,1.72001051902771,2019-08-06 14:26:39:379,173.26044332234548,-172.78673691238282,0,-40.18363952636719,41.38315200805664,-42.58266067504883
-0.13706828653812408,-0.3700367212295532,9.577573776245117,-0.004302055340603139,0.011176553685465489,-0.0005897678815011245,1.730057954788208,2019-08-06 14:26:39:389,173.37253055471547,-172.8843238215634,0,-41.38315200805664,42.58266067504883,-42.28278350830078
-0.11791028827428818,-0.3628524839878082,9.565600395202637,-0.004302055340603139,0.011709315940643939,0.00047575672638364575,1.740015983581543,2019-08-06 14:26:39:399,173.48440837073122,-172.9807846328023,0,-41.38315200805664,42.58266067504883,-42.28278350830078
-0.1226997897028923,-0.32932597398757935,9.618284225463867,-0.0005727194893354142,0.016237795629809405,0.006602523018538008,1.7500498294830322,2019-08-06 14:26:39:409,173.59095427078643,-173.0816259283871,0,-41.38315200805664,42.58266067504883,-42.28278350830078
-0.10833129286766052,-0.38679996132850647,9.682943344116211,-0.0019046251923001184,0.016770557884987856,0.006336141890948784,1.7599973678588867,2019-08-06 14:26:39:419,173.6969481472497,-173.1731785523583,0,-41.38315200805664,42.58266067504883,-42.28278350830078
-0.1418577879667282,-0.36045771837234497,9.666179656982422,-0.002171006319889343,0.015438651726893083,0.003405949227392988,1.7699861526489258,2019-08-06 14:26:39:429,173.7975342378763,-173.26578523305903,0,-41.38315200805664,42.58266067504883,-42.28278350830078
-0.10833129286766052,-0.300588995218277,9.678153038024902,-0.0005727194893354142,0.015438651726893083,0.013794813463447072,1.7799899578094482,2019-08-06 14:26:39:439,173.90008533386583,-173.3645688333501,0,-41.38315200805664,42.58266067504883,-42.28278350830078
-0.11551553755998611,-0.31016796827316284,9.658995628356934,-0.0011054818095324445,0.013307602706179285,0.012196526697911724,1.790008783340454,2019-08-06 14:26:39:449,174.00089358018653,-173.45987076208135,0,-41.38315200805664,42.58266067504883,-42.28278350830078
-0.15862104296684265,-0.3197469711303711,9.678153038024902,0.0031566164919694735,0.014639508864274061,0.015659481876720296,1.7999951839447021,2019-08-06 14:26:39:459,174.09388740795626,-173.5545983605453,0,-41.38315200805664,42.58266067504883,-42.28278350830078
-0.11072604358196259,-0.3197469711303711,9.682943344116211,0.0012919485988449018,0.012242078195822388,0.015659481876720296,1.8099911212921143,2019-08-06 14:26:39:469,174.19203538077588,-173.64640522317345,0,-41.38315200805664,42.58266067504883,-42.28278350830078
-0.1418577879667282,-0.35566821694374084,9.577573776245117,0.004222141002326372,0.0183688436102259,0.01299567060082805,1.820024013519287,2019-08-06 14:26:39:479,174.28087523274675,-173.73332101277992,0,-41.38315200805664,42.58266067504883,-42.28278350830078
-0.1226997897028923,-0.3125627338886261,9.635047912597656,-0.0016382440647108938,0.011975696548084513,0.017524149249696214,1.8300988674163818,2019-08-06 14:26:39:489,174.37389091297163,-173.8205671535969,0,-41.38315200805664,42.58266067504883,-42.28278350830078
-0.1562262922525406,-0.28861522674560547,9.627863883972168,-3.9957173202045016e-05,0.009578266919930143,0.012729288953090175,1.8400204181671143,2019-08-06 14:26:39:499,174.46248456336608,-173.9097926336633,0,-41.38315200805664,42.58266067504883,-42.28278350830078
-0.1682000309228897,-0.3197469711303711,9.625469207763672,-0.0013718629371216693,0.019700750808617978,0.019122437055528865,1.850013017654419,2019-08-06 14:26:39:509,174.54215887703572,-173.9927750519001,0,-41.38315200805664,42.58266067504883,-42.28278350830078
-0.1825685352087021,-0.30298373103141785,9.618284225463867,0.002890235364380249,0.01570503337463096,0.016991388034815067,1.860105276107788,2019-08-06 14:26:39:519,174.62066751318685,-174.07847205130176,0,-41.38315200805664,42.58266067504883,-42.28278350830078
-0.1298840343952179,-0.2670624852180481,9.675758361816406,0.0015583297264341264,0.014373127216536186,0.015659481876720296,1.8700175285339355,2019-08-06 14:26:39:529,174.70487303736434,-174.16614932185215,0,-41.38315200805664,42.58266067504883,-42.28278350830078
-0.15383154153823853,-0.2814309895038605,9.666179656982422,0.0012919485988449018,0.013307602706179285,0.009532715422019479,1.879988193511963,2019-08-06 14:26:39:539,174.78509026489542,-174.2501957047362,0,-41.38315200805664,42.58266067504883,-42.28278350830078
-0.17059478163719177,-0.30298373103141785,9.66139030456543,0.001824710854023351,0.01410674660909561,0.0124629083456496,1.8900282382965088,2019-08-06 14:26:39:549,174.8612040637761,-174.33029602680082,0,-41.38315200805664,42.58266067504883,-42.28278350830078
-0.14664728939533234,-0.3245364725589752,9.517704963684082,0.0010255674062370958,0.012774840451000838,0.0113973838352927,1.9001562595367432,2019-08-06 14:26:39:559,174.9390604078481,-174.40521482329234,0,-41.38315200805664,42.58266067504883,-42.28278350830078
-0.13706828653812408,-0.3269312381744385,9.570389747619629,-0.0019046251923001184,0.01756970178790418,0.0124629083456496,1.9099867343902588,2019-08-06 14:26:39:569,175.01417025826132,-174.4769291466898,0,-41.38315200805664,42.58266067504883,-42.28278350830078
-0.14664728939533234,-0.3125627338886261,9.627863883972168,0.0004928051185493561,0.013840364961357736,0.01193014609047115,1.920013189315796,2019-08-06 14:26:39:579,175.0886422270399,-174.55047961492758,0,-41.38315200805664,42.58266067504883,-42.28278350830078
-0.1298840343952179,-0.307773232460022,9.697311401367188,0.0015583297264341264,0.016237795629809405,0.007401666401305682,1.9300222396850586,2019-08-06 14:26:39:589,175.16239636228084,-174.62398895405107,0,-41.38315200805664,42.58266067504883,-42.28278350830078
-0.13227878510951996,-0.2814309895038605,9.637442588806152,-0.0005727194893354142,0.012774840451000838,0.005004236253002661,1.9400138854980469,2019-08-06 14:26:39:599,175.23625408719585,-174.6977345335698,0,-41.38315200805664,42.58266067504883,-42.28278350830078
-0.15143679082393646,-0.29579949378967285,9.63265323638916,0.004488522389989922,0.014639508864274061,0.008200809784073356,1.9500174522399902,2019-08-06 14:26:39:609,175.30529233423545,-174.7711233222142,0,-41.38315200805664,42.58266067504883,-42.28278350830078
-0.13467353582382202,-0.307773232460022,9.663784980773926,-0.0013718629371216693,0.010111029175108591,0.0026068058446253144,1.9600162506103516,2019-08-06 14:26:39:619,175.37754150986453,-174.83844774142463,0,-41.38315200805664,42.58266067504883,-42.28278350830078
-0.1682000309228897,-0.31495746970176697,9.654206275939941,0.0004928051185493561,0.017303320140166306,0.0020740435894468653,1.9700140953063965,2019-08-06 14:26:39:629,175.44031433316053,-174.90458450148012,0,-41.38315200805664,42.58266067504883,-42.28278350830078
-0.15383154153823853,-0.2934047281742096,9.67336368560791,-0.0024373874474785677,0.013041222098738713,-5.7005565367755386e-05,1.9800219535827637,2019-08-06 14:26:39:639,175.50595817324304,-174.9703768040615,0,-41.68302917480469,41.38315200805664,-42.882537841796875
-0.16101577877998352,-0.3053784668445587,9.618284225463867,0.0004928051185493561,0.015438651726893083,0.00020937558253977584,1.9900174140930176,2019-08-06 14:26:39:649,175.5679926485739,-175.03487549463748,0,-41.68302917480469,41.38315200805664,-42.882537841796875
-0.1418577879667282,-0.3508787155151367,9.675758361816406,-0.0005727194893354142,0.016504176237249982,-0.001655292456876604,2.0000123977661133,2019-08-06 14:26:39:659,175.63057112988417,-175.0923196368898,0,-41.68302917480469,41.38315200805664,-42.882537841796875
-0.17059478163719177,-0.2814309895038605,9.63265323638916,0.001824710854023351,0.016770557884987856,-0.0019216735844658289,2.010016441345215,2019-08-06 14:26:39:669,175.68824715176387,-175.15802827873665,0,-41.68302917480469,41.38315200805664,-42.882537841796875
-0.1753842830657959,-0.2814309895038605,9.63265323638916,-0.002171006319889343,0.014639508864274061,-0.007249296656398971,2.020014762878418,2019-08-06 14:26:39:679,175.7454018388183,-175.22017894830458,0,-41.68302917480469,41.38315200805664,-42.882537841796875
-0.15143679082393646,-0.2598782479763031,9.656600952148438,-0.0024373874474785677,0.016237795629809405,-0.005651009370714973,2.030022382736206,2019-08-06 14:26:39:689,175.80340034482197,-175.2835743215799,0,-41.68302917480469,41.38315200805664,-42.882537841796875
-0.15862104296684265,-0.28382572531700134,9.625469207763672,-0.0003063383292368989,0.011975696548084513,-0.005651009370714973,2.0401203632354736,2019-08-06 14:26:39:699,175.86165993182493,-175.34394937401012,0,-41.68302917480469,41.38315200805664,-42.882537841796875
-0.12030503898859024,-0.3245364725589752,9.613494873046875,-0.0016382440647108938,0.013307602706179285,-0.012576919728332112,2.0500082969665527,2019-08-06 14:26:39:709,175.92269882107448,-175.3974911999053,0,-41.68302917480469,41.38315200805664,-42.882537841796875
-0.13227878510951996,-0.2934047281742096,9.680547714233398,0.0012919485988449018,0.012774840451000838,-0.009646726804701992,2.060021162033081,2019-08-06 14:26:39:719,175.98140529716568,-175.45554716419002,0,-41.68302917480469,41.38315200805664,-42.882537841796875
-0.14664728939533234,-0.31016796827316284,9.584757804870605,-0.0011054818095324445,0.014373127216536186,-0.007515677783988195,2.0700063705444336,2019-08-06 14:26:39:729,176.03618743748143,-175.50874689782594,0,-41.68302917480469,41.38315200805664,-42.882537841796875
-0.1226997897028923,-0.3508787155151367,9.62067985534668,0.0020910919816125757,0.01570503337463096,-0.011777775825415789,2.080016613006592,2019-08-06 14:26:39:739,176.0920223678211,-175.55797279045487,0,-41.68302917480469,41.38315200805664,-42.882537841796875
-0.12748928368091583,-0.3125627338886261,9.654206275939941,0.0002264239747054862,0.011709315940643939,-0.012310538080594237,2.090052604675293,2019-08-06 14:26:39:749,176.14845190437734,-175.60985393973243,0,-41.68302917480469,41.38315200805664,-42.882537841796875
-0.1490420401096344,-0.3796157240867615,9.64462661743164,0.001824710854023351,0.013840364961357736,-0.009380345156964117,2.100008010864258,2019-08-06 14:26:39:759,176.20003932069213,-175.6535965147975,0,-41.68302917480469,41.38315200805664,-42.882537841796875
-0.11072604358196259,-0.32214173674583435,9.64462661743164,-0.0011054818095324445,0.014639508864274061,-0.011777775825415789,2.110006809234619,2019-08-06 14:26:39:769,176.25466424388767,-175.70164324433418,0,-41.68302917480469,41.38315200805664,-42.882537841796875
-0.10593654215335846,-0.3245364725589752,9.642231941223145,0.0020910919816125757,0.01570503337463096,-0.009113964549523543,2.120048761367798,2019-08-06 14:26:39:779,176.30812625734575,-175.75023498836367,0,-41.68302917480469,41.38315200805664,-42.882537841796875
-0.09875229001045227,-0.3389049768447876,9.67336368560791,-0.0024373874474785677,0.014373127216536186,-0.009913107412142566,2.130009174346924,2019-08-06 14:26:39:789,176.36222730844003,-175.79373653429525,0,-41.68302917480469,41.38315200805664,-42.882537841796875
-0.15383154153823853,-0.31016796827316284,9.589548110961914,0.0012919485988449018,0.013041222098738713,-0.004851865987947299,2.140002727508545,2019-08-06 14:26:39:799,176.40928412993566,-175.84153575320235,0,-41.68302917480469,41.38315200805664,-42.882537841796875
-0.10114704072475433,-0.31016796827316284,9.630258560180664,-0.0016382440647108938,0.014373127216536186,-0.006982915528809746,2.1500115394592285,2019-08-06 14:26:39:809,176.46098568360827,-175.88688986466823,0,-41.68302917480469,41.38315200805664,-42.882537841796875
-0.13227878510951996,-0.31016796827316284,9.62067985534668,-0.0024373874474785677,0.015971413982071532,-0.003519960350001176,2.160005807876587,2019-08-06 14:26:39:819,176.507048498729,-175.93085306288577,0,-41.68302917480469,41.38315200805664,-42.882537841796875
-0.14664728939533234,-0.34848397970199585,9.618284225463867,0.0010255674062370958,0.011975696548084513,-0.0024544358396442778,2.170011043548584,2019-08-06 14:26:39:829,176.55270956992948,-175.9713121754478,0,-41.68302917480469,41.38315200805664,-42.882537841796875
-0.1298840343952179,-0.2718519866466522,9.59194278717041,0.0002264239747054862,0.014639508864274061,-0.004585484860358075,2.180004119873047,2019-08-06 14:26:39:839,176.59792516609022,-176.01954447378753,0,-41.68302917480469,41.38315200805664,-42.882537841796875
-0.18017378449440002,-0.32932597398757935,9.663784980773926,-0.0013718629371216693,0.014905889471714633,0.00047575672638364575,2.1899969577789307,2019-08-06 14:26:39:849,176.63624078707133,-176.0593480157523,0,-41.68302917480469,41.38315200805664,-42.882537841796875
-0.1825685352087021,-0.26945722103118896,9.62067985534668,0.0015583297264341264,0.015172271119452508,0.0028731869722145387,2.200005531311035,2019-08-06 14:26:39:859,176.67324639736202,-176.10695024492068,0,-41.68302917480469,41.38315200805664,-42.882537841796875
-0.17298953235149384,-0.3197469711303711,9.63265323638916,-0.0011054818095324445,0.013041222098738713,-0.001655292456876604,2.209996223449707,2019-08-06 14:26:39:869,176.71188876162714,-176.14616744960674,0,-41.68302917480469,41.38315200805664,-42.882537841796875
-0.1825685352087021,-0.2814309895038605,9.651811599731445,0.0002264239747054862,0.013840364961357736,0.0031395680998037635,2.220026969909668,2019-08-06 14:26:39:879,176.74818280085472,-176.18996807441337,0,-41.68302917480469,41.38315200805664,-42.882537841796875
-0.19214753806591034,-0.307773232460022,9.656600952148438,-0.002703768575067792,0.013041222098738713,0.0012749002066791914,2.230010509490967,2019-08-06 14:26:39:889,176.78311009145946,-176.22814301867083,0,-40.78339385986328,41.68302917480469,-43.18241882324219
-0.19214753806591034,-0.26945722103118896,9.596732139587402,-0.0013718629371216693,0.017303320140166306,0.0018076624618576407,2.240007162094116,2019-08-06 14:26:39:899,176.81479468343548,-176.27064352934985,0,-40.78339385986328,41.68302917480469,-43.18241882324219
-0.20651602745056152,-0.2790362238883972,9.668574333190918,0.0012919485988449018,0.014639508864274061,0.0031395680998037635,2.2500076293945312,2019-08-06 14:26:39:909,176.84580586500712,-176.31289403477302,0,-40.78339385986328,41.68302917480469,-43.18241882324219
-0.2089107781648636,-0.307773232460022,9.642231941223145,-0.002703768575067792,0.014373127216536186,0.0010085190140713856,2.260028600692749,2019-08-06 14:26:39:919,176.87597854891624,-176.3485504061341,0,-40.78339385986328,41.68302917480469,-43.18241882324219
-0.13467353582382202,-0.2718519866466522,9.680547714233398,-0.004035674213013915,0.017303320140166306,-0.00431910373276885,2.26999831199646,2019-08-06 14:26:39:929,176.91283193134225,-176.3871487526607,0,-40.78339385986328,41.68302917480469,-43.18241882324219
-0.17298953235149384,-0.32214173674583435,9.625469207763672,0.0004928051185493561,0.018901606905701654,0.0010085190140713856,2.279996871948242,2019-08-06 14:26:39:939,176.9433713449996,-176.42134566608553,0,-40.78339385986328,41.68302917480469,-43.18241882324219
-0.16101577877998352,-0.28861522674560547,9.670969009399414,-3.9957173202045016e-05,0.012774840451000838,0.0018076624618576407,2.290009021759033,2019-08-06 14:26:39:949,176.97824510925562,-176.45870834482716,0,-40.78339385986328,41.68302917480469,-43.18241882324219
-0.18017378449440002,-0.30298373103141785,9.639837265014648,-0.0013718629371216693,0.012774840451000838,-0.002987198094822727,2.2999989986419678,2019-08-06 14:26:39:959,177.01009905104618,-176.49275994330281,0,-40.78339385986328,41.68302917480469,-43.18241882324219
-0.16341052949428558,-0.3053784668445587,9.651811599731445,-0.0011054818095324445,0.012242078195822388,-0.000856149009090349,2.310023784637451,2019-08-06 14:26:39:969,177.04360698830507,-176.5260383770929,0,-40.78339385986328,41.68302917480469,-43.18241882324219
-0.14664728939533234,-0.29579949378967285,9.654206275939941,-3.9957173202045016e-05,0.016504176237249982,-0.002987198094822727,2.3199973106384277,2019-08-06 14:26:39:979,177.07608720278563,-176.56039599940465,0,-40.78339385986328,41.68302917480469,-43.18241882324219
-0.15862104296684265,-0.3269312381744385,9.663784980773926,-0.003236530830246241,0.015172271119452508,-0.0027208169672335025,2.330005168914795,2019-08-06 14:26:39:989,177.10723222328988,-176.58861715937826,0,-40.78339385986328,41.68302917480469,-43.18241882324219
-0.19214753806591034,-0.33651024103164673,9.663784980773926,-0.0037692930854246903,0.014373127216536186,0.003672330354982212,2.3400094509124756,2019-08-06 14:26:39:999,177.13423209725204,-176.6148407473182,0,-40.78339385986328,41.68302917480469,-43.18241882324219
-0.1873580366373062,-0.3125627338886261,9.642231941223145,-0.0008391006169246387,0.01410674660909561,-0.004851865987947299,2.3500025272369385,2019-08-06 14:26:40:009,177.16136855677314,-176.64494009071683,0,-40.78339385986328,41.68302917480469,-43.18241882324219
-0.17298953235149384,-0.27664148807525635,9.63265323638916,-0.005900342106138487,0.012242078195822388,0.00020937558253977584,2.360024929046631,2019-08-06 14:26:40:019,177.19067498146015,-176.67582016958127,0,-40.78339385986328,41.68302917480469,-43.18241882324219
-0.19933177530765533,-0.27664148807525635,9.606310844421387,0.0010255674062370958,0.01410674660909561,0.004205092610160662,2.3700122833251953,2019-08-06 14:26:40:029,177.2151761441984,-176.7098880589138,0,-40.78339385986328,41.68302917480469,-43.18241882324219
-0.16341052949428558,-0.307773232460022,9.587152481079102,0.0023574731092018,0.01410674660909561,0.0018076624618576407,2.380007266998291,2019-08-06 14:26:40:039,177.2434257325676,-176.7402390263329,0,-40.78339385986328,41.68302917480469,-43.18241882324219
-0.1418577879667282,-0.31016796827316284,9.625469207763672,-0.004568436468192365,0.013041222098738713,0.0012749002066791914,2.3900012969970703,2019-08-06 14:26:40:049,177.27435196265887,-176.76595777035467,0,-40.78339385986328,41.68302917480469,-43.18241882324219
-0.1753842830657959,-0.2742467224597931,9.599126815795898,0.0023574731092018,0.010377409782549165,0.00899995316684103,2.400024175643921,2019-08-06 14:26:40:059,177.30209015900897,-176.79923549567462,0,-40.78339385986328,41.68302917480469,-43.18241882324219
-0.1753842830657959,-0.31495746970176697,9.606310844421387,-0.0008391006169246387,0.009844647527370716,0.003938711482571438,2.4099960327148438,2019-08-06 14:26:40:069,177.32961727689985,-176.8252238309407,0,-40.78339385986328,41.68302917480469,-43.18241882324219
-0.16101577877998352,-0.3173522353172302,9.666179656982422,-0.0005727194893354142,0.012242078195822388,0.003938711482571438,2.4200034141540527,2019-08-06 14:26:40:079,177.357059458539,-176.85078926542676,0,-40.78339385986328,41.68302917480469,-43.18241882324219
-0.15383154153823853,-0.2718519866466522,9.642231941223145,0.0012919485988449018,0.01410674660909561,0.003938711482571438,2.4300105571746826,2019-08-06 14:26:40:089,177.38371138043007,-176.8822001686937,0,-40.78339385986328,41.68302917480469,-43.18241882324219
-0.1562262922525406,-0.2934047281742096,9.738021850585938,0.0002264239747054862,0.012508459843560263,0.003938711482571438,2.4400038719177246,2019-08-06 14:26:40:099,177.41063611137525,-176.91016744242495,0,-40.78339385986328,41.68302917480469,-43.18241882324219
-0.18017378449440002,-0.30298373103141785,9.649415969848633,-0.005367579850960038,0.011709315940643939,0.004471473997824211,2.4500269889831543,2019-08-06 14:26:40:109,177.43443938853773,-176.93297424741368,0,-40.78339385986328,41.68302917480469,-43.18241882324219
-0.16341052949428558,-0.3700367212295532,9.627863883972168,-0.005101198723370813,0.011975696548084513,0.004737855125413436,2.4599995613098145,2019-08-06 14:26:40:119,177.4595973300657,-176.9474379206367,0,-40.78339385986328,41.68302917480469,-43.18241882324219
-0.1418577879667282,-0.3053784668445587,9.611100196838379,-0.0003063383292368989,0.016504176237249982,0.007401666401305682,2.470006227493286,2019-08-06 14:26:40:129,177.48421989182938,-176.97191951432,0,-40.78339385986328,41.68302917480469,-43.18241882324219
-0.18496328592300415,-0.3197469711303711,9.615889549255371,-3.9957173202045016e-05,0.007713599026805571,0.0010085190140713856,2.4800069332122803,2019-08-06 14:26:40:139,177.50816484775166,-176.99436880584983,0,-40.483516693115234,41.982906341552734,-43.482295989990234
-0.17059478163719177,-0.3269312381744385,9.599126815795898,0.0012919485988449018,0.011709315940643939,0.0018076624618576407,2.490006685256958,2019-08-06 14:26:40:149,177.53106398807597,-177.01619382737366,0,-40.483516693115234,41.982906341552734,-43.482295989990234
-0.15143679082393646,-0.31016796827316284,9.627863883972168,-0.003502911957835466,0.013840364961357736,0.005004236253002661,2.500025749206543,2019-08-06 14:26:40:159,177.5546339125697,-177.03699565962236,0,-40.483516693115234,41.982906341552734,-43.482295989990234
-0.13946303725242615,-0.30298373103141785,9.711679458618164,-0.003502911957835466,0.01410674660909561,0.004737855125413436,2.510322093963623,2019-08-06 14:26:40:169,177.5789309743938,-177.0584920427999,0,-40.483516693115234,41.982906341552734,-43.482295989990234
-0.16341052949428558,-0.3317207396030426,9.627863883972168,-0.0016382440647108938,0.012774840451000838,-0.0021880547120550534,2.5200607776641846,2019-08-06 14:26:40:179,177.60091936633054,-177.07696032802343,0,-40.483516693115234,41.982906341552734,-43.482295989990234
-0.13946303725242615,-0.3197469711303711,9.639837265014648,0.0010255674062370958,0.00824636128198402,0.0018076624618576407,2.530017375946045,2019-08-06 14:26:40:189,177.62771353297993,-177.0979991513199,0,-40.483516693115234,41.982906341552734,-43.482295989990234
-0.1298840343952179,-0.27664148807525635,9.649415969848633,-0.002970149702657017,0.011975696548084513,-0.001655292456876604,2.540011167526245,2019-08-06 14:26:40:199,177.65301566348896,-177.12152892813432,0,-40.483516693115234,41.982906341552734,-43.482295989990234
-0.1490420401096344,-0.3053784668445587,9.606310844421387,0.0020910919816125757,0.011975696548084513,0.00047575672638364575,2.5500168800354004,2019-08-06 14:26:40:209,177.67544970239126,-177.14385750666835,0,-40.483516693115234,41.982906341552734,-43.482295989990234
-0.13706828653812408,-0.2814309895038605,9.680547714233398,-0.002970149702657017,0.016237795629809405,0.001541281334268416,2.559980630874634,2019-08-06 14:26:40:219,177.69663215659804,-177.16601421356023,0,-40.483516693115234,41.982906341552734,-43.482295989990234
-0.11312079429626465,-0.2790362238883972,9.589548110961914,-0.004035674213013915,0.010377409782549165,-0.004585484860358075,2.5700149536132812,2019-08-06 14:26:40:229,177.72333572219108,-177.1870857335167,0,-40.483516693115234,41.982906341552734,-43.482295989990234
-0.1226997897028923,-0.2670624852180481,9.699706077575684,-0.0005727194893354142,0.013041222098738713,-0.0027208169672335025,2.5799968242645264,2019-08-06 14:26:40:239,177.7470647719188,-177.21148043911825,0,-40.483516693115234,41.982906341552734,-43.482295989990234
-0.17059478163719177,-0.2718519866466522,9.62067985534668,-0.0016382440647108938,0.01570503337463096,0.0012749002066791914,2.590019702911377,2019-08-06 14:26:40:249,177.7629675948419,-177.23395727919325,0,-40.483516693115234,41.982906341552734,-43.482295989990234
-0.12509453296661377,-0.26227298378944397,9.668574333190918,-0.0019046251923001184,0.012242078195822388,-0.0053846282431257485,2.59999680519104,2019-08-06 14:26:40:259,177.78602474522552,-177.25713426907708,0,-40.483516693115234,41.982906341552734,-43.482295989990234
-0.13706828653812408,-0.26227298378944397,9.649415969848633,-0.0008391006169246387,0.009311885272192268,-0.004851865987947299,2.6099939346313477,2019-08-06 14:26:40:269,177.8088007020367,-177.2803820252197,0,-40.483516693115234,41.982906341552734,-43.482295989990234
-0.16580528020858765,-0.25748348236083984,9.567995071411133,-0.003236530830246241,0.014639508864274061,-0.006716534401220521,2.620018720626831,2019-08-06 14:26:40:279,177.82452848669513,-177.30212237893983,0,-40.483516693115234,41.982906341552734,-43.482295989990234
-0.15862104296684265,-0.25029924511909485,9.663784980773926,-0.0037692930854246903,0.009578266919930143,-0.004585484860358075,2.6299896240234375,2019-08-06 14:26:40:289,177.84386805058563,-177.32429620163094,0,-40.483516693115234,41.982906341552734,-43.482295989990234
-0.13467353582382202,-0.3053784668445587,9.654206275939941,-3.9957173202045016e-05,0.011709315940643939,-0.005118247115536523,2.6400279998779297,2019-08-06 14:26:40:299,177.8644065212215,-177.34155263749145,0,-40.483516693115234,41.982906341552734,-43.482295989990234
-0.17059478163719177,-0.2862204909324646,9.66139030456543,-0.005101198723370813,0.01064379143028704,-0.007515677783988195,2.649991750717163,2019-08-06 14:26:40:309,177.880931822964,-177.3579296145446,0,-40.483516693115234,41.982906341552734,-43.482295989990234
-0.15862104296684265,-0.2910099923610687,9.668574333190918,-0.002703768575067792,0.014639508864274061,-0.003786341477590401,2.6600053310394287,2019-08-06 14:26:40:319,177.89628394245082,-177.37477081898544,0,-40.483516693115234,41.982906341552734,-43.482295989990234
-0.1226997897028923,-0.2598782479763031,9.658995628356934,-0.005367579850960038,0.012508459843560263,-0.006982915528809746,2.6700077056884766,2019-08-06 14:26:40:329,177.91677714372943,-177.39343702304794,0,-40.483516693115234,41.982906341552734,-43.482295989990234
-0.16580528020858765,-0.2814309895038605,9.618284225463867,-0.004568436468192365,0.01357398435391716,-0.005917390498304197,2.6800079345703125,2019-08-06 14:26:40:339,177.93106768506252,-177.40948312748733,0,-40.483516693115234,41.982906341552734,-43.482295989990234
-0.17777903378009796,-0.2910099923610687,9.618284225463867,-0.004302055340603139,0.012508459843560263,-0.008048440039166644,2.69001841545105,2019-08-06 14:26:40:349,177.94423742993462,-177.4242151836002,0,-40.483516693115234,41.982906341552734,-43.482295989990234
-0.17777903378009796,-0.2910099923610687,9.70210075378418,-0.002171006319889343,0.012242078195822388,-0.00831482116675587,2.7000057697296143,2019-08-06 14:26:40:359,177.95749232291573,-177.4401525021105,0,-40.483516693115234,41.982906341552734,-43.482295989990234
-0.15143679082393646,-0.2981942296028137,9.639837265014648,-0.003236530830246241,0.012242078195822388,-0.007249296656398971,2.7100095748901367,2019-08-06 14:26:40:369,177.97346569792052,-177.45409553432128,0,-40.483516693115234,41.982906341552734,-43.482295989990234
-0.15383154153823853,-0.32214173674583435,9.654206275939941,0.0015583297264341264,0.013307602706179285,-0.0061837716258934215,2.7200100421905518,2019-08-06 14:26:40:379,177.98826619164376,-177.4676659133999,0,-40.483516693115234,41.982906341552734,-43.482295989990234
-0.13706828653812408,-0.36764198541641235,9.647021293640137,-0.004035674213013915,0.014373127216536186,-0.004052722605179625,2.73003888130188,2019-08-06 14:26:40:389,178.00412662382803,-177.47239102630007,0,-40.03369903564453,41.83296585083008,-44.231990814208984
-0.16101577877998352,-0.42032647132873535,9.637442588806152,-0.005633960978549262,0.016237795629809405,-0.007249296656398971,2.740231990814209,2019-08-06 14:26:40:399,178.01560713316067,-177.46977245798578,0,-40.03369903564453,41.83296585083008,-44.231990814208984
-0.12748928368091583,-0.36764198541641235,9.6901273727417,-0.0005727194893354142,0.014373127216536186,-0.006450152753482647,2.750155210494995,2019-08-06 14:26:40:409,178.03221096316008,-177.47660287254803,0,-40.03369903564453,41.83296585083008,-44.231990814208984
-0.11551553755998611,-0.31495746970176697,9.67336368560791,0.0002264239747054862,0.01756970178790418,-0.003786341477590401,2.7600011825561523,2019-08-06 14:26:40:419,178.04816990762285,-177.48989901688162,0,-40.03369903564453,41.83296585083008,-44.231990814208984
-0.1298840343952179,-0.3652472198009491,9.6901273727417,0.004222141002326372,0.009578266919930143,0.0012749002066791914,2.770003080368042,2019-08-06 14:26:40:429,178.06646865982125,-177.499299979678,0,-40.03369903564453,41.83296585083008,-44.231990814208984
-0.1226997897028923,-0.3197469711303711,9.627863883972168,0.0015583297264341264,0.017303320140166306,0.0071352852737164565,2.7800168991088867,2019-08-06 14:26:40:439,178.08080703934368,-177.5121476467408,0,-40.03369903564453,41.83296585083008,-44.231990814208984
-0.15143679082393646,-0.31016796827316284,9.687732696533203,0.004488522389989922,0.012242078195822388,0.0012749002066791914,2.789994955062866,2019-08-06 14:26:40:449,178.09442079717678,-177.52774370440014,0,-40.03369903564453,41.83296585083008,-44.231990814208984
-0.12509453296661377,-0.29579949378967285,9.685338020324707,-0.0024373874474785677,0.012508459843560263,0.006602523018538008,2.80000901222229,2019-08-06 14:26:40:459,178.11069935515715,-177.54083183292755,0,-40.03369903564453,41.83296585083008,-44.231990814208984
-0.10833129286766052,-0.27664148807525635,9.639837265014648,-0.0003063383292368989,0.01863522629826108,0.004737855125413436,2.8100109100341797,2019-08-06 14:26:40:469,178.12514261314985,-177.5569669971652,0,-40.03369903564453,41.83296585083008,-44.231990814208984
-0.10114704072475433,-0.307773232460022,9.615889549255371,-0.0008391006169246387,0.013041222098738713,0.014593957366363397,2.8199939727783203,2019-08-06 14:26:40:479,178.14327639147066,-177.5686928009484,0,-40.03369903564453,41.83296585083008,-44.231990814208984
-0.12748928368091583,-0.31495746970176697,9.663784980773926,0.0004928051185493561,0.015172271119452508,0.015126719621541844,2.8300182819366455,2019-08-06 14:26:40:489,178.1567543537559,-177.58026240781078,0,-40.03369903564453,41.83296585083008,-44.231990814208984
-0.11551553755998611,-0.3125627338886261,9.637442588806152,-0.002970149702657017,0.017303320140166306,0.014327575718625522,2.8399887084960938,2019-08-06 14:26:40:499,178.1701977855219,-177.58984290226851,0,-40.03369903564453,41.83296585083008,-44.231990814208984
-0.1490420401096344,-0.2934047281742096,9.682943344116211,0.007152333665882167,0.011442934292906064,0.018856056448088288,2.8500137329101562,2019-08-06 14:26:40:509,178.18271576156292,-177.6073601322131,0,-40.03369903564453,41.83296585083008,-44.231990814208984
-0.14664728939533234,-0.2598782479763031,9.637442588806152,-0.0008391006169246387,0.019167987513142228,0.016192244131898743,2.8599984645843506,2019-08-06 14:26:40:519,178.19087970316525,-177.62384981951033,0,-40.03369903564453,41.83296585083008,-44.231990814208984
-0.06283104419708252,-0.2742467224597931,9.601521492004395,-0.002171006319889343,0.015971413982071532,0.01486033797380397,2.8700194358825684,2019-08-06 14:26:40:529,178.2105767670254,-177.63742954247007,0,-40.03369903564453,41.83296585083008,-44.231990814208984
-0.10114704072475433,-0.3197469711303711,9.630258560180664,-0.002703768575067792,0.017303320140166306,0.02178624729112381,2.8799996376037598,2019-08-06 14:26:40:539,178.22463351588746,-177.64513270521667,0,-40.03369903564453,41.83296585083008,-44.231990814208984
-0.12748928368091583,-0.307773232460022,9.67336368560791,-0.003502911957835466,0.011975696548084513,0.016991388034815067,2.8900039196014404,2019-08-06 14:26:40:549,178.2383120050114,-177.65381552239563,0,-40.03369903564453,41.83296585083008,-44.231990814208984
-0.16101577877998352,-0.3245364725589752,9.670969009399414,0.004222141002326372,0.017303320140166306,0.019122437055528865,2.900010108947754,2019-08-06 14:26:40:559,178.24474692257132,-177.66467142119328,0,-40.03369903564453,41.83296585083008,-44.231990814208984
-0.17059478163719177,-0.3389049768447876,9.639837265014648,-0.0003063383292368989,0.013041222098738713,0.013794813463447072,2.910001039505005,2019-08-06 14:26:40:569,178.25225901388265,-177.6709361022151,0,-40.03369903564453,41.83296585083008,-44.231990814208984
-0.19693702459335327,-0.3197469711303711,9.649415969848633,-0.0024373874474785677,0.015172271119452508,0.016991388034815067,2.9200220108032227,2019-08-06 14:26:40:579,178.25529276456572,-177.6781882840859,0,-40.03369903564453,41.83296585083008,-44.231990814208984
-0.1562262922525406,-0.3245364725589752,9.656600952148438,0.0010255674062370958,0.012508459843560263,0.014061195111184947,2.929997205734253,2019-08-06 14:26:40:589,178.26464362878866,-177.68670180832632,0,-40.03369903564453,41.83296585083008,-44.231990814208984
-0.18017378449440002,-0.3269312381744385,9.668574333190918,0.0034229976195586987,0.011975696548084513,0.013794813463447072,2.94000506401062,2019-08-06 14:26:40:599,178.27126948065845,-177.69615828811186,0,-40.03369903564453,41.83296585083008,-44.231990814208984
-0.1418577879667282,-0.3844052255153656,9.59194278717041,0.0023574731092018,0.016237795629809405,0.01486033797380397,2.95001482963562,2019-08-06 14:26:40:609,178.27977167266866,-177.69766115769923,0,-40.03369903564453,41.83296585083008,-44.231990814208984
-0.12509453296661377,-0.3125627338886261,9.635047912597656,0.0026238542367910244,0.012774840451000838,0.010065477677197928,2.9599978923797607,2019-08-06 14:26:40:619,178.2921384248188,-177.7080180482634,0,-40.03369903564453,41.83296585083008,-44.231990814208984
-0.15143679082393646,-0.3460892140865326,9.692522048950195,0.0004928051185493561,0.013307602706179285,0.0113973838352927,2.9700214862823486,2019-08-06 14:26:40:629,178.3009033994348,-177.7132354152414,0,-40.03369903564453,41.83296585083008,-44.231990814208984
-0.17059478163719177,-0.3915894627571106,9.654206275939941,0.0023574731092018,0.01756970178790418,0.0071352852737164565,2.9799864292144775,2019-08-06 14:26:40:639,178.30480774320762,-177.71383514974855,0,-40.483516693115234,41.08327102661133,-42.58266067504883
-0.1035417914390564,-0.36045771837234497,9.663784980773926,0.0034229976195586987,0.013840364961357736,0.005803379635770335,2.9900145530700684,2019-08-06 14:26:40:649,178.31864104217567,-177.7187631881658,0,-40.483516693115234,41.08327102661133,-42.58266067504883
-0.17777903378009796,-0.3269312381744385,9.639837265014648,0.004222141002326372,0.015971413982071532,0.0028731869722145387,3.0,2019-08-06 14:26:40:659,178.3221826279802,-177.7279068201465,0,-40.483516693115234,41.08327102661133,-42.58266067504883
-0.13467353582382202,-0.2910099923610687,9.656600952148438,0.004222141002326372,0.01570503337463096,-0.004585484860358075,3.010019063949585,2019-08-06 14:26:40:669,178.3309236004159,-177.74120122407774,0,-40.483516693115234,41.08327102661133,-42.58266067504883
-0.1418577879667282,-0.29579949378967285,9.706890106201172,0.0031566164919694735,0.01570503337463096,-0.0019216735844658289,3.0199990272521973,2019-08-06 14:26:40:679,178.33875907123493,-177.75323723222866,0,-40.483516693115234,41.08327102661133,-42.58266067504883
-0.13467353582382202,-0.2934047281742096,9.577573776245117,0.0010255674062370958,0.01410674660909561,-0.005917390498304197,3.0300002098083496,2019-08-06 14:26:40:689,178.34794998546417,-177.76365476954376,0,-40.483516693115234,41.08327102661133,-42.58266067504883
-0.13706828653812408,-0.29579949378967285,9.66139030456543,-0.0024373874474785677,0.009311885272192268,-0.01071225131505889,3.0400097370147705,2019-08-06 14:26:40:699,178.35950112548332,-177.7719386297185,0,-40.483516693115234,41.08327102661133,-42.58266067504883
-0.1490420401096344,-0.2862204909324646,9.613494873046875,-0.0003063383292368989,0.017836082395344753,-0.005651009370714973,3.0500049591064453,2019-08-06 14:26:40:709,178.36453676551764,-177.78222091055642,0,-40.483516693115234,41.08327102661133,-42.58266067504883
-0.13706828653812408,-0.24550974369049072,9.647021293640137,-0.0005727194893354142,0.01357398435391716,-0.011777775825415789,3.06002140045166,2019-08-06 14:26:40:719,178.37333124721295,-177.79709794943318,0,-40.483516693115234,41.08327102661133,-42.58266067504883
-0.1562262922525406,-0.2598782479763031,9.668574333190918,0.0004928051185493561,0.013840364961357736,-0.013908824846129587,3.069998025894165,2019-08-06 14:26:40:729,178.37959717439787,-177.810638800531,0,-40.483516693115234,41.08327102661133,-42.58266067504883
-0.21130552887916565,-0.3197469711303711,9.62067985534668,0.004754903517579147,0.012508459843560263,-0.017371780024938156,3.080002784729004,2019-08-06 14:26:40:739,178.3798139285694,-177.8190262378878,0,-40.483516693115234,41.08327102661133,-42.58266067504883
-0.22567403316497803,-0.30298373103141785,9.642231941223145,-0.0037692930854246903,0.016770557884987856,-0.021900259714103625,3.090012311935425,2019-08-06 14:26:40:749,178.37597706015342,-177.82453147225968,0,-40.483516693115234,41.08327102661133,-42.58266067504883
-0.25680577754974365,-0.2598782479763031,9.680547714233398,0.0023574731092018,0.007979980154394795,-0.018703686183032926,3.1000378131866455,2019-08-06 14:26:40:759,178.3735735990267,-177.83861275220443,0,-40.483516693115234,41.08327102661133,-42.58266067504883
-0.19214753806591034,-0.29579949378967285,9.575179100036621,0.0026238542367910244,0.012242078195822388,-0.021367496418627875,3.1100053787231445,2019-08-06 14:26:40:769,178.37625822026345,-177.84792027317084,0,-40.483516693115234,41.08327102661133,-42.58266067504883
-0.21609503030776978,-0.255088746547699,9.697311401367188,-0.0008391006169246387,0.011176553685465489,-0.019769210693389827,3.1200437545776367,2019-08-06 14:26:40:779,178.37690197857054,-177.8603524312975,0,-40.483516693115234,41.08327102661133,-42.58266067504883
-0.16580528020858765,-0.2934047281742096,9.63265323638916,-0.004302055340603139,0.01064379143028704,-0.023764928127376846,3.1299960613250732,2019-08-06 14:26:40:789,178.3836934588957,-177.86584820526517,0,-40.483516693115234,41.08327102661133,-42.58266067504883
-0.18496328592300415,-0.22395698726177216,9.649415969848633,-0.0008391006169246387,0.01410674660909561,-0.022433020928984772,3.140011787414551,2019-08-06 14:26:40:799,178.3861236041707,-177.88146812697815,0,-40.483516693115234,41.08327102661133,-42.58266067504883
-0.16580528020858765,-0.2598782479763031,9.6901273727417,0.0002264239747054862,0.009578266919930143,-0.026695118970412362,3.150007724761963,2019-08-06 14:26:40:809,178.3934195791264,-177.89324105533524,0,-40.483516693115234,41.08327102661133,-42.58266067504883
-0.12030503898859024,-0.31016796827316284,9.647021293640137,-0.005367579850960038,0.007713599026805571,-0.020834735203746724,3.1601452827453613,2019-08-06 14:26:40:819,178.4068708128456,-177.89549045988284,0,-40.483516693115234,41.08327102661133,-42.58266067504883
-0.15862104296684265,-0.300588995218277,9.706890106201172,0.002890235364380249,0.01357398435391716,-0.022433020928984772,3.1701204776763916,2019-08-06 14:26:40:829,178.41240669979692,-177.90372576048307,0,-40.483516693115234,41.08327102661133,-42.58266067504883
-0.15143679082393646,-0.2934047281742096,9.587152481079102,-0.004302055340603139,0.019700750808617978,-0.01710539837720028,3.180112361907959,2019-08-06 14:26:40:839,178.41500644466186,-177.9081790074879,0,-40.483516693115234,41.08327102661133,-42.58266067504883
-0.1226997897028923,-0.34129971265792847,9.70210075378418,-0.0011054818095324445,0.013840364961357736,-0.016839017769759705,3.189993143081665,2019-08-06 14:26:40:849,178.42453631318872,-177.90910779116447,0,-40.483516693115234,41.08327102661133,-42.58266067504883
-0.15862104296684265,-0.33411547541618347,9.649415969848633,-0.0003063383292368989,0.011975696548084513,-0.010445869667321014,3.2001187801361084,2019-08-06 14:26:40:859,178.4304014347094,-177.9110894557456,0,-40.483516693115234,41.08327102661133,-42.58266067504883
-0.13227878510951996,-0.26227298378944397,9.572784423828125,-3.9957173202045016e-05,0.011975696548084513,-0.012310538080594237,3.2100045680999756,2019-08-06 14:26:40:869,178.43931236942393,-177.9214578026857,0,-40.483516693115234,41.08327102661133,-42.58266067504883
-0.16341052949428558,-0.2742467224597931,9.66139030456543,0.0004928051185493561,0.01756970178790418,-0.005118247115536523,3.2201502323150635,2019-08-06 14:26:40:879,178.44113715098402,-177.93079033725658,0,-40.483516693115234,41.08327102661133,-42.58266067504883
-0.13946303725242615,-0.2598782479763031,9.678153038024902,-0.0013718629371216693,0.01410674660909561,-0.0027208169672335025,3.2300071716308594,2019-08-06 14:26:40:889,178.44799520443576,-177.94065246095812,0,-41.53308868408203,41.83296585083008,-44.231990814208984
-0.11312079429626465,-0.307773232460022,9.70210075378418,0.0034229976195586987,0.010111029175108591,0.0071352852737164565,3.2401366233825684,2019-08-06 14:26:40:899,178.4599243800841,-177.94744737567066,0,-41.53308868408203,41.83296585083008,-44.231990814208984
-0.18017378449440002,-0.2981942296028137,9.66139030456543,0.0020910919816125757,0.012508459843560263,0.007668047528894907,3.250009298324585,2019-08-06 14:26:40:909,178.462424308762,-177.9543007068046,0,-41.53308868408203,41.83296585083008,-44.231990814208984
-0.1873580366373062,-0.31495746970176697,9.647021293640137,-0.0013718629371216693,0.017036938492428433,0.010598239932376376,3.260248899459839,2019-08-06 14:26:40:919,178.4611279835685,-177.9570271885024,0,-41.53308868408203,41.83296585083008,-44.231990814208984
-0.1873580366373062,-0.3269312381744385,9.704495429992676,0.0007591862786478714,0.01756970178790418,0.013262051208268621,3.2702181339263916,2019-08-06 14:26:40:929,178.45994975338766,-177.95972187366297,0,-41.53308868408203,41.83296585083008,-44.231990814208984
-0.13946303725242615,-0.2862204909324646,9.642231941223145,0.002890235364380249,0.009844647527370716,0.010864621580114251,3.280130386352539,2019-08-06 14:26:40:939,178.4686984015032,-177.96813062952964,0,-41.53308868408203,41.83296585083008,-44.231990814208984
-0.13946303725242615,-0.30298373103141785,9.625469207763672,-0.0016382440647108938,0.011975696548084513,0.012729288953090175,3.2900149822235107,2019-08-06 14:26:40:949,178.4760757344494,-177.97180034406185,0,-41.53308868408203,41.83296585083008,-44.231990814208984
-0.1753842830657959,-0.26227298378944397,9.606310844421387,-0.0008391006169246387,0.012242078195822388,0.01592586352445817,3.3001604080200195,2019-08-06 14:26:40:959,178.4786614656612,-177.98060813705638,0,-41.53308868408203,41.83296585083008,-44.231990814208984
-0.13946303725242615,-0.25748348236083984,9.670969009399414,0.005021284645168371,0.016237795629809405,0.017524149249696214,3.31012225151062,2019-08-06 14:26:40:969,178.4834816598254,-177.9933025829894,0,-41.53308868408203,41.83296585083008,-44.231990814208984
-0.1226997897028923,-0.2598782479763031,9.66139030456543,0.0012919485988449018,0.015172271119452508,0.01832329315261254,3.319990396499634,2019-08-06 14:26:40:979,178.49085278568862,-178.00333625481392,0,-41.53308868408203,41.83296585083008,-44.231990814208984
-0.2089107781648636,-0.31495746970176697,9.627863883972168,-0.002970149702657017,0.013840364961357736,0.019122437055528865,3.330113410949707,2019-08-06 14:26:40:989,178.48830796860992,-178.00410816801386,0,-41.53308868408203,41.83296585083008,-44.231990814208984
-0.1682000309228897,-0.3389049768447876,9.606310844421387,0.0004928051185493561,0.015971413982071532,0.01779053193773139,3.3400285243988037,2019-08-06 14:26:40:999,178.48958784773,-178.00388989936292,0,-41.53308868408203,41.83296585083008,-44.231990814208984
-0.20412127673625946,-0.30298373103141785,9.58236312866211,0.0031566164919694735,0.014373127216536186,0.020454342173326336,3.3500213623046875,2019-08-06 14:26:41:009,178.48732504259178,-178.00936275071243,0,-40.33357620239258,40.63345718383789,-42.43272399902344
-0.2280687838792801,-0.3389049768447876,9.606310844421387,-0.0008391006169246387,0.012508459843560263,0.01486033797380397,3.3600172996520996,2019-08-06 14:26:41:019,178.48335720066643,-178.0082940674536,0,-40.33357620239258,40.63345718383789,-42.43272399902344
-0.17298953235149384,-0.34848397970199585,9.642231941223145,0.0010255674062370958,0.013840364961357736,0.017524149249696214,3.370155096054077,2019-08-06 14:26:41:029,178.48525516602004,-178.00731497424422,0,-40.33357620239258,40.63345718383789,-42.43272399902344
-0.18496328592300415,-0.3197469711303711,9.697311401367188,0.0002264239747054862,0.014905889471714633,0.012196526697911724,3.380004644393921,2019-08-06 14:26:41:039,178.48545218649838,-178.00952360076187,0,-40.33357620239258,40.63345718383789,-42.43272399902344
-0.1753842830657959,-0.32932597398757935,9.658995628356934,-0.002970149702657017,0.01410674660909561,0.012729288953090175,3.3900201320648193,2019-08-06 14:26:41:049,178.48700515305825,-178.00860764902913,0,-40.33357620239258,40.63345718383789,-42.43272399902344
-0.17059478163719177,-0.29579949378967285,9.623074531555176,0.0002264239747054862,0.011975696548084513,0.0113973838352927,3.400038957595825,2019-08-06 14:26:41:059,178.49021575705171,-178.01335015982465,0,-40.33357620239258,40.63345718383789,-42.43272399902344
-0.20412127673625946,-0.3125627338886261,9.656600952148438,0.002890235364380249,0.011176553685465489,0.009799097069757354,3.4099977016448975,2019-08-06 14:26:41:069,178.4899429503822,-178.01762152585943,0,-40.33357620239258,40.63345718383789,-42.43272399902344
-0.18017378449440002,-0.2981942296028137,9.718864440917969,0.0015583297264341264,0.016504176237249982,0.009532715422019479,3.4200186729431152,2019-08-06 14:26:41:079,178.48961638897123,-178.0229979710669,0,-40.33357620239258,40.63345718383789,-42.43272399902344
-0.14664728939533234,-0.25029924511909485,9.615889549255371,0.0012919485988449018,0.012508459843560263,0.0124629083456496,3.4300012588500977,2019-08-06 14:26:41:089,178.4953383579412,-178.03344100804154,0,-40.33357620239258,40.63345718383789,-42.43272399902344
-0.1945422738790512,-0.2670624852180481,9.666179656982422,-3.9957173202045016e-05,0.010910172037727614,0.0028731869722145387,3.44001841545105,2019-08-06 14:26:41:099,178.4962353618431,-178.0410977844284,0,-40.33357620239258,40.63345718383789,-42.43272399902344
-0.18496328592300415,-0.2598782479763031,9.62067985534668,-0.0016382440647108938,0.013307602706179285,0.0012749002066791914,3.4499964714050293,2019-08-06 14:26:41:109,178.49682665658744,-178.04841149975618,0,-40.33357620239258,40.63345718383789,-42.43272399902344
-0.19693702459335327,-0.28861522674560547,9.670969009399414,-3.9957173202045016e-05,0.01410674660909561,-0.001655292456876604,3.460005044937134,2019-08-06 14:26:41:119,178.49563051976102,-178.0532328698481,0,-40.33357620239258,40.63345718383789,-42.43272399902344
-0.11551553755998611,-0.27664148807525635,9.694916725158691,-0.0003063383292368989,0.014905889471714633,-0.0024544358396442778,3.4700119495391846,2019-08-06 14:26:41:129,178.50368948414405,-178.05930660402117,0,-40.33357620239258,40.63345718383789,-42.43272399902344
-0.12030503898859024,-0.255088746547699,9.67336368560791,0.001824710854023351,0.01357398435391716,-0.004585484860358075,3.4800121784210205,2019-08-06 14:26:41:139,178.51174303501432,-178.06893402120957,0,-39.88376235961914,42.28278350830078,-42.28278350830078
-0.08438379317522049,-0.3173522353172302,9.570389747619629,-0.003236530830246241,0.015438651726893083,-0.007515677783988195,3.4900100231170654,2019-08-06 14:26:41:149,178.52273778525083,-178.06775400811335,0,-39.88376235961914,42.28278350830078,-42.28278350830078
-0.12509453296661377,-0.33411547541618347,9.63265323638916,-0.0011054818095324445,0.013041222098738713,-0.014441587101308034,3.5000271797180176,2019-08-06 14:26:41:159,178.530067231906,-178.06604616195085,0,-39.88376235961914,42.28278350830078,-42.28278350830078
-0.08438379317522049,-0.35566821694374084,9.637442588806152,0.0010255674062370958,0.01810246300278533,-0.012044157473153664,3.5100417137145996,2019-08-06 14:26:41:169,178.53925342199545,-178.06303128939857,0,-39.88376235961914,42.28278350830078,-42.28278350830078
-0.038883551955223083,-0.3963789641857147,9.611100196838379,-0.0024373874474785677,0.01357398435391716,-0.01124501357023734,3.520033597946167,2019-08-06 14:26:41:179,178.5562167691314,-178.05317034294447,0,-39.88376235961914,42.28278350830078,-42.28278350830078
-0.04846255108714104,-0.3915894627571106,9.67336368560791,0.0020910919816125757,0.01410674660909561,-0.017904542280116606,3.53004789352417,2019-08-06 14:26:41:189,178.5714193208116,-178.0469200249708,0,-39.88376235961914,42.28278350830078,-42.28278350830078
-0.005357054993510246,-0.3891947269439697,9.637442588806152,-0.0005727194893354142,0.014639508864274061,-0.010978632962796765,3.5400338172912598,2019-08-06 14:26:41:199,178.59114547391476,-178.03940941886765,0,-39.88376235961914,42.28278350830078,-42.28278350830078
-0.007751804776489735,-0.3580629825592041,9.601521492004395,0.001824710854023351,0.011709315940643939,-0.018437303494997753,3.5500385761260986,2019-08-06 14:26:41:209,178.61181951393937,-178.03693223706782,0,-39.88376235961914,42.28278350830078,-42.28278350830078
-0.02930455282330513,-0.3460892140865326,9.613494873046875,0.001824710854023351,0.014373127216536186,-0.013908824846129587,3.5600388050079346,2019-08-06 14:26:41:219,178.628019395314,-178.03598263003246,0,-39.88376235961914,42.28278350830078,-42.28278350830078
0.016195692121982574,-0.3844052255153656,9.70210075378418,0.0002264239747054862,0.014639508864274061,-0.009380345156964117,3.5700361728668213,2019-08-06 14:26:41:229,171.4491539789431,-178.03001169611534,0,-39.88376235961914,42.28278350830078,-42.28278350830078
0.00422194367274642,-0.3269312381744385,9.623074531555176,0.0012919485988449018,0.014905889471714633,-0.011777775825415789,3.5800490379333496,2019-08-06 14:26:41:239,164.41229324408158,-178.03122182306083,0,-39.88376235961914,42.28278350830078,-42.28278350830078
-0.07001529633998871,-0.3125627338886261,9.560811042785645,-0.0013718629371216693,0.01756970178790418,-0.004851865987947299,3.590027332305908,2019-08-06 14:26:41:249,164.7058118620495,-178.0323797408036,0,-39.88376235961914,42.28278350830078,-42.28278350830078
-0.026909802109003067,-0.33411547541618347,9.658995628356934,-0.0024373874474785677,0.012774840451000838,-0.005651009370714973,3.600043773651123,2019-08-06 14:26:41:259,165.0013182821837,-178.0307386010036,0,-39.88376235961914,42.28278350830078,-42.28278350830078
-0.08198904246091843,-0.34129971265792847,9.642231941223145,0.0007591862786478714,0.016237795629809405,-0.003519960350001176,3.610029458999634,2019-08-06 14:26:41:269,165.28244384634777,-178.03000521088882,0,-39.88376235961914,42.28278350830078,-42.28278350830078
-0.05564679950475693,-0.2670624852180481,9.647021293640137,-0.0024373874474785677,0.01570503337463096,-0.0024544358396442778,3.6200551986694336,2019-08-06 14:26:41:279,165.56134401828135,-178.03631823853817,0,-39.88376235961914,42.28278350830078,-42.28278350830078
-0.07001529633998871,-0.2934047281742096,9.565600395202637,-3.9957173202045016e-05,0.017836082395344753,-0.0003233867214026093,3.6300220489501953,2019-08-06 14:26:41:289,165.8317480356389,-178.0404319717673,0,-39.88376235961914,42.28278350830078,-42.28278350830078
-0.1226997897028923,-0.25748348236083984,9.670969009399414,0.0002264239747054862,0.010910172037727614,-0.0027208169672335025,3.640044927597046,2019-08-06 14:26:41:299,166.09443506318692,-178.04924868215207,0,-39.88376235961914,42.28278350830078,-42.28278350830078
-0.15143679082393646,-0.2718519866466522,9.627863883972168,-0.0013718629371216693,0.014373127216536186,-0.0053846282431257485,3.650028705596924,2019-08-06 14:26:41:309,166.34646632810333,-178.05514722601035,0,-39.88376235961914,42.28278350830078,-42.28278350830078
-0.19933177530765533,-0.29579949378967285,9.728443145751953,-0.002171006319889343,0.013307602706179285,-0.001655292456876604,3.6600399017333984,2019-08-06 14:26:41:319,166.58858038327952,-178.05799233942034,0,-39.88376235961914,42.28278350830078,-42.28278350830078
-0.19214753806591034,-0.2934047281742096,9.721259117126465,0.0004928051185493561,0.011975696548084513,-0.01124501357023734,3.6700479984283447,2019-08-06 14:26:41:329,166.82743211346002,-178.06253417065773,0,-39.88376235961914,42.28278350830078,-42.28278350830078
-0.24243727326393127,-0.2981942296028137,9.656600952148438,-0.006433104361316936,0.011442934292906064,-0.013642444238689011,3.680026054382324,2019-08-06 14:26:41:339,167.05570922421057,-178.06230479292242,0,-39.88376235961914,42.28278350830078,-42.28278350830078
-0.2951217591762543,-0.23832549154758453,9.663784980773926,-3.9957173202045016e-05,0.011442934292906064,-0.011777775825415789,3.69003963470459,2019-08-06 14:26:41:349,167.27317694651907,-178.07278171650842,0,-39.88376235961914,42.28278350830078,-42.28278350830078
-0.2687795162200928,-0.24790449440479279,9.649415969848633,0.0010255674062370958,0.013041222098738713,-0.014974349356486484,3.700038433074951,2019-08-06 14:26:41:359,167.48848102111398,-178.08246846463732,0,-39.88376235961914,42.28278350830078,-42.28278350830078
-0.3118850290775299,-0.27664148807525635,9.67336368560791,-0.0003063383292368989,0.007979980154394795,-0.018170922887557176,3.7100255489349365,2019-08-06 14:26:41:369,167.6973030315088,-178.08788503212065,0,-39.88376235961914,42.28278350830078,-42.28278350830078
-0.3262535035610199,-0.2335359901189804,9.721259117126465,-3.9957173202045016e-05,0.017036938492428433,-0.019769210693389827,3.7200515270233154,2019-08-06 14:26:41:379,167.89532245504873,-178.0985815437117,0,-39.88376235961914,42.28278350830078,-42.28278350830078
-0.33583250641822815,-0.27664148807525635,9.560811042785645,0.0007591862786478714,0.01357398435391716,-0.015507111611664931,3.730030059814453,2019-08-06 14:26:41:389,168.08957577022414,-178.10388753034394,0,-40.63345718383789,40.93333435058594,-44.53186798095703
-0.3118850290775299,-0.29579949378967285,9.556020736694336,-0.0037692930854246903,0.01357398435391716,-0.014974349356486484,3.7400448322296143,2019-08-06 14:26:41:399,168.28276462463805,-178.10423056047486,0,-40.63345718383789,40.93333435058594,-44.53186798095703
-0.3262535035610199,-0.28861522674560547,9.625469207763672,-0.005101198723370813,0.011442934292906064,-0.01710539837720028,3.750025987625122,2019-08-06 14:26:41:409,168.47187051441452,-178.10493757544046,0,-40.63345718383789,40.93333435058594,-44.53186798095703
-0.3597800135612488,-0.34129971265792847,9.611100196838379,-0.0011054818095324445,0.012242078195822388,-0.01603987386684338,3.760049819946289,2019-08-06 14:26:41:419,168.6526668551491,-178.10154110940104,0,-40.63345718383789,40.93333435058594,-44.53186798095703
-0.3597800135612488,-0.3053784668445587,9.587152481079102,-3.9957173202045016e-05,0.015438651726893083,-0.015773493259402808,3.7700254917144775,2019-08-06 14:26:41:429,168.82798286971615,-178.10299952532486,0,-40.63345718383789,40.93333435058594,-44.53186798095703
-0.3525957465171814,-0.2742467224597931,9.654206275939941,-0.0016382440647108938,0.014639508864274061,-0.010445869667321014,3.7800447940826416,2019-08-06 14:26:41:439,169.00135417314513,-178.10747465244555,0,-40.63345718383789,40.93333435058594,-44.53186798095703
-0.33583250641822815,-0.26227298378944397,9.623074531555176,-0.003236530830246241,0.014373127216536186,-0.011777775825415789,3.7900266647338867,2019-08-06 14:26:41:449,169.1732965224409,-178.11228741249562,0,-40.63345718383789,40.93333435058594,-44.53186798095703
-0.278358519077301,-0.25748348236083984,9.637442588806152,-0.0013718629371216693,0.013307602706179285,-0.008581202294345095,3.8000266551971436,2019-08-06 14:26:41:459,169.34927008586376,-178.11866322874562,0,-40.63345718383789,40.93333435058594,-44.53186798095703
-0.28314802050590515,-0.28382572531700134,9.670969009399414,0.0015583297264341264,0.012774840451000838,-0.007249296656398971,3.8100314140319824,2019-08-06 14:26:41:469,169.52156751535765,-178.1235444483935,0,-40.63345718383789,40.93333435058594,-44.53186798095703
-0.2520162761211395,-0.2646677494049072,9.630258560180664,-0.002970149702657017,0.01357398435391716,-0.002987198094822727,3.8200418949127197,2019-08-06 14:26:41:479,169.69352553786894,-178.12791888069765,0,-40.63345718383789,40.93333435058594,-44.53186798095703
-0.17777903378009796,-0.2790362238883972,9.663784980773926,-0.004568436468192365,0.014905889471714633,0.0026068058446253144,3.830026149749756,2019-08-06 14:26:41:489,169.870220203329,-178.129720909453,0,-40.63345718383789,40.93333435058594,-44.53186798095703
-0.1873580366373062,-0.29579949378967285,9.639837265014648,-0.0016382440647108938,0.013840364961357736,0.0023404247170360896,3.840045213699341,2019-08-06 14:26:41:499,170.04276064504197,-178.1310533465146,0,-40.63345718383789,40.93333435058594,-44.53186798095703
-0.18975278735160828,-0.24311499297618866,9.642231941223145,-0.004834817595781589,0.013840364961357736,0.006868904146127233,3.850022554397583,2019-08-06 14:26:41:509,170.21160374016478,-178.13683719632218,0,-40.63345718383789,40.93333435058594,-44.53186798095703
-0.16341052949428558,-0.31016796827316284,9.62067985534668,-0.002970149702657017,0.01410674660909561,0.012196526697911724,3.8600542545318604,2019-08-06 14:26:41:519,170.3799637411339,-178.1354962314644,0,-40.63345718383789,40.93333435058594,-44.53186798095703
-0.16101577877998352,-0.2934047281742096,9.556020736694336,0.001824710854023351,0.014905889471714633,0.009799097069757354,3.8700149059295654,2019-08-06 14:26:41:529,170.54472129248936,-178.1386341051222,0,-40.63345718383789,40.93333435058594,-44.53186798095703
-0.07001529633998871,-0.300588995218277,9.577573776245117,-0.0011054818095324445,0.016504176237249982,0.01299567060082805,3.880045175552368,2019-08-06 14:26:41:539,170.71615486261877,-178.13928643581974,0,-40.63345718383789,40.93333435058594,-44.53186798095703
-0.11791028827428818,-0.34848397970199585,9.680547714233398,0.001824710854023351,0.013041222098738713,0.01992158095844519,3.890038251876831,2019-08-06 14:26:41:549,170.88055750104868,-178.13629127711334,0,-40.63345718383789,40.93333435058594,-44.53186798095703
-0.13227878510951996,-0.31495746970176697,9.675758361816406,-0.0008391006169246387,0.016770557884987856,0.017524149249696214,3.90004825592041,2019-08-06 14:26:41:559,171.03785527222817,-178.1358060738655,0,-40.63345718383789,40.93333435058594,-44.53186798095703
-0.04367304965853691,-0.35566821694374084,9.615889549255371,-0.0016382440647108938,0.012774840451000838,0.017524149249696214,3.910027503967285,2019-08-06 14:26:41:569,171.20473556047136,-178.12980668939207,0,-40.63345718383789,40.93333435058594,-44.53186798095703
-0.06283104419708252,-0.3700367212295532,9.608705520629883,-0.002171006319889343,0.0194343681205828,0.020987105468802086,3.9200289249420166,2019-08-06 14:26:41:579,171.36223392567288,-178.1218832997842,0,-40.63345718383789,40.93333435058594,-44.53186798095703
-0.04127829894423485,-0.3389049768447876,9.627863883972168,-0.004035674213013915,0.0194343681205828,0.0281793964338598,3.9300472736358643,2019-08-06 14:26:41:589,171.5191439090905,-178.11685537311772,0,-40.63345718383789,40.93333435058594,-44.53186798095703
-0.053252048790454865,-0.34129971265792847,9.682943344116211,-3.9957173202045016e-05,0.01357398435391716,0.020454342173326336,3.940026044845581,2019-08-06 14:26:41:599,171.67485345495282,-178.11412191233876,0,-40.63345718383789,40.93333435058594,-44.53186798095703
-0.046067800372838974,-0.36045771837234497,9.66139030456543,0.0015583297264341264,0.01570503337463096,0.02871215764874095,3.9500529766082764,2019-08-06 14:26:41:609,171.827050325698,-178.10998357867416,0,-40.63345718383789,40.93333435058594,-44.53186798095703
-0.038883551955223083,-0.37482622265815735,9.663784980773926,-0.0013718629371216693,0.00824636128198402,0.02658110862802715,3.960026264190674,2019-08-06 14:26:41:619,171.9812806450525,-178.10259166229247,0,-40.63345718383789,40.93333435058594,-44.53186798095703
-0.2999112606048584,0.01072847843170166,9.491362571716309,-0.01016244066771473,0.021032655926415452,0.022052629979158984,3.9700236320495605,2019-08-06 14:26:41:629,172.09365135130602,-170.9361304094766,0,-40.63345718383789,40.93333435058594,-44.53186798095703
-0.08677854388952255,-0.12577225267887115,9.721259117126465,0.011148050579720535,0.021299036533856022,0.02631472802058658,3.980020761489868,2019-08-06 14:26:41:639,172.229593430173,-171.10884075564903,0,-41.53308868408203,42.43272399902344,-42.732601165771484
0.08324868232011795,-0.7843284010887146,9.316546440124512,-0.0016382440647108938,0.0026523570824616527,0.028978538256181526,3.9900429248809814,2019-08-06 14:26:41:649,165.19374810598006,-171.189498232658,0,-41.53308868408203,42.43272399902344,-42.732601165771484
-0.4555700123310089,-0.10900900512933731,9.769153594970703,0.0026238542367910244,0.0330198082283765,0.016458625779636617,4.000032424926758,2019-08-06 14:26:41:659,165.4179526437752,-171.35439385435865,0,-41.53308868408203,42.43272399902344,-42.732601165771484
0.10959093272686005,-0.44666871428489685,9.656600952148438,0.011148050579720535,0.03674914297432835,0.031642350572371074,4.010026216506958,2019-08-06 14:26:41:669,158.5019760283716,-171.48059482126638,0,-41.53308868408203,42.43272399902344,-42.732601165771484
0.06888018548488617,-0.3580629825592041,9.199203491210938,-0.005367579850960038,-0.013596892740778348,0.03004406276653842,4.020044803619385,2019-08-06 14:26:41:679,151.7481653609707,-171.60338316873396,0,-41.53308868408203,42.43272399902344,-42.732601165771484
-0.17777903378009796,-0.27664148807525635,9.529679298400879,0.014078243503350657,0.02742580298855684,0.02764663313838405,4.030024766921997,2019-08-06 14:26:41:689,152.27645843769224,-171.74594860461517,0,-41.53308868408203,42.43272399902344,-42.732601165771484
-0.05804154649376869,-0.2862204909324646,9.515310287475586,-0.0003063383292368989,0.029024090794389487,0.02764663313838405,4.040023565292358,2019-08-06 14:26:41:699,152.80764446367888,-171.8763988991235,0,-41.53308868408203,42.43272399902344,-42.732601165771484
0.19340716302394867,-0.300588995218277,9.510520935058594,-0.009896059019976856,0.020499892630939702,0.033507018985644295,4.050004243850708,2019-08-06 14:26:41:709,146.1633034263454,-171.99711934182326,0,-41.53308868408203,42.43272399902344,-42.732601165771484
0.258065402507782,-0.1688777506351471,9.201598167419434,0.009816145461923064,0.021831799829331772,0.03190873117981164,4.06001091003418,2019-08-06 14:26:41:719,139.6599002603568,-172.14166365152613,0,-41.53308868408203,42.43272399902344,-42.732601165771484
0.06169593706727028,-0.3173522353172302,9.754785537719727,0.00608680915552527,0.0015868324420675922,0.02524920351022968,4.0700013637542725,2019-08-06 14:26:41:729,133.27305955895753,-172.2649779467775,0,-41.53308868408203,42.43272399902344,-42.732601165771484
0.037748441100120544,-0.36045771837234497,9.716469764709473,-0.004035674213013915,0.01810246300278533,0.02764663313838405,4.080032110214233,2019-08-06 14:26:41:739,127.00185446165986,-172.37491416114966,0,-41.53308868408203,42.43272399902344,-42.732601165771484
0.152696430683136,-0.30298373103141785,9.508126258850098,-0.0019046251923001184,0.02742580298855684,0.02977768215909785,4.090009927749634,2019-08-06 14:26:41:749,120.86485331253296,-172.48984567923586,0,-41.53308868408203,42.43272399902344,-42.732601165771484
0.07845918089151382,-0.20479899644851685,9.599126815795898,0.009816145461923064,0.017836082395344753,0.024183678999872782,4.09999942779541,2019-08-06 14:26:41:759,114.84691784412928,-172.62111013597408,0,-41.53308868408203,42.43272399902344,-42.732601165771484
0.04972218722105026,-0.2742467224597931,9.663784980773926,-0.0008391006169246387,0.006648073996300022,0.01858967376005311,4.109999418258667,2019-08-06 14:26:41:769,108.95214252874547,-172.73570578426845,0,-41.53308868408203,42.43272399902344,-42.732601165771484
-0.03169930353760719,-0.3125627338886261,9.58236312866211,0.005287665772757595,0.012508459843560263,0.01486033797380397,4.120028018951416,2019-08-06 14:26:41:779,110.36226533119003,-172.84660432707477,0,-41.53308868408203,42.43272399902344,-42.732601165771484
-0.08198904246091843,-0.24790449440479279,9.436284065246582,0.005021284645168371,0.020766275318974875,0.006069760763359559,4.130004405975342,2019-08-06 14:26:41:789,111.73343105613496,-172.96238713147056,0,-41.53308868408203,42.43272399902344,-42.732601165771484
-0.08917329460382462,-0.300588995218277,9.675758361816406,-0.0016382440647108938,0.020766275318974875,0.008733572559400455,4.140059947967529,2019-08-06 14:26:41:799,113.07647679901667,-173.06662661654155,0,-41.53308868408203,42.43272399902344,-42.732601165771484
-0.1226997897028923,-0.398773729801178,9.761969566345215,-0.002171006319889343,0.015971413982071532,0.0071352852737164565,4.150013208389282,2019-08-06 14:26:41:809,114.39161880975861,-173.15729644442123,0,-41.53308868408203,42.43272399902344,-42.732601165771484
-0.17059478163719177,-0.29579949378967285,9.656600952148438,0.0002264239747054862,0.009311885272192268,-0.0003233867214026093,4.160022974014282,2019-08-06 14:26:41:819,115.67831092675101,-173.25918724138307,0,-41.53308868408203,42.43272399902344,-42.732601165771484
-0.25680577754974365,-0.307773232460022,9.579968452453613,-0.004035674213013915,0.01410674660909561,-0.001122530201698155,4.170001268386841,2019-08-06 14:26:41:829,116.92613030824357,-173.35494050604717,0,-41.53308868408203,42.43272399902344,-42.732601165771484
-0.18017378449440002,-0.37482622265815735,9.55362606048584,-0.0037692930854246903,0.017836082395344753,-0.011511395217975215,4.1800196170806885,2019-08-06 14:26:41:839,118.15596589548521,-173.44078564339765,0,-41.53308868408203,42.43272399902344,-42.732601165771484
-0.24962152540683746,-0.40835273265838623,9.630258560180664,0.009816145461923064,0.023696468242604993,-0.01603987386684338,4.189997911453247,2019-08-06 14:26:41:849,119.3498738192416,-173.528908446692,0,-41.53308868408203,42.43272399902344,-42.732601165771484
-0.2137002795934677,-0.37482622265815735,9.627863883972168,0.0007591862786478714,0.016237795629809405,-0.021367496418627875,4.19999885559082,2019-08-06 14:26:41:859,120.5283273898092,-173.61416701990146,0,-41.53308868408203,42.43272399902344,-42.732601165771484
-0.21609503030776978,-0.31016796827316284,9.656600952148438,-0.0019046251923001184,0.009844647527370716,-0.02536321385261489,4.210007667541504,2019-08-06 14:26:41:869,121.68658924069196,-173.70401937739118,0,-41.53308868408203,42.43272399902344,-42.732601165771484
-0.1418577879667282,-0.33651024103164673,9.556020736694336,-0.0003063383292368989,0.01756970178790418,-0.022965784224460523,4.220005750656128,2019-08-06 14:26:41:879,122.82598427644562,-173.78943086738954,0,-41.53308868408203,42.43272399902344,-42.732601165771484
-0.13946303725242615,-0.3580629825592041,9.546442031860352,-0.002703768575067792,0.015971413982071532,-0.028027026168804436,4.230007648468018,2019-08-06 14:26:41:889,123.94375558382936,-173.86916353169437,0,-41.233211517333984,43.03247833251953,-43.33235549926758
-0.24243727326393127,-0.3532734811306,9.680547714233398,-0.01016244066771473,0.014373127216536186,-0.028293406776245013,4.240009307861328,2019-08-06 14:26:41:899,125.02811660876834,-173.94427362045576,0,-41.233211517333984,43.03247833251953,-43.33235549926758
-0.19214753806591034,-0.4370897114276886,9.723653793334961,-0.00723224826423326,0.013307602706179285,-0.03042445579695881,4.249994993209839,2019-08-06 14:26:41:909,126.09745146749968,-174.00985745763842,0,-41.233211517333984,43.03247833251953,-43.33235549926758
0.07845918089151382,-0.2910099923610687,9.342888832092285,-0.011227965178071628,0.014373127216536186,-0.024297689342257994,4.260019063949585,2019-08-06 14:26:41:919,119.97703539912534,-174.08765948643858,0,-41.233211517333984,43.03247833251953,-43.33235549926758
0.09522242844104767,-0.1880357414484024,9.599126815795898,-0.0005727194893354142,0.01810246300278533,-0.023764928127376846,4.269988536834717,2019-08-06 14:26:41:929,113.97872821333988,-174.1831414126738,0,-41.233211517333984,43.03247833251953,-43.33235549926758
-0.2687795162200928,-0.3772209584712982,9.824233055114746,0.00555404690034682,0.01570503337463096,-0.037350364073981346,4.280023813247681,2019-08-06 14:26:41:939,115.25896109566011,-174.25863007256027,0,-41.233211517333984,43.03247833251953,-43.33235549926758
-0.2951217591762543,-0.3532734811306,9.726048469543457,0.003955759874737148,0.012242078195822388,-0.022433020928984772,4.289992094039917,2019-08-06 14:26:41:949,116.5121694127153,-174.3340674581906,0,-41.233211517333984,43.03247833251953,-43.33235549926758
-0.23285827040672302,-0.34129971265792847,9.726048469543457,-0.008830534509619957,0.007713599026805571,-0.016572636122021832,4.300019264221191,2019-08-06 14:26:41:959,117.75015313813773,-174.40221912634385,0,-41.233211517333984,43.03247833251953,-43.33235549926758
-0.2951217591762543,-0.16648299992084503,9.63265323638916,0.001824710854023351,0.017036938492428433,-0.020301971908270974,4.3100035190582275,2019-08-06 14:26:41:969,118.95050174953107,-174.49539459519673,0,-41.233211517333984,43.03247833251953,-43.33235549926758
-0.3190692663192749,-0.32214173674583435,9.668574333190918,0.0023574731092018,0.016237795629809405,-0.02269940361701995,4.320003509521484,2019-08-06 14:26:41:979,120.12457197912872,-174.56864442800588,0,-41.233211517333984,43.03247833251953,-43.33235549926758
-0.19933177530765533,-0.29579949378967285,9.66139030456543,0.0012919485988449018,0.01410674660909561,-0.018703686183032926,4.330018043518066,2019-08-06 14:26:41:989,121.29050917226505,-174.64292487034618,0,-41.233211517333984,43.03247833251953,-43.33235549926758
-0.0771995484828949,-0.3796157240867615,9.694916725158691,-0.0019046251923001184,0.014639508864274061,-0.01950282800535465,4.339996099472046,2019-08-06 14:26:41:999,122.4473723565416,-174.7041525298597,0,-41.233211517333984,43.03247833251953,-43.33235549926758
-0.21130552887916565,-0.26945722103118896,9.637442588806152,0.005287665772757595,0.01570503337463096,-0.023498545439341673,4.349996089935303,2019-08-06 14:26:42:009,123.56448584155311,-174.78100771300717,0,-41.233211517333984,43.03247833251953,-43.33235549926758
0.018590440973639488,-0.22395698726177216,9.527284622192383,-0.005900342106138487,0.007979980154394795,-0.018170922887557176,4.360012531280518,2019-08-06 14:26:42:019,117.49094401404263,-174.85513710706977,0,-41.233211517333984,43.03247833251953,-43.33235549926758
-0.07959429919719696,-0.21198324859142303,9.527284622192383,0.009549763814185189,0.014905889471714633,-0.01950282800535465,4.3699986934661865,2019-08-06 14:26:42:029,118.72319391818168,-174.93789656842827,0,-41.233211517333984,43.03247833251953,-43.33235549926758
-0.23764777183532715,-0.3053784668445587,9.728443145751953,-0.004834817595781589,0.017036938492428433,-0.02056835459630615,4.380018711090088,2019-08-06 14:26:42:039,119.91115765224497,-175.0004596659084,0,-41.233211517333984,43.03247833251953,-43.33235549926758
-0.17298953235149384,-0.2598782479763031,9.826627731323242,-0.006433104361316936,0.009578266919930143,-0.016572636122021832,4.3899986743927,2019-08-06 14:26:42:049,121.08739629293753,-175.06654733033912,0,-41.233211517333984,43.03247833251953,-43.33235549926758
-0.14664728939533234,-0.40116846561431885,9.697311401367188,-0.008830534509619957,0.009844647527370716,-0.022166640321544195,4.400003910064697,2019-08-06 14:26:42:059,122.24278996475047,-175.11287704187393,0,-41.233211517333984,43.03247833251953,-43.33235549926758
-0.18975278735160828,-0.22635173797607422,9.594337463378906,0.0026238542367910244,0.013840364961357736,-0.021900259714103625,4.410009860992432,2019-08-06 14:26:42:069,123.36749771042481,-175.18506398763233,0,-41.233211517333984,43.03247833251953,-43.33235549926758
-0.16341052949428558,-0.2718519866466522,9.601521492004395,-0.007498629391822486,0.020233512023499125,-0.017904542280116606,4.4200050830841064,2019-08-06 14:26:42:079,124.46929137345148,-175.244718116567,0,-41.233211517333984,43.03247833251953,-43.33235549926758
-0.06762054562568665,-0.2862204909324646,9.668574333190918,-0.0037692930854246903,0.01756970178790418,-0.013109681983510561,4.430018424987793,2019-08-06 14:26:42:089,125.56201279051794,-175.30379164279523,0,-41.233211517333984,43.03247833251953,-43.33235549926758
-0.046067800372838974,-0.2646677494049072,9.666179656982422,-0.004834817595781589,0.006914455123889247,-0.015773493259402808,4.440001726150513,2019-08-06 14:26:42:099,126.64143531212743,-175.36363734952752,0,-41.233211517333984,43.03247833251953,-43.33235549926758
-0.15383154153823853,-0.26227298378944397,9.558416366577148,-0.0008391006169246387,0.012774840451000838,-0.0061837716258934215,4.450023174285889,2019-08-06 14:26:42:109,127.68297758516731,-175.4244575960417,0,-41.233211517333984,43.03247833251953,-43.33235549926758
-0.16101577877998352,-0.4562477171421051,9.647021293640137,-0.005900342106138487,0.018901606905701654,-0.005651009370714973,4.46000075340271,2019-08-06 14:26:42:119,128.699604216552,-175.45850808160594,0,-41.233211517333984,43.03247833251953,-43.33235549926758
-0.07001529633998871,-0.2215622365474701,9.70210075378418,0.0063531902831144935,0.016770557884987856,0.006336141890948784,4.470021963119507,2019-08-06 14:26:42:129,129.7079061478557,-175.5267486149669,0,-41.233211517333984,43.03247833251953,-43.33235549926758
-0.11551553755998611,-0.31016796827316284,9.567995071411133,-0.00723224826423326,0.013307602706179285,-0.004052722605179625,4.4800050258636475,2019-08-06 14:26:42:139,130.69245437745,-175.5750252096135,0,-40.03369903564453,41.53308868408203,-43.03247833251953
-0.12509453296661377,-0.34129971265792847,9.560811042785645,-0.0011054818095324445,0.01357398435391716,0.004205092610160662,4.490006923675537,2019-08-06 14:26:42:149,131.65598965997367,-175.6220145833649,0,-40.03369903564453,41.53308868408203,-43.03247833251953
-0.15143679082393646,-0.255088746547699,9.625469207763672,-0.006965867136644035,0.01810246300278533,0.006336141890948784,4.500012636184692,2019-08-06 14:26:42:159,132.59467243452056,-175.6752994314149,0,-40.03369903564453,41.53308868408203,-43.03247833251953
-0.1418577879667282,-0.28382572531700134,9.668574333190918,-3.9957173202045016e-05,0.017036938492428433,0.007668047528894907,4.509999752044678,2019-08-06 14:26:42:169,133.51641337088384,-175.72814178127223,0,-40.03369903564453,41.53308868408203,-43.03247833251953
-0.18496328592300415,-0.2742467224597931,9.637442588806152,0.0012919485988449018,0.013840364961357736,0.010598239932376376,4.5200231075286865,2019-08-06 14:26:42:179,134.41630571775713,-175.78170625603752,0,-40.03369903564453,41.53308868408203,-43.03247833251953
-0.15862104296684265,-0.21677273511886597,9.635047912597656,0.0007591862786478714,0.01756970178790418,0.011663764442733275,4.5299999713897705,2019-08-06 14:26:42:189,135.29927364937947,-175.84072055879963,0,-40.03369903564453,41.53308868408203,-43.03247833251953
-0.14664728939533234,-0.33651024103164673,9.738021850585938,-0.005900342106138487,0.008779123017013819,0.01299567060082805,4.539993762969971,2019-08-06 14:26:42:199,136.1711064480462,-175.88101229049568,0,-40.03369903564453,41.53308868408203,-43.03247833251953
