ACCELEROMETER X (m/s²),ACCELEROMETER Y (m/s²),ACCELEROMETER Z (m/s²),GYROSCOPE X (rad/s),GYROSCOPE Y (rad/s),GYROSCOPE Z (rad/s),Time since start in ms ,YYYY-MO-DD HH-MI-SS_SSS,Pitch (Deg),Roll (Deg),Heading (Deg),MagX,MagY,MagZ
-0.23777230083942413,0.3606301546096802,9.836935043334961,0.007930166558442704,-0.0013985010498805918,0.017134434115163247,0.0,2019-08-07 13:53:33:560,3.5723070305537106,3.5580085946654267,0,-16.793163299560547,34.485958099365234,-53.378265380859375
-0.2784830331802368,0.3726038932800293,9.738750457763672,0.002336162618994662,0.002064453868853653,0.01074128705302186,0.010025978088378906,2019-08-07 13:53:33:570,7.06693975366389,7.041711988594794,0,-16.793163299560547,34.485958099365234,-53.378265380859375
-0.22340381145477295,0.23370841145515442,9.839329719543457,-0.002192316810096481,-0.0013985010498805918,0.002483471317532922,0.01999068260192871,2019-08-07 13:53:33:580,10.500369686439509,10.474891174981426,0,-16.793163299560547,34.485958099365234,-53.378265380859375
-0.26171979308128357,0.2816033959388733,9.84411907196045,0.0020697814914054373,-0.0048614559686148365,0.004348139470731819,0.030014514923095703,2019-08-07 13:53:33:590,13.862639891643315,13.831456984054089,0,-16.793163299560547,34.485958099365234,-53.378265380859375
-0.18269306421279907,0.38218289613723755,9.789039611816406,0.001803400363816213,-0.004595074841025611,8.60411123386422e-05,0.039984703063964844,2019-08-07 13:53:33:600,17.16657576455025,17.10910222267041,0,-16.793163299560547,34.485958099365234,-53.378265380859375
-0.15874555706977844,0.25765591859817505,9.827356338500977,-0.0016595545549180318,0.0028635972516213265,-0.00018034003963255039,0.050042152404785156,2019-08-07 13:53:33:610,20.40311824328682,20.337820368377795,0,-16.793163299560547,34.485958099365234,-53.378265380859375
-0.1946668028831482,0.2552611529827118,9.779460906982422,0.003668068256940785,0.00019978586194656375,-0.008171774566259036,0.060056209564208984,2019-08-07 13:53:33:620,23.572136326154602,23.499097825280444,0,-16.793163299560547,34.485958099365234,-53.378265380859375
-0.16353505849838257,0.31752464175224304,9.808197975158691,0.004733593027372009,-0.005127837096204061,-0.004442438259861242,0.07002711296081543,2019-08-07 13:53:33:630,26.68446006762528,26.589381472866652,0,-16.793163299560547,34.485958099365234,-53.378265380859375
-0.17550881206989288,0.3055509030818939,9.77467155456543,0.0007378757884407334,-0.0021976444326482656,-0.003643294877093568,0.07999300956726074,2019-08-07 13:53:33:640,29.731427391243724,29.621371904188834,0,-16.793163299560547,34.485958099365234,-53.378265380859375
-0.17550881206989288,0.2289189100265503,9.793828964233398,-0.0011267922997395827,-0.004595074841025611,-0.006573487280575038,0.08998537063598633,2019-08-07 13:53:33:650,32.71884399369761,32.60279715992108,0,-16.793163299560547,34.485958099365234,-53.378265380859375
-0.13000856339931488,0.31034040451049805,9.75790786743164,0.003668068256940785,-0.0037959311981836125,-0.008171774566259036,0.10002541542053223,2019-08-07 13:53:33:660,35.651340464426205,35.51224094610325,0,-16.793163299560547,34.485958099365234,-53.378265380859375
-0.1539560705423355,0.33668264746665955,9.805803298950195,0.00393444938453001,-0.00033297644199582136,-0.012433872607686629,0.1100010871887207,2019-08-07 13:53:33:670,38.520510189965194,38.36046270656503,0,-16.793163299560547,34.485958099365234,-53.378265380859375
-0.10127156972885132,0.29597190022468567,9.810592651367188,0.0015370192362269886,-0.0013985010498805918,-0.013765778765781403,0.11999273300170898,2019-08-07 13:53:33:680,41.339056091300584,41.1578309461289,0,-16.793163299560547,34.485958099365234,-53.378265380859375
-0.09648206830024719,0.2983666658401489,9.789039611816406,0.00047149462834221814,-0.006726123861739408,-0.012167492000246055,0.12999677658081055,2019-08-07 13:53:33:690,44.10475927619176,43.89949316102889,0,-16.793163299560547,34.485958099365234,-53.378265380859375
-0.180298313498497,0.2480769157409668,9.877645492553711,-0.00911822664756497,-0.005926980478971734,-0.012700254255424506,0.1399846076965332,2019-08-07 13:53:33:700,46.805073766141504,46.59784333554828,0,-16.793163299560547,34.485958099365234,-53.378265380859375
-0.3958257734775543,0.23370841145515442,9.90638256072998,-0.007519939882029623,-0.0016648821774698163,-0.012433872607686629,0.15000224113464355,2019-08-07 13:53:33:710,49.42414617371958,49.243087266696776,0,-16.793163299560547,34.485958099365234,-53.378265380859375
-0.23537755012512207,0.3510511517524719,9.8848295211792,0.005266355282550457,-0.004328693453362062,-0.011901110352508182,0.1600034236907959,2019-08-07 13:53:33:720,52.010812707835015,51.81458901797597,0,-16.793163299560547,34.485958099365234,-53.378265380859375
-0.09408731758594513,0.3534458875656128,9.805803298950195,0.004467211899782784,-0.0016648821774698163,-0.010036441939234959,0.16999006271362305,2019-08-07 13:53:33:730,54.56053523684975,54.33450610335874,0,-16.793163299560547,34.485958099365234,-53.378265380859375
-0.10606107115745544,0.2672349214553833,9.851303100585938,0.0015370192362269886,0.0028635972516213265,-0.010302823586972834,0.18000531196594238,2019-08-07 13:53:33:740,57.05537749771591,56.815874160525965,0,-16.793163299560547,34.485958099365234,-53.378265380859375
-0.13719281554222107,0.21694517135620117,9.834540367126465,0.002602543746583887,-0.001132119922291367,-0.006307106152985815,0.18999767303466797,2019-08-07 13:53:33:750,59.498920546432174,59.25282222808273,0,-16.793163299560547,34.485958099365234,-53.378265380859375
-0.13000856339931488,0.3318931460380554,9.78664493560791,0.0012706381086377639,0.004728265144745899,0.00035242226430983473,0.19999980926513672,2019-08-07 13:53:33:760,61.89106488198973,61.628205779073866,0,-16.793163299560547,34.485958099365234,-53.378265380859375
-0.0892978236079216,0.3007614016532898,9.805803298950195,0.004999974154961233,0.0012653104860859794,0.0038153772155533703,0.2100086212158203,2019-08-07 13:53:33:770,64.24209734720756,63.957695460117975,0,-16.793163299560547,34.485958099365234,-53.378265380859375
-0.10127156972885132,0.2863928973674774,9.808197975158691,0.0015370192362269886,0.004728265144745899,0.009942143150105534,0.21999430656433105,2019-08-07 13:53:33:780,66.54277290322483,66.24422927883727,0,-16.19340705871582,33.88620376586914,-52.77851104736328
-0.03421857953071594,0.3007614016532898,9.824960708618164,0.002602543746583887,0.001531691613675204,0.008343856384570188,0.22999835014343262,2019-08-07 13:53:33:790,68.80706605188752,68.48281499519796,0,-16.19340705871582,33.88620376586914,-52.77851104736328
-0.005481582134962082,0.3342879116535187,9.81538200378418,0.004999974154961233,0.0033963595067997765,0.016868053507722677,0.2403402328491211,2019-08-07 13:53:33:801,71.02831252307533,70.6712432295203,0,-16.19340705871582,33.88620376586914,-52.77851104736328
-0.0629555732011795,0.3342879116535187,9.812987327575684,0.004999974154961233,0.002597216124032102,0.028855204769386432,0.2501394748687744,2019-08-07 13:53:33:810,73.19896565466853,72.81604573157841,0,-16.19340705871582,33.88620376586914,-52.77851104736328
-0.0701398253440857,0.3127351403236389,9.77467155456543,0.0020697814914054373,0.005793789655102798,0.03205177830045713,0.2599825859069824,2019-08-07 13:53:33:820,75.32356160383804,74.92193044568808,0,-16.19340705871582,33.88620376586914,-52.77851104736328
-0.09408731758594513,0.3199194073677063,9.817776679992676,0.008729310461359028,0.0028635972516213265,0.04164149889366921,0.27022314071655273,2019-08-07 13:53:33:831,77.40446239797528,76.98114514644666,0,-16.19340705871582,33.88620376586914,-52.77851104736328
-0.09408731758594513,0.29597190022468567,9.834540367126465,0.0015370192362269886,0.002064453868853653,0.03764578354027679,0.28000807762145996,2019-08-07 13:53:33:840,79.44427622039018,79.00620168227593,0,-16.19340705871582,33.88620376586914,-52.77851104736328
-0.07253457605838776,0.26962965726852417,9.836935043334961,0.003668068256940785,0.003662740634389001,0.03871130597003909,0.2900245189666748,2019-08-07 13:53:33:850,81.44488120979322,80.99261304845881,0,-16.19340705871582,33.88620376586914,-52.77851104736328
-0.134798064827919,0.3127351403236389,9.793828964233398,0.001803400363816213,0.0028635972516213265,0.03711301816420644,0.2999908924102783,2019-08-07 13:53:33:860,83.39861019116387,82.93517280264591,0,-16.19340705871582,33.88620376586914,-52.77851104736328
-0.13719281554222107,0.30315616726875305,9.789039611816406,0.0010042569160299579,-6.659528596096748e-05,0.038977688658074265,0.31000542640686035,2019-08-07 13:53:33:870,85.31461654648436,84.84042818715056,0,-16.19340705871582,33.88620376586914,-52.77851104736328
-0.2401670515537262,0.34386688470840454,9.848908424377441,0.003135306001762336,0.002064453868853653,0.032584541595932874,0.31998300552368164,2019-08-07 13:53:33:880,87.17922984639583,86.70187060473386,0,-16.19340705871582,33.88620376586914,-52.77851104736328
-0.20185105502605438,0.29118239879608154,9.829751014709473,0.0015370192362269886,0.0004661670057904337,0.031519015004981374,0.3299863338470459,2019-08-07 13:53:33:890,89.0118556761837,88.53303484037089,0,-16.19340705871582,33.88620376586914,-52.77851104736328
-0.24735130369663239,0.24568216502666473,9.820171356201172,0.0007378757884407334,0.002064453868853653,0.03684663963736047,0.3399839401245117,2019-08-07 13:53:33:900,90.80160233535122,90.33329725883488,0,-16.19340705871582,33.88620376586914,-52.77851104736328
-0.30243054032325745,0.23370841145515442,9.822566032409668,0.007397404303264255,0.002064453868853653,0.03285092220337345,0.3500063419342041,2019-08-07 13:53:33:910,92.54913763660309,92.09520873844964,0,-16.19340705871582,33.88620376586914,-52.77851104736328
-0.4149837791919708,0.2528664171695709,9.918355941772461,-0.004323365830810277,-0.0019312633050590406,0.024326726120518262,0.3599886894226074,2019-08-07 13:53:33:920,94.25132023796033,93.8265192906246,0,-16.19340705871582,33.88620376586914,-52.77851104736328
-0.4868262708187103,0.27681389451026917,9.920751571655273,0.0010042569160299579,-0.004595074841025611,0.027523299651588957,0.3700251579284668,2019-08-07 13:53:33:930,95.91269663175864,95.51745732934118,0,-16.19340705871582,33.88620376586914,-52.77851104736328
-0.5850110054016113,0.3318931460380554,9.875250816345215,-0.002192316810096481,-0.0016648821774698163,0.023527582217601938,0.37998247146606445,2019-08-07 13:53:33:940,97.52756860899495,97.16983580716432,0,-16.19340705871582,33.88620376586914,-52.77851104736328
-0.2736935615539551,0.3462616503238678,9.8944091796875,0.0034016871293515603,0.002597216124032102,0.017667196370341698,0.3899877071380615,2019-08-07 13:53:33:950,99.14386855058049,98.78444230351782,0,-16.19340705871582,33.88620376586914,-52.77851104736328
-0.2736935615539551,0.3965514004230499,9.765092849731445,0.0015370192362269886,-6.659528596096748e-05,0.007278331874213289,0.4000208377838135,2019-08-07 13:53:33:960,100.72891966926638,100.36137854506279,0,-16.19340705871582,33.88620376586914,-52.77851104736328
-0.3120095431804657,0.29118239879608154,9.765092849731445,-0.00272507906527493,0.0033963595067997765,-0.00604072502539659,0.4100031852722168,2019-08-07 13:53:33:970,102.27583630010186,101.92151880717748,0,-16.19340705871582,33.88620376586914,-52.77851104736328
-0.3000358045101166,0.2528664171695709,9.832145690917969,-0.002192316810096481,0.003929121761978225,-0.010036441939234959,0.42000722885131836,2019-08-07 13:53:33:980,103.79315480133212,103.4548553657309,0,-16.19340705871582,33.88620376586914,-52.77851104736328
-0.30243054032325745,0.2600506544113159,9.877645492553711,-0.0013931734273288073,-0.00033297644199582136,-0.009770061331794384,0.43000221252441406,2019-08-07 13:53:33:990,105.28240426342255,104.95637836026496,0,-16.19340705871582,33.88620376586914,-52.77851104736328
-0.13240331411361694,0.2624454200267792,9.796224594116211,0.0010042569160299579,0.0028635972516213265,-0.014564921628400425,0.44001030921936035,2019-08-07 13:53:34:000,106.75966000565391,106.42599417667229,0,-16.19340705871582,33.88620376586914,-52.77851104736328
-0.23058804869651794,0.32231414318084717,9.841724395751953,0.00020511348449834825,-0.00965631626522088,-0.023621881006731363,0.4499950408935547,2019-08-07 13:53:34:010,108.20303705817265,107.85984424223128,0,-16.19340705871582,33.88620376586914,-52.77851104736328
-0.33356228470802307,0.26484015583992004,9.796224594116211,-0.0013931734273288073,-0.0013985010498805918,-0.03134693318667023,0.4600069522857666,2019-08-07 13:53:34:020,109.60075905399194,109.27245836120778,0,-16.19340705871582,33.88620376586914,-52.77851104736328
-0.33595705032348633,0.18581341207027435,9.820171356201172,-0.004056984703221053,-0.004328693453362062,-0.035875413916133,0.4700005054473877,2019-08-07 13:53:34:030,110.97198532369974,110.6676057407128,0,-15.44371223449707,34.63589859008789,-51.728939056396484
-0.3766677975654602,0.3199194073677063,9.738750457763672,0.0010042569160299579,-6.659528596096748e-05,-0.035875413916133,0.48000359535217285,2019-08-07 13:53:34:040,112.30828427256695,112.01605959645815,0,-15.44371223449707,34.63589859008789,-51.728939056396484
-0.30243054032325745,0.34147214889526367,9.73396110534668,-0.0005940299795425521,-0.0037959311981836125,-0.04253494366630956,0.49001145362854004,2019-08-07 13:53:34:050,113.62865995186968,113.33588940860125,0,-15.44371223449707,34.63589859008789,-51.728939056396484
-0.32877278327941895,0.21933990716934204,9.85609245300293,0.001803400363816213,-0.00246402556023749,-0.04306770488119071,0.5000061988830566,2019-08-07 13:53:34:060,114.91925907340105,114.64266226673932,0,-15.44371223449707,34.63589859008789,-51.728939056396484
-0.3191937804222107,0.2744191586971283,9.827356338500977,0.0020697814914054373,-0.006726123861739408,-0.05292380608184337,0.5099997520446777,2019-08-07 13:53:34:070,116.18744176288048,115.91665735024796,0,-15.44371223449707,34.63589859008789,-51.728939056396484
-0.33595705032348633,0.2887876629829407,9.84411907196045,-0.008319083264797297,-0.00033297644199582136,-0.05718590412327096,0.5199854373931885,2019-08-07 13:53:34:080,117.42478734524744,117.16938166119331,0,-15.44371223449707,34.63589859008789,-51.728939056396484
-0.24495655298233032,0.29597190022468567,9.784250259399414,-0.0024586979376857053,-0.005127837096204061,-0.06597648289416133,0.5299837589263916,2019-08-07 13:53:34:090,118.65048746443632,118.39272116803642,0,-15.44371223449707,34.63589859008789,-51.728939056396484
-0.21621955931186676,0.2983666658401489,9.829751014709473,0.0012706381086377639,-0.009389935657780304,-0.058784191929103606,0.5400094985961914,2019-08-07 13:53:34:100,119.85756171927386,119.58937965341958,0,-15.44371223449707,34.63589859008789,-51.728939056396484
-0.2138248085975647,0.32949841022491455,9.801013946533203,0.00047149462834221814,-0.00566059935138251,-0.06038247973493626,0.5500054359436035,2019-08-07 13:53:34:110,121.03859159470201,120.75881761148827,0,-15.44371223449707,34.63589859008789,-51.728939056396484
-0.23058804869651794,0.27681389451026917,9.858488082885742,-0.0005940299795425521,-0.0016648821774698163,-0.06437819508832868,0.5599961280822754,2019-08-07 13:53:34:120,122.19195587329683,121.91180708527634,0,-15.44371223449707,34.63589859008789,-51.728939056396484
-0.21143005788326263,0.2624454200267792,9.839329719543457,-0.004589746958399502,-0.00246402556023749,-0.05958333583201993,0.5700075626373291,2019-08-07 13:53:34:130,123.32488194364792,123.04559315206403,0,-15.44371223449707,34.63589859008789,-51.728939056396484
-0.13958756625652313,0.3390774130821228,9.846513748168945,-0.0019259356825072562,-0.008324410627274756,-0.054788472414521984,0.5800037384033203,2019-08-07 13:53:34:140,124.44681285699805,124.14631679029311,0,-15.44371223449707,34.63589859008789,-51.728939056396484
-0.1683245599269867,0.26484015583992004,9.839329719543457,-0.0011267922997395827,-0.0027304066878267143,-0.05612038169350867,0.590019941329956,2019-08-07 13:53:34:150,125.53981057121547,125.23318759948754,0,-15.44371223449707,34.63589859008789,-51.728939056396484
-0.30243054032325745,0.2289189100265503,9.944698333740234,-0.0029914601928641544,-0.008857173402601856,-0.052657423393808196,0.5999941825866699,2019-08-07 13:53:34:160,126.5991368710046,126.30382582943999,0,-15.44371223449707,34.63589859008789,-51.728939056396484
-0.3431412875652313,0.18581341207027435,9.86567211151123,-0.00672079649926195,-0.0019312633050590406,-0.05105913974916475,0.610001802444458,2019-08-07 13:53:34:170,127.62839894318616,127.3599458953443,0,-15.44371223449707,34.63589859008789,-51.728939056396484
0.06636090576648712,0.2408926635980606,9.753118515014648,0.003135306001762336,-0.00246402556023749,-0.04013751195756059,0.6200072765350342,2019-08-07 13:53:34:180,121.48501203881018,128.3826882820141,0,-15.44371223449707,34.63589859008789,-51.728939056396484
-0.00787633191794157,0.35584065318107605,9.662117958068848,0.005266355282550457,-0.00246402556023749,-0.035875413916133,0.6300115585327148,2019-08-07 13:53:34:190,122.65576181416472,129.36989298917243,0,-15.44371223449707,34.63589859008789,-51.728939056396484
0.08791365474462509,0.2887876629829407,9.721986770629883,0.003668068256940785,-0.0021976444326482656,-0.035342652701251843,0.640007734298706,2019-08-07 13:53:34:200,116.61424204483725,130.34640735142034,0,-15.44371223449707,34.63589859008789,-51.728939056396484
0.04720291122794151,0.16665542125701904,9.784250259399414,-0.0008604111071317767,-0.003529550070594388,-0.026552073930361485,0.6500022411346436,2019-08-07 13:53:34:210,110.68946623869432,131.3204455321173,0,-15.44371223449707,34.63589859008789,-51.728939056396484
-0.022244829684495926,0.26962965726852417,9.74593448638916,0.009794834971715925,0.0017980727412644285,-0.019892544180184917,0.6600043773651123,2019-08-07 13:53:34:220,112.07205156630329,132.25684100471665,0,-15.44371223449707,34.63589859008789,-51.728939056396484
0.020860664546489716,0.2528664171695709,9.712408065795898,0.002602543746583887,0.0004661670057904337,-0.014564921628400425,0.6700015068054199,2019-08-07 13:53:34:230,106.23281009352128,133.18041564821985,0,-15.44371223449707,34.63589859008789,-51.728939056396484
0.07354515790939331,0.2408926635980606,9.765092849731445,0.004733593027372009,0.0007325481658889489,-0.00897091742887806,0.6800146102905273,2019-08-07 13:53:34:240,100.51637225299585,134.0858833698748,0,-15.44371223449707,34.63589859008789,-51.728939056396484
0.049597661942243576,0.26484015583992004,9.719592094421387,0.005799117537728906,-0.00246402556023749,-0.005241581642628916,0.6900002956390381,2019-08-07 13:53:34:250,94.9132737639359,134.96969789929415,0,-15.44371223449707,34.63589859008789,-51.728939056396484
0.049597661942243576,0.2983666658401489,9.829751014709473,0.006331879792907356,-0.0013985010498805918,0.006212807363856391,0.7000091075897217,2019-08-07 13:53:34:260,89.42157609782598,135.83197367321043,0,-15.44371223449707,34.63589859008789,-51.728939056396484
0.07593990862369537,0.24568216502666473,9.827356338500977,0.0028689248741731116,-0.0019312633050590406,0.014737004487008877,0.7100005149841309,2019-08-07 13:53:34:270,84.0430828171377,136.68508296599643,0,-15.44371223449707,34.63589859008789,-51.728939056396484
0.01607116498053074,0.31752464175224304,9.707618713378906,0.004200830512119234,-0.0013985010498805918,0.01926548417617435,0.7200064659118652,2019-08-07 13:53:34:280,78.7649039699267,137.51155296691616,0,-16.793163299560547,34.78583526611328,-51.27912139892578
0.04720291122794151,0.34147214889526367,9.765092849731445,0.00393444938453001,-0.0013985010498805918,0.025925011845756313,0.7300095558166504,2019-08-07 13:53:34:290,73.59593052081361,138.31905723280107,0,-16.793163299560547,34.78583526611328,-51.27912139892578
-0.04858707636594772,0.35584065318107605,9.779460906982422,-0.0016595545549180318,0.0007325481658889489,0.0333836834182546,0.7400190830230713,2019-08-07 13:53:34:300,75.7179070138288,139.1119313078024,0,-16.793163299560547,34.78583526611328,-51.27912139892578
-0.019850080832839012,0.3247089087963104,9.817776679992676,0.004733593027372009,0.0017980727412644285,0.042707025484620714,0.7499959468841553,2019-08-07 13:53:34:310,77.80022472667926,139.88915521715998,0,-16.793163299560547,34.78583526611328,-51.27912139892578
-0.08211357146501541,0.34147214889526367,9.793828964233398,-6.126766340918298e-05,-0.005926980478971734,0.04963293376164325,0.7600064277648926,2019-08-07 13:53:34:320,79.83794433364037,140.65146917608254,0,-16.793163299560547,34.78583526611328,-51.27912139892578
-0.12282431870698929,0.39415663480758667,9.841724395751953,0.001803400363816213,0.0028635972516213265,0.06055456155324741,0.7700095176696777,2019-08-07 13:53:34:330,81.82527680677802,141.39155798249146,0,-16.793163299560547,34.78583526611328,-51.27912139892578
-0.17790356278419495,0.3989461362361908,9.834540367126465,0.0028689248741731116,0.002330834996442878,0.06188646667104488,0.7800061702728271,2019-08-07 13:53:34:340,83.76673597700855,142.11565693905453,0,-16.793163299560547,34.78583526611328,-51.27912139892578
-0.18508781492710114,0.36302489042282104,9.853697776794434,0.0034016871293515603,0.008191220323554469,0.059755417650331086,0.7899987697601318,2019-08-07 13:53:34:350,85.66528342492025,142.8292370202838,0,-16.793163299560547,34.78583526611328,-51.27912139892578
-0.21861431002616882,0.44205164909362793,9.860882759094238,0.0071310231756750294,0.0028635972516213265,0.06321837178884236,0.8000020980834961,2019-08-07 13:53:34:360,87.52496869735525,143.5173112240394,0,-16.793163299560547,34.78583526611328,-51.27912139892578
-0.24974605441093445,0.3726038932800293,9.896803855895996,0.003668068256940785,0.003662740634389001,0.06348475447687753,0.8100008964538574,2019-08-07 13:53:34:370,89.34350187839898,144.20178352362504,0,-16.793163299560547,34.78583526611328,-51.27912139892578
-0.2736935615539551,0.3342879116535187,9.801013946533203,0.001803400363816213,0.006326551910281247,0.0626856105739612,0.8200168609619141,2019-08-07 13:53:34:380,91.12108241162146,144.87766447906768,0,-16.793163299560547,34.78583526611328,-51.27912139892578
-0.7310907244682312,0.21933990716934204,10.114726066589355,-0.00911822664756497,-0.010189078520399329,0.05948903496229591,0.8299977779388428,2019-08-07 13:53:34:390,92.82168819897655,145.56037577074676,0,-16.793163299560547,34.78583526611328,-51.27912139892578
-0.7789857387542725,0.1235499233007431,10.047673225402832,-0.00672079649926195,-0.0021976444326482656,0.05549331960890349,0.8400058746337891,2019-08-07 13:53:34:400,94.47782511719936,146.23885513511553,0,-16.793163299560547,34.78583526611328,-51.27912139892578
-0.37427303194999695,0.42768314480781555,9.836935043334961,0.01991731782010646,0.00765845806837602,0.05735798594158211,0.8499987125396729,2019-08-07 13:53:34:410,96.14039301625905,146.85311256275597,0,-16.793163299560547,34.78583526611328,-51.27912139892578
-0.3072200417518616,0.7198426127433777,9.683670997619629,0.013257789110227194,0.0028635972516213265,0.05282950937330855,0.8600091934204102,2019-08-07 13:53:34:420,97.77963292224715,147.42357220559575,0,-16.793163299560547,34.78583526611328,-51.27912139892578
-0.3503255248069763,0.33668264746665955,9.748329162597656,-0.0032578413204533796,0.0028635972516213265,0.03924406718492024,0.8700058460235596,2019-08-07 13:53:34:430,99.38126986282968,148.03736811983873,0,-16.793163299560547,34.78583526611328,-51.27912139892578
-0.3790625333786011,0.020575689151883125,9.870461463928223,-0.003524222448042604,0.0009989292934781736,0.031785397693016554,0.8800101280212402,2019-08-07 13:53:34:440,100.94909751106196,148.6762117106178,0,-16.793163299560547,34.78583526611328,-51.27912139892578
-0.35511502623558044,0.2145504206418991,9.832145690917969,0.003668068256940785,0.0031299783792105513,0.03285092220337345,0.8900039196014404,2019-08-07 13:53:34:450,102.48698925781827,149.27562771407707,0,-16.793163299560547,34.78583526611328,-51.27912139892578
-0.31440427899360657,0.40134090185165405,9.765092849731445,0.007663785430853478,-0.003529550070594388,0.028855204769386432,0.8999991416931152,2019-08-07 13:53:34:460,104.00234834333922,149.83874388924625,0,-16.793163299560547,34.78583526611328,-51.27912139892578
-0.3527202904224396,0.2887876629829407,9.760302543640137,-0.0024586979376857053,-0.0027304066878267143,0.01420424223183043,0.9100110530853271,2019-08-07 13:53:34:470,105.48244294712204,150.4094557696929,0,-16.793163299560547,34.78583526611328,-51.27912139892578
-0.2808777987957001,0.24568216502666473,9.741145133972168,-0.004056984703221053,0.0009989292934781736,0.007011950746624065,0.9200074672698975,2019-08-07 13:53:34:480,106.9392010236091,150.97464872997782,0,-16.793163299560547,34.78583526611328,-51.27912139892578
-0.30243054032325745,0.22652415931224823,9.779460906982422,-0.00032764881944403687,0.0012653104860859794,0.005946426236267168,0.9300017356872559,2019-08-07 13:53:34:490,108.36428070773437,151.5288012333929,0,-16.793163299560547,34.78583526611328,-51.27912139892578
-0.33595705032348633,0.20497141778469086,9.846513748168945,-0.0037906035756318283,0.0004661670057904337,8.60411123386422e-05,0.9400067329406738,2019-08-07 13:53:34:500,109.75765042996349,152.0765040134935,0,-16.793163299560547,34.78583526611328,-51.27912139892578
-0.18987730145454407,0.3510511517524719,9.750723838806152,0.00047149462834221814,-0.001132119922291367,0.005147282853499493,0.9499986171722412,2019-08-07 13:53:34:510,111.1408208237857,152.59347130547152,0,-16.793163299560547,34.78583526611328,-51.27912139892578
-0.2210090607404709,0.3462616503238678,9.714802742004395,0.0015370192362269886,0.0009989292934781736,-0.0012458645987533845,0.9600107669830322,2019-08-07 13:53:34:520,112.49137806337106,153.09991157129778,0,-16.793163299560547,34.78583526611328,-51.27912139892578
-0.38145729899406433,0.08283918350934982,9.889619827270508,-0.006987177626851173,-0.004595074841025611,-0.011634728704770307,0.9699976444244385,2019-08-07 13:53:34:530,113.79994948128609,153.6322330857918,0,-16.793163299560547,35.08571243286133,-52.478633880615234
-0.30961480736732483,0.14749743044376373,9.8848295211792,-0.0024586979376857053,-0.0021976444326482656,-0.0148313032761383,0.9800083637237549,2019-08-07 13:53:34:540,115.08930489920722,154.14387283912407,0,-16.793163299560547,35.08571243286133,-52.478633880615234
-0.30961480736732483,0.37499865889549255,9.760302543640137,-6.126766340918298e-05,-0.004062312325772837,-0.014564921628400425,0.9900031089782715,2019-08-07 13:53:34:550,116.35346021392186,154.61702441353762,0,-16.793163299560547,35.08571243286133,-52.478633880615234
-0.20185105502605438,0.32231414318084717,9.75790786743164,-0.0029914601928641544,-0.003529550070594388,-0.02681845453780206,1.0000064373016357,2019-08-07 13:53:34:560,117.60467259774727,155.08852712317588,0,-16.793163299560547,35.08571243286133,-52.478633880615234
-0.26890406012535095,0.21933990716934204,9.868066787719727,-0.0008604111071317767,-0.005394218223793286,-0.023621881006731363,1.010002851486206,2019-08-07 13:53:34:570,118.82438851992482,155.56177317749922,0,-16.793163299560547,35.08571243286133,-52.478633880615234
-0.2808777987957001,0.2816033959388733,9.81538200378418,0.00047149462834221814,-0.003263168943005164,-0.02921588416595643,1.0200121402740479,2019-08-07 13:53:34:580,120.01695204568263,156.0174054119866,0,-16.793163299560547,35.08571243286133,-52.478633880615234
-0.22340381145477295,0.2624454200267792,9.765092849731445,-0.002192316810096481,-0.0027304066878267143,-0.03294522099250287,1.0300071239471436,2019-08-07 13:53:34:590,121.19193390347574,156.4674975962986,0,-16.793163299560547,35.08571243286133,-52.478633880615234
-0.22340381145477295,0.28399816155433655,9.820171356201172,0.0012706381086377639,-0.0016648821774698163,-0.02921588416595643,1.0399987697601318,2019-08-07 13:53:34:600,122.34296478326374,156.90430427358515,0,-16.793163299560547,35.08571243286133,-52.478633880615234
-0.24495655298233032,0.30315616726875305,9.882434844970703,0.003668068256940785,-0.0016648821774698163,-0.03427712611030034,1.0500082969665527,2019-08-07 13:53:34:610,123.46864313826255,157.32901522318386,0,-16.793163299560547,35.08571243286133,-52.478633880615234
-0.38145729899406433,0.3055509030818939,9.944698333740234,-0.0005940299795425521,-0.00859079175486398,-0.030814171971789078,1.0600073337554932,2019-08-07 13:53:34:620,124.56016020272143,157.74757124461618,0,-16.793163299560547,35.08571243286133,-52.478633880615234
-0.8077227473258972,0.1427079290151596,9.999777793884277,-0.013646706336730438,-0.015783082719921696,-0.03987112926952541,1.0699982643127441,2019-08-07 13:53:34:630,125.58545139225406,158.18392309982164,0,-16.793163299560547,35.08571243286133,-52.478633880615234
-0.3622992932796478,0.12594467401504517,10.13627815246582,-0.011249275668278767,-0.00965631626522088,-0.0316133158747054,1.0800056457519531,2019-08-07 13:53:34:640,126.63822753467026,158.6123283243921,0,-16.793163299560547,35.08571243286133,-52.478633880615234
-0.49161577224731445,0.3342879116535187,9.975830078125,-0.0029914601928641544,-0.013652033699207897,-0.03241245769702712,1.0900025367736816,2019-08-07 13:53:34:650,127.6567003389351,159.003375915831,0,-16.793163299560547,35.08571243286133,-52.478633880615234
-0.3790625333786011,0.40134090185165405,9.93511962890625,0.001803400363816213,-0.0021976444326482656,-0.034543506717740924,1.1000101566314697,2019-08-07 13:53:34:660,128.66110141301863,159.3760295593793,0,-16.793163299560547,35.08571243286133,-52.478633880615234
-0.23298279941082,0.33668264746665955,9.86567211151123,-0.0032578413204533796,-0.00965631626522088,-0.03667455781904932,1.1100058555603027,2019-08-07 13:53:34:670,129.6662427182048,159.75124632964858,0,-16.793163299560547,35.08571243286133,-52.478633880615234
-0.2976410388946533,0.2552611529827118,9.918355941772461,0.0028689248741731116,-0.0075252672445070825,-0.031080552579229648,1.1199994087219238,2019-08-07 13:53:34:680,130.64276297664918,160.12512649835912,0,-16.793163299560547,35.08571243286133,-52.478633880615234
-0.20185105502605438,0.3247089087963104,9.841724395751953,-0.004589746958399502,-0.004328693453362062,-0.0326788403850623,1.1300067901611328,2019-08-07 13:53:34:690,131.60884094834117,160.48740941933906,0,-16.793163299560547,35.08571243286133,-52.478633880615234
-0.21143005788326263,0.30315616726875305,9.84411907196045,-0.0016595545549180318,-0.0027304066878267143,-0.02442102490964769,1.1400024890899658,2019-08-07 13:53:34:700,132.5535886227917,160.84331458760303,0,-16.793163299560547,35.08571243286133,-52.478633880615234
-0.10845582187175751,0.2983666658401489,9.853697776794434,-0.0008604111071317767,-0.005127837096204061,-0.02815035965559953,1.1500158309936523,2019-08-07 13:53:34:710,133.4927878271199,161.1922447186471,0,-16.793163299560547,35.08571243286133,-52.478633880615234
-0.17071931064128876,0.29597190022468567,9.796224594116211,-0.005921652596345625,-0.0019312633050590406,-0.02415464222161251,1.1603116989135742,2019-08-07 13:53:34:721,134.40408064750997,161.5372123487336,0,-16.793163299560547,35.08571243286133,-52.478633880615234
-0.10366632044315338,0.22652415931224823,9.84411907196045,-0.0024586979376857053,-0.003263168943005164,-0.021224451378576994,1.1700050830841064,2019-08-07 13:53:34:730,135.30570817247062,161.8814421841927,0,-16.793163299560547,35.08571243286133,-52.478633880615234
-0.09408731758594513,0.27202439308166504,9.801013946533203,-0.004056984703221053,-0.0037959311981836125,-0.019626163572744344,1.180027723312378,2019-08-07 13:53:34:740,136.19073007552717,162.21430008636327,0,-16.793163299560547,35.08571243286133,-52.478633880615234
-0.0892978236079216,0.26484015583992004,9.846513748168945,-0.0011267922997395827,-0.0008657387296835611,-0.015097683883578876,1.1900005340576172,2019-08-07 13:53:34:750,137.05700826423225,162.5398309717997,0,-16.793163299560547,35.08571243286133,-52.478633880615234
-0.134798064827919,0.2816033959388733,9.853697776794434,-0.0037906035756318283,-0.0008657387296835611,-0.007905393438669812,1.2000114917755127,2019-08-07 13:53:34:760,137.900679655787,162.8584255246864,0,-16.793163299560547,35.08571243286133,-52.478633880615234
-0.13000856339931488,0.3007614016532898,9.796224594116211,-0.0029914601928641544,-0.002996787815415939,-0.008171774566259036,1.2100045680999756,2019-08-07 13:53:34:770,138.72914070150625,163.1677649667875,0,-16.793163299560547,35.08571243286133,-52.478633880615234
-0.12282431870698929,0.3127351403236389,9.820171356201172,0.002602543746583887,-0.0027304066878267143,0.005147282853499493,1.2200021743774414,2019-08-07 13:53:34:780,139.54175902023277,163.46646796484026,0,-16.343345642089844,34.336021423339844,-52.02881622314453
-0.19227205216884613,0.29118239879608154,9.81538200378418,-0.0029914601928641544,-0.0016648821774698163,0.004081758343142595,1.230001449584961,2019-08-07 13:53:34:790,140.32941430229627,163.76483350448186,0,-16.343345642089844,34.336021423339844,-52.02881622314453
-0.17311406135559082,0.2600506544113159,9.810592651367188,0.001803400363816213,-0.0019312633050590406,0.011806811563378757,1.2400152683258057,2019-08-07 13:53:34:800,141.10369361534163,164.05815500586522,0,-16.343345642089844,34.336021423339844,-52.02881622314453
-0.22819329798221588,0.3342879116535187,9.853697776794434,0.0007378757884407334,0.00019978586194656375,0.00967576254266496,1.2499964237213135,2019-08-07 13:53:34:810,141.8549752454275,164.3377179463755,0,-16.343345642089844,34.336021423339844,-52.02881622314453
-0.21621955931186676,0.3127351403236389,9.810592651367188,0.0020697814914054373,-0.0021976444326482656,0.004614520598321043,1.2600090503692627,2019-08-07 13:53:34:820,142.59386007076074,164.61328361851866,0,-16.343345642089844,34.336021423339844,-52.02881622314453
0.18370364606380463,0.49234136939048767,9.563933372497559,0.014856075875762542,0.013785224002928184,0.011540429915640882,1.26999831199646,2019-08-07 13:53:34:830,136.15625879081114,164.85374671867717,0,-16.343345642089844,34.336021423339844,-52.02881622314453
0.11665065586566925,0.5737628936767578,9.482511520385742,0.021249222937903933,0.006592933558019122,0.009409380894927086,1.28000807762146,2019-08-07 13:53:34:840,129.84352403237483,165.07547668779588,0,-16.343345642089844,34.336021423339844,-52.02881622314453
0.08791365474462509,0.29597190022468567,9.63817024230957,0.0034016871293515603,0.003662740634389001,0.0048809017259102685,1.290006399154663,2019-08-07 13:53:34:850,123.65504934343303,165.33687935793222,0,-16.343345642089844,34.336021423339844,-52.02881622314453
-0.7909594774246216,-0.04887205362319946,10.057251930236816,-0.03042871893529754,-0.003529550070594388,0.018199959665817448,1.3001554012298584,2019-08-07 13:53:34:860,124.69402352414761,158.45305043585924,0,-16.343345642089844,34.336021423339844,-52.02881622314453
-0.9442234635353088,-0.12310929596424103,10.471543312072754,-0.02483471369547787,-0.01897965625099239,0.015269766742187328,1.3099982738494873,2019-08-07 13:53:34:870,125.70758364679361,151.71118637766517,0,-16.343345642089844,34.336021423339844,-52.02881622314453
-0.5945900082588196,0.2145504206418991,9.983015060424805,-0.0019259356825072562,-0.00246402556023749,0.01953186478361492,1.3200020790100098,2019-08-07 13:53:34:880,126.72664566090914,152.25342076567765,0,-16.343345642089844,34.336021423339844,-52.02881622314453
-0.7813804745674133,0.3965514004230499,10.141068458557129,-0.00032764881944403687,-0.004328693453362062,0.012073192170819333,1.3300011157989502,2019-08-07 13:53:34:890,127.70642312331215,152.76374980019523,0,-16.343345642089844,34.336021423339844,-52.02881622314453
-0.3838520348072052,0.2408926635980606,9.930330276489258,-0.006987177626851173,-0.013119271444029449,0.015802528997365776,1.34000825881958,2019-08-07 13:53:34:900,128.71539361358526,153.28460841479122,0,-16.343345642089844,34.336021423339844,-52.02881622314453
-0.6448797583580017,0.11636567860841751,10.002172470092773,-0.0037906035756318283,-0.006193361606560959,0.011540429915640882,1.3499979972839355,2019-08-07 13:53:34:910,129.67078012882914,153.80771145432175,0,-16.343345642089844,34.336021423339844,-52.02881622314453
-0.41258904337882996,0.3151299059391022,9.801013946533203,-0.0008604111071317767,0.001531691613675204,0.012339573818557208,1.3600034713745117,2019-08-07 13:53:34:920,130.6282933648365,154.29520891911523,0,-16.343345642089844,34.336021423339844,-52.02881622314453
-0.8963284492492676,0.19299766421318054,9.997383117675781,-0.005921652596345625,-0.0021976444326482656,0.008610237512159412,1.369999885559082,2019-08-07 13:53:34:930,131.51449642898737,154.7905096035674,0,-16.343345642089844,34.336021423339844,-52.02881622314453
-0.6831957697868347,0.06368118524551392,10.16501522064209,-0.01551137370970636,-0.007791648372096307,0.010474905405283983,1.380014181137085,2019-08-07 13:53:34:940,132.4116858492148,155.29624270742568,0,-16.343345642089844,34.336021423339844,-52.02881622314453
-0.6448797583580017,0.3797881305217743,10.035698890686035,0.00047149462834221814,-0.00859079175486398,0.016868053507722677,1.3899977207183838,2019-08-07 13:53:34:950,133.29473410150322,155.74670852648433,0,-16.343345642089844,34.336021423339844,-52.02881622314453
-0.5538792610168457,0.4707886278629303,9.846513748168945,0.005266355282550457,-0.0016648821774698163,0.01313871668117623,1.4000029563903809,2019-08-07 13:53:34:960,134.16538334784997,156.17406810580928,0,-16.343345642089844,34.336021423339844,-52.02881622314453
-0.3766677975654602,0.3199194073677063,9.877645492553711,-0.005388890341167176,0.002330834996442878,0.010474905405283983,1.4099969863891602,2019-08-07 13:53:34:970,135.0370912539734,156.61650958896277,0,-16.343345642089844,34.336021423339844,-52.02881622314453
-0.3646940290927887,0.25047165155410767,9.908777236938477,-0.0011267922997395827,-0.0005993576020943366,0.007811094129391739,1.4200057983398438,2019-08-07 13:53:34:980,135.8945296976288,157.0558526396537,0,-16.343345642089844,34.336021423339844,-52.02881622314453
-0.3718782961368561,0.22652415931224823,9.870461463928223,0.0010042569160299579,-0.0037959311981836125,0.009942143150105534,1.4300148487091064,2019-08-07 13:53:34:990,136.73561947799277,157.48787738071118,0,-16.343345642089844,34.336021423339844,-52.02881622314453
-0.3527202904224396,0.2744191586971283,9.870461463928223,-0.0013931734273288073,-0.0013985010498805918,0.008077475256980963,1.4403774738311768,2019-08-07 13:53:35:001,137.56078901926006,157.90707985601114,0,-16.343345642089844,34.336021423339844,-52.02881622314453
-0.2665092945098877,0.3151299059391022,9.8848295211792,0.005266355282550457,-0.006459742734150184,0.007011950746624065,1.4499940872192383,2019-08-07 13:53:35:010,138.3821732580126,158.3095749781282,0,-16.343345642089844,34.336021423339844,-52.02881622314453
-0.28327253460884094,0.2672349214553833,9.829751014709473,-0.0024586979376857053,-0.002996787815415939,0.005946426236267168,1.4600145816802979,2019-08-07 13:53:35:020,139.18320221858673,158.71362128802653,0,-16.343345642089844,34.336021423339844,-52.02881622314453
-0.27608829736709595,0.3127351403236389,9.851303100585938,0.0034016871293515603,0.003662740634389001,0.0011515656795867992,1.4699995517730713,2019-08-07 13:53:35:030,139.96537811805314,159.10107617032148,0,-16.94310188293457,34.336021423339844,-51.42905807495117
-0.26890406012535095,0.2816033959388733,9.829751014709473,0.0028689248741731116,0.00019978586194656375,0.0032826149603749208,1.480018138885498,2019-08-07 13:53:35:040,140.7346181549009,159.48462146160443,0,-16.94310188293457,34.336021423339844,-51.42905807495117
-0.2784830331802368,0.3247089087963104,9.851303100585938,-0.0005940299795425521,-0.0016648821774698163,-0.00257777036673667,1.490009069442749,2019-08-07 13:53:35:050,141.4884749116029,159.85750541005362,0,-16.94310188293457,34.336021423339844,-51.42905807495117
-0.2545355558395386,0.29597190022468567,9.817776679992676,0.003135306001762336,-0.00246402556023749,-0.007372630663342713,1.5000081062316895,2019-08-07 13:53:35:060,142.2303864874788,160.22406008192934,0,-16.94310188293457,34.336021423339844,-51.42905807495117
-0.18269306421279907,0.2935771644115448,9.798619270324707,-0.0005940299795425521,-0.0037959311981836125,-0.007639012311080588,1.5100018978118896,2019-08-07 13:53:35:070,142.9665459800505,160.5855896251964,0,-16.94310188293457,34.336021423339844,-51.42905807495117
-0.3072200417518616,0.2552611529827118,9.911171913146973,-0.0016595545549180318,0.003662740634389001,-0.0017786268539318336,1.520015001296997,2019-08-07 13:53:35:080,143.66964676755433,160.94530448300316,0,-16.94310188293457,34.336021423339844,-51.42905807495117
-1.2004616260528564,-0.00816130731254816,10.265595436096191,-0.01657689822006326,-0.015516702112481122,-0.011101966449591856,1.5299992561340332,2019-08-07 13:53:35:090,144.27155490016264,154.1366026641313,0,-16.94310188293457,34.336021423339844,-51.42905807495117
-1.0687505006790161,-0.1255040466785431,10.677492141723633,-0.03628910270196318,-0.023241754292419984,0.0048809017259102685,1.5400068759918213,2019-08-07 13:53:35:100,144.88486570309408,147.4877309769687,0,-16.94310188293457,34.336021423339844,-51.42905807495117
-0.9969079494476318,0.3007614016532898,10.263200759887695,-0.0061880337239348495,-0.01897965625099239,0.0038153772155533703,1.5500032901763916,2019-08-07 13:53:35:110,145.48686210346094,148.10787842492084,0,-16.94310188293457,34.336021423339844,-51.42905807495117
-0.9466181993484497,0.44684112071990967,10.251226425170898,-0.007519939882029623,-0.0115209846784941,0.003548996087964146,1.560007095336914,2019-08-07 13:53:35:120,146.0780795006772,148.70002713706523,0,-16.94310188293457,34.336021423339844,-51.42905807495117
-0.7095379829406738,0.2935771644115448,10.093173027038574,-0.01604413596488481,-0.007791648372096307,0.0014179468071760237,1.5700149536132812,2019-08-07 13:53:35:130,146.6804721634078,149.3017209183434,0,-16.94310188293457,34.336021423339844,-51.42905807495117
-0.6376954913139343,0.17862917482852936,10.062041282653809,-0.018175186025895906,-0.00246402556023749,0.001950709062354473,1.5800065994262695,2019-08-07 13:53:35:140,147.27571815829907,149.90554226927782,0,-16.94310188293457,34.336021423339844,-51.42905807495117
-0.5826162695884705,0.2217346578836441,10.050067901611328,-0.010450131765362443,-0.010189078520399329,-0.0017786268539318336,1.5900006294250488,2019-08-07 13:53:35:150,147.86956549658746,150.48801741991855,0,-16.94310188293457,34.336021423339844,-51.42905807495117
-0.3838520348072052,0.2624454200267792,9.8944091796875,-0.008319083264797297,-0.007258886116917857,0.004348139470731819,1.6000053882598877,2019-08-07 13:53:35:160,148.47181864976017,151.05254260070046,0,-16.94310188293457,34.336021423339844,-51.42905807495117
-0.35511502623558044,0.23370841145515442,9.956672668457031,-0.00272507906527493,-0.004595074841025611,0.004614520598321043,1.6100034713745117,2019-08-07 13:53:35:170,149.06410896269082,151.60612897062197,0,-16.94310188293457,34.336021423339844,-51.42905807495117
-0.25693029165267944,0.2624454200267792,9.892014503479004,-0.0008604111071317767,-0.004595074841025611,0.0008851845519975746,1.6200196743011475,2019-08-07 13:53:35:180,149.65565433787992,152.1440950930992,0,-16.94310188293457,34.336021423339844,-51.42905807495117
-0.2856673002243042,0.2816033959388733,9.927935600280762,-0.0011267922997395827,-0.002996787815415939,0.008077475256980963,1.6300075054168701,2019-08-07 13:53:35:190,150.23125831421305,152.66935021901767,0,-16.94310188293457,34.336021423339844,-51.42905807495117
-0.22819329798221588,0.22652415931224823,9.8848295211792,-0.0013931734273288073,-0.0008657387296835611,0.011007667660462434,1.6400058269500732,2019-08-07 13:53:35:200,150.80067018100746,153.190489747284,0,-16.94310188293457,34.336021423339844,-51.42905807495117
-0.21621955931186676,0.3127351403236389,9.827356338500977,-0.004056984703221053,-0.006459742734150184,0.012339573818557208,1.6499989032745361,2019-08-07 13:53:35:210,151.36307326068118,153.69250229269372,0,-16.94310188293457,34.336021423339844,-51.42905807495117
-0.13000856339931488,0.2792086601257324,9.834540367126465,-0.0008604111071317767,-0.007791648372096307,0.013937860584092555,1.6600115299224854,2019-08-07 13:53:35:220,151.92504467092692,154.1866114635814,0,-16.94310188293457,34.336021423339844,-51.42905807495117
-0.1539560705423355,0.3127351403236389,9.841724395751953,-0.002192316810096481,0.003929121761978225,0.011007667660462434,1.669999599456787,2019-08-07 13:53:35:230,152.4664158874392,154.66770785870855,0,-16.94310188293457,34.336021423339844,-51.42905807495117
-0.13958756625652313,0.3007614016532898,9.880040168762207,0.00393444938453001,0.00019978586194656375,0.013405098328914105,1.6799991130828857,2019-08-07 13:53:35:240,153.0007867036916,155.137272214227,0,-16.94310188293457,34.336021423339844,-51.42905807495117
-0.19706155359745026,0.3606301546096802,9.779460906982422,0.0020697814914054373,-0.004595074841025611,0.011007667660462434,1.689995527267456,2019-08-07 13:53:35:250,153.5202624634398,155.59112704012674,0,-16.94310188293457,34.336021423339844,-51.42905807495117
-0.1419823169708252,0.30315616726875305,9.796224594116211,0.00047149462834221814,-0.0013985010498805918,0.015536147349627901,1.7000019550323486,2019-08-07 13:53:35:260,154.0340357244673,156.04358913795232,0,-16.94310188293457,34.336021423339844,-51.42905807495117
-0.21621955931186676,0.2863928973674774,9.779460906982422,0.0010042569160299579,-0.00033297644199582136,0.013405098328914105,1.710010051727295,2019-08-07 13:53:35:270,154.5282105669258,156.48860429790733,0,-16.94310188293457,34.336021423339844,-51.42905807495117
-0.1874825656414032,0.3127351403236389,9.81538200378418,0.0034016871293515603,-0.0037959311981836125,0.013405098328914105,1.720001220703125,2019-08-07 13:53:35:280,155.017890533287,156.92042533987592,0,-17.242979049682617,33.736263275146484,-51.129180908203125
-0.21861431002616882,0.31752464175224304,9.798619270324707,0.00393444938453001,-0.005127837096204061,0.013937860584092555,1.7299988269805908,2019-08-07 13:53:35:290,155.4948493389166,157.3426877238687,0,-17.242979049682617,33.736263275146484,-51.129180908203125
-0.18508781492710114,0.32231414318084717,9.81538200378418,0.00020511348449834825,0.0004661670057904337,0.01420424223183043,1.7400026321411133,2019-08-07 13:53:35:300,155.96308462924276,157.75810308861745,0,-17.242979049682617,33.736263275146484,-51.129180908203125
-0.1946668028831482,0.18820816278457642,9.829751014709473,-0.00032764881944403687,-0.004328693453362062,0.008077475256980963,1.749995231628418,2019-08-07 13:53:35:310,156.42356113201328,158.18118694226897,0,-17.242979049682617,33.736263275146484,-51.129180908203125
-1.423173427581787,-0.020135056227445602,10.339832305908203,-0.02510109430291844,-0.015250320464743247,0.011540429915640882,1.7600126266479492,2019-08-07 13:53:35:320,156.74692897904598,151.43391342260105,0,-17.242979049682617,33.736263275146484,-51.129180908203125
-1.2818831205368042,-0.029714053496718407,10.5242280960083,-0.03895291293755812,-0.021643468567181936,0.01953186478361492,1.7699933052062988,2019-08-07 13:53:35:330,157.08522784769286,144.83030026569227,0,-17.242979049682617,33.736263275146484,-51.129180908203125
-1.2866727113723755,0.1307341754436493,10.394911766052246,-0.015777755357444235,-0.02004518076134929,0.011806811563378757,1.7799899578094482,2019-08-07 13:53:35:340,157.41365228087383,145.52813935234227,0,-17.242979049682617,33.736263275146484,-51.129180908203125
-1.0735399723052979,0.4755781292915344,10.155436515808105,-0.004856128085988727,-0.007791648372096307,0.017667196370341698,1.789991855621338,2019-08-07 13:53:35:350,157.74906755848053,146.166679850546,0,-17.242979049682617,33.736263275146484,-51.129180908203125
-0.8556177020072937,0.35584065318107605,10.138673782348633,-0.012581181826373541,-0.010988222423315652,0.008610237512159412,1.7999989986419678,2019-08-07 13:53:35:360,158.10378357227472,146.81021350940426,0,-17.242979049682617,33.736263275146484,-51.129180908203125
-0.7334854602813721,0.1307341754436493,10.100357055664062,-0.014978611454527911,-0.0048614559686148365,0.005147282853499493,1.8100016117095947,2019-08-07 13:53:35:370,158.46136802748822,147.46759055352175,0,-17.242979049682617,33.736263275146484,-51.129180908203125
-0.6065637469291687,0.20497141778469086,10.064435958862305,-0.008851844999827095,-0.009922697912958753,-0.00018034003963255039,1.8200080394744873,2019-08-07 13:53:35:380,158.82873718712577,148.09987784579354,0,-17.242979049682617,33.736263275146484,-51.129180908203125
-0.5299317836761475,0.23849791288375854,10.01414680480957,-0.010450131765362443,-0.006459742734150184,0.0014179468071760237,1.8299968242645264,2019-08-07 13:53:35:390,159.19520209845663,148.71645536174574,0,-17.242979049682617,33.736263275146484,-51.129180908203125
-0.39343103766441345,0.21933990716934204,9.980619430541992,-0.004856128085988727,-0.01205374693367255,0.0016843279347652483,1.839998722076416,2019-08-07 13:53:35:400,159.57291945815328,149.31967422578376,0,-17.242979049682617,33.736263275146484,-51.129180908203125
-0.38624677062034607,0.23131366074085236,9.908777236938477,-0.0037906035756318283,-0.0016648821774698163,-0.0031105326219151193,1.8499934673309326,2019-08-07 13:53:35:410,159.93774991573352,149.90866227976295,0,-17.242979049682617,33.736263275146484,-51.129180908203125
-0.31440427899360657,0.2552611529827118,9.8848295211792,-0.003524222448042604,-0.004595074841025611,-0.005241581642628916,1.86000394821167,2019-08-07 13:53:35:420,160.30514218538454,150.48288494827472,0,-17.242979049682617,33.736263275146484,-51.129180908203125
-0.27608829736709595,0.2289189100265503,9.94709300994873,-0.0013931734273288073,-0.002996787815415939,-0.007372630663342713,1.8700273036956787,2019-08-07 13:53:35:430,160.66892846503822,151.04764429604742,0,-17.242979049682617,33.736263275146484,-51.129180908203125
-0.28806203603744507,0.2863928973674774,9.889619827270508,-0.0013931734273288073,-0.0048614559686148365,-0.00604072502539659,1.8800017833709717,2019-08-07 13:53:35:440,161.02490416141393,151.59429645079229,0,-17.242979049682617,33.736263275146484,-51.129180908203125
-0.22819329798221588,0.26962965726852417,9.841724395751953,0.00020511348449834825,-0.0008657387296835611,-0.00897091742887806,1.8899993896484375,2019-08-07 13:53:35:450,161.37832727567258,152.13090905340363,0,-17.242979049682617,33.736263275146484,-51.129180908203125
-0.2210090607404709,0.2624454200267792,9.870461463928223,0.0007378757884407334,-0.003529550070594388,-0.00604072502539659,1.899996280670166,2019-08-07 13:53:35:460,161.7270880935486,152.65741514489966,0,-17.242979049682617,33.736263275146484,-51.129180908203125
-0.22579854726791382,0.3007614016532898,9.877645492553711,0.002602543746583887,-0.0048614559686148365,-0.014032159373221978,1.9100112915039062,2019-08-07 13:53:35:470,162.06908957488307,153.16792246784485,0,-17.242979049682617,33.736263275146484,-51.129180908203125
-0.22819329798221588,0.27202439308166504,9.858488082885742,0.0012706381086377639,-0.0048614559686148365,-0.014564921628400425,1.9199979305267334,2019-08-07 13:53:35:480,162.40391419536556,153.67224038319998,0,-17.242979049682617,33.736263275146484,-51.129180908203125
-0.19706155359745026,0.23849791288375854,9.86567211151123,0.002336162618994662,0.00019978586194656375,-0.016429590041673648,1.930004358291626,2019-08-07 13:53:35:490,162.73283764873395,154.1697864124897,0,-17.242979049682617,33.736263275146484,-51.129180908203125
-0.1874825656414032,0.3199194073677063,9.836935043334961,0.004467211899782784,-0.005127837096204061,-0.020425307475660667,1.939997673034668,2019-08-07 13:53:35:500,163.0592208340751,154.64662938834604,0,-17.242979049682617,33.736263275146484,-51.129180908203125
-0.17071931064128876,0.2887876629829407,9.817776679992676,-0.0005940299795425521,-0.0048614559686148365,-0.02575293002744516,1.9500014781951904,2019-08-07 13:53:35:510,163.38084307316458,155.120333344994,0,-17.242979049682617,33.736263275146484,-51.129180908203125
-0.19945630431175232,0.2863928973674774,9.841724395751953,0.0020697814914054373,-0.00965631626522088,-0.03560903122809782,1.9600090980529785,2019-08-07 13:53:35:520,163.6954319488624,155.5834270264053,0,-17.242979049682617,33.736263275146484,-51.129180908203125
-0.18508781492710114,0.29118239879608154,9.78664493560791,0.0015370192362269886,-0.0048614559686148365,-0.0316133158747054,1.9700040817260742,2019-08-07 13:53:35:530,164.00258234291732,156.036811472109,0,-16.493284225463867,34.485958099365234,-50.07960891723633
-0.03661332651972771,0.20018191635608673,9.714802742004395,0.0012706381086377639,-0.004062312325772837,-0.03294522099250287,1.9799938201904297,2019-08-07 13:53:35:540,164.32049061104473,156.49175327209315,0,-16.493284225463867,34.485958099365234,-50.07960891723633
-0.2593250572681427,0.11876042932271957,9.92314624786377,-0.005921652596345625,-0.030966808552953445,-0.04812894682553463,1.9899988174438477,2019-08-07 13:53:35:550,164.62153750982807,156.9515311802257,0,-16.493284225463867,34.485958099365234,-50.07960891723633
0.3034411370754242,0.52107834815979,9.3460111618042,0.015921601426416743,0.0071256958131975705,-0.03640817513101414,1.999997854232788,2019-08-07 13:53:35:560,157.7622979672951,157.33973805650237,0,-16.493284225463867,34.485958099365234,-50.07960891723633
0.21723014116287231,0.5498153567314148,9.599854469299316,0.016720744289035767,-0.004328693453362062,-0.045198753901904504,2.0100152492523193,2019-08-07 13:53:35:570,151.03541269804356,157.71797953982824,0,-16.493284225463867,34.485958099365234,-50.07960891723633
0.0352291613817215,0.2887876629829407,9.63817024230957,-0.0032578413204533796,0.006326551910281247,-0.03401074550285977,2.0199880599975586,2019-08-07 13:53:35:580,144.41535025127178,158.13111954843686,0,-16.493284225463867,34.485958099365234,-50.07960891723633
0.16933514177799225,0.09241817891597748,9.798619270324707,-0.0008604111071317767,-0.006726123861739408,-0.04013751195756059,2.0299808979034424,2019-08-07 13:53:35:590,137.95061845535685,158.55817225618347,0,-16.493284225463867,34.485958099365234,-50.07960891723633
0.2387828826904297,0.29597190022468567,9.549565315246582,-6.126766340918298e-05,0.001531691613675204,-0.031879696482145975,2.040019989013672,2019-08-07 13:53:35:600,131.61938985172327,158.95153908400238,0,-16.493284225463867,34.485958099365234,-50.07960891723633
0.3106253743171692,0.4564201235771179,9.681276321411133,0.004200830512119234,-0.001132119922291367,-0.02308911771125561,2.0499913692474365,2019-08-07 13:53:35:610,125.42439020418516,159.3161725051736,0,-16.493284225463867,34.485958099365234,-50.07960891723633
0.25554612278938293,0.4324726462364197,9.595065116882324,0.002336162618994662,0.0017980727412644285,-0.02415464222161251,2.0599782466888428,2019-08-07 13:53:35:620,119.34540615657244,159.676924787367,0,-16.493284225463867,34.485958099365234,-50.07960891723633
-0.03661332651972771,0.30315616726875305,9.908777236938477,-0.007519939882029623,-0.006992504989328633,-0.02069168808310124,2.0700244903564453,2019-08-07 13:53:35:630,120.55820828757207,160.05258023108888,0,-16.493284225463867,34.485958099365234,-50.07960891723633
0.04001866281032562,0.2863928973674774,9.8034086227417,-0.0019259356825072562,-0.006992504989328633,-0.018560639062387443,2.0799975395202637,2019-08-07 13:53:35:640,114.55563755793942,160.41914031637978,0,-16.493284225463867,34.485958099365234,-50.07960891723633
-0.1946668028831482,0.2887876629829407,9.812987327575684,-0.0011267922997395827,-0.0037959311981836125,-0.015097683883578876,2.0900044441223145,2019-08-07 13:53:35:650,115.84392837474374,160.7776770728904,0,-16.493284225463867,34.485958099365234,-50.07960891723633
-0.13240331411361694,0.39415663480758667,9.769882202148438,-0.00672079649926195,-0.00805802949968553,-0.010302823586972834,2.100019931793213,2019-08-07 13:53:35:660,117.1160526705157,161.11969727404434,0,-16.493284225463867,34.485958099365234,-50.07960891723633
-0.26171979308128357,0.3534458875656128,9.829751014709473,-0.0024586979376857053,-0.003529550070594388,-0.0158968277864952,2.110008955001831,2019-08-07 13:53:35:670,118.34520817170029,161.45749671309025,0,-16.493284225463867,34.485958099365234,-50.07960891723633
-0.2401670515537262,0.3342879116535187,9.793828964233398,-0.0016595545549180318,-0.003529550070594388,-0.020425307475660667,2.1199967861175537,2019-08-07 13:53:35:680,119.55218859768365,161.7901796920396,0,-16.493284225463867,34.485958099365234,-50.07960891723633
-0.3383517861366272,0.27202439308166504,9.839329719543457,-0.005122509213577951,0.001531691613675204,-0.01536406553131675,2.130004405975342,2019-08-07 13:53:35:690,120.72089426296543,162.1255819254945,0,-16.493284225463867,34.485958099365234,-50.07960891723633
-0.3167990446090698,0.27681389451026917,9.858488082885742,-0.0024586979376857053,-0.0013985010498805918,-0.015630446138757324,2.139996290206909,2019-08-07 13:53:35:700,121.87045006995707,162.45228231155752,0,-16.493284225463867,34.485958099365234,-50.07960891723633
-0.3311675488948822,0.3199194073677063,9.920751571655273,-0.0005940299795425521,-0.0013985010498805918,-0.012433872607686629,2.150012969970703,2019-08-07 13:53:35:710,122.99558968556653,162.76663066018304,0,-16.493284225463867,34.485958099365234,-50.07960891723633
-0.2401670515537262,0.32231414318084717,9.846513748168945,0.00020511348449834825,-0.001132119922291367,-0.010302823586972834,2.1600046157836914,2019-08-07 13:53:35:720,124.1083684726796,163.0736861507693,0,-16.493284225463867,34.485958099365234,-50.07960891723633
-0.3000358045101166,0.2863928973674774,9.851303100585938,0.004200830512119234,-6.659528596096748e-05,-0.011634728704770307,2.1700010299682617,2019-08-07 13:53:35:730,125.19134873750164,163.37655032217353,0,-16.493284225463867,34.485958099365234,-50.07960891723633
-0.26171979308128357,0.30315616726875305,9.793828964233398,0.00020511348449834825,0.0028635972516213265,0.0014179468071760237,2.1800153255462646,2019-08-07 13:53:35:740,126.25529662372564,163.67344486667486,0,-16.493284225463867,34.485958099365234,-50.07960891723633
-0.2138248085975647,0.28399816155433655,9.846513748168945,0.0007378757884407334,0.003929121761978225,0.005147282853499493,2.190020799636841,2019-08-07 13:53:35:750,127.303102737132,163.96651950593278,0,-16.493284225463867,34.485958099365234,-50.07960891723633
-0.19227205216884613,0.31034040451049805,9.798619270324707,0.004200830512119234,0.0017980727412644285,0.013937860584092555,2.199997901916504,2019-08-07 13:53:35:760,128.33355069377058,164.2485546170105,0,-16.493284225463867,34.485958099365234,-50.07960891723633
-0.2641145586967468,0.2983666658401489,9.829751014709473,-0.0005940299795425521,0.00019978586194656375,0.01606890960480635,2.2100071907043457,2019-08-07 13:53:35:770,129.33598531542577,164.52914558825964,0,-16.493284225463867,34.485958099365234,-50.07960891723633
-0.19706155359745026,0.3199194073677063,9.772276878356934,0.004467211899782784,-6.659528596096748e-05,0.01793357697778227,2.220000982284546,2019-08-07 13:53:35:780,130.32619830161437,164.79855494145073,0,-16.493284225463867,34.485958099365234,-51.27912139892578
-0.20424580574035645,0.2887876629829407,9.810592651367188,0.004200830512119234,0.008457601451143694,0.022195675019209864,2.230006456375122,2019-08-07 13:53:35:790,131.29106954118217,165.0665020000204,0,-16.493284225463867,34.485958099365234,-51.27912139892578
-0.17790356278419495,0.2792086601257324,9.880040168762207,0.0028689248741731116,0.005793789655102798,0.027256916963553784,2.2400128841400146,2019-08-07 13:53:35:800,132.241361314896,165.3311852170215,0,-16.493284225463867,34.485958099365234,-51.27912139892578
-0.2665092945098877,0.23610316216945648,9.810592651367188,-0.0013931734273288073,-0.006726123861739408,0.02938796598426758,2.250007152557373,2019-08-07 13:53:35:810,133.1691869594782,165.59777087888781,0,-16.493284225463867,34.485958099365234,-51.27912139892578
-0.20903530716896057,0.25047165155410767,9.822566032409668,0.002602543746583887,0.004728265144745899,0.033650066106289775,2.2599966526031494,2019-08-07 13:53:35:820,134.07876839497558,165.85514159547822,0,-16.493284225463867,34.485958099365234,-51.27912139892578
-0.2138248085975647,0.34386688470840454,9.812987327575684,0.015122457523500417,0.011387794374773814,0.03498196914349264,2.2700071334838867,2019-08-07 13:53:35:830,134.96582656597482,166.08939985322218,0,-16.493284225463867,34.485958099365234,-51.27912139892578
-0.14677181839942932,0.33668264746665955,9.721986770629883,0.009528453323978052,0.0028635972516213265,0.03524835183152782,2.280001401901245,2019-08-07 13:53:35:840,135.84760459647322,166.32259629774853,0,-16.493284225463867,34.485958099365234,-51.27912139892578
-0.15874555706977844,0.14031317830085754,9.73396110534668,-6.126766340918298e-05,0.006326551910281247,0.029654348672302752,2.29001784324646,2019-08-07 13:53:35:850,136.70840789384664,166.57966182103652,0,-16.493284225463867,34.485958099365234,-51.27912139892578
-0.1419823169708252,0.23131366074085236,9.887224197387695,0.001803400363816213,0.001531691613675204,0.03418282732117092,2.3000056743621826,2019-08-07 13:53:35:860,137.5569263168896,166.82025316665087,0,-16.493284225463867,34.485958099365234,-51.27912139892578
-0.2545355558395386,0.3462616503238678,9.772276878356934,0.004467211899782784,0.008457601451143694,0.026990536356113207,2.3100056648254395,2019-08-07 13:53:35:870,138.3711982917777,167.0407534588082,0,-16.493284225463867,34.485958099365234,-51.27912139892578
-0.2808777987957001,0.2672349214553833,9.846513748168945,0.0020697814914054373,0.0033963595067997765,0.017400815762901124,2.3199992179870605,2019-08-07 13:53:35:880,139.1691894261956,167.26768438019508,0,-16.493284225463867,34.485958099365234,-51.27912139892578
-0.20424580574035645,0.2217346578836441,9.791434288024902,-0.0008604111071317767,-0.0005993576020943366,0.018199959665817448,2.330014228820801,2019-08-07 13:53:35:890,139.96224275938303,167.4968688207966,0,-16.493284225463867,34.485958099365234,-51.27912139892578
-0.3120095431804657,0.3199194073677063,9.760302543640137,0.01059397783433495,0.0009989292934781736,0.019798245391055496,2.3400070667266846,2019-08-07 13:53:35:900,140.72581816601388,167.70344026690373,0,-16.493284225463867,34.485958099365234,-51.27912139892578
-0.3048253059387207,0.28399816155433655,9.75790786743164,0.00393444938453001,-6.659528596096748e-05,0.011274049308200309,2.350006103515625,2019-08-07 13:53:35:910,141.47555380491866,167.91382070012867,0,-16.493284225463867,34.485958099365234,-51.27912139892578
-0.24974605441093445,0.2528664171695709,9.829751014709473,0.0020697814914054373,0.006859314685608345,0.008610237512159412,2.3600056171417236,2019-08-07 13:53:35:920,142.21308322208094,168.12491044234915,0,-16.493284225463867,34.485958099365234,-51.27912139892578
-0.2545355558395386,0.36302489042282104,9.714802742004395,0.005799117537728906,-0.006193361606560959,-0.0004467211834764202,2.3700027465820312,2019-08-07 13:53:35:930,142.94228109140124,168.3163560599758,0,-16.493284225463867,34.485958099365234,-51.27912139892578
-0.30961480736732483,0.3869723975658417,9.801013946533203,0.00020511348449834825,-0.004062312325772837,-0.007639012311080588,2.3800201416015625,2019-08-07 13:53:35:940,143.64953289024885,168.50469299172275,0,-16.493284225463867,34.485958099365234,-51.27912139892578
-0.3191937804222107,0.27681389451026917,9.851303100585938,-0.0011267922997395827,-0.00566059935138251,-0.003909676004682793,2.3900012969970703,2019-08-07 13:53:35:950,144.34259863682476,168.703039772651,0,-16.493284225463867,34.485958099365234,-51.27912139892578
-0.3263780474662781,0.2816033959388733,9.832145690917969,0.0012706381086377639,0.00019978586194656375,-0.016429590041673648,2.400005340576172,2019-08-07 13:53:35:960,145.01760973704006,168.89545392239148,0,-16.493284225463867,34.485958099365234,-51.27912139892578
-0.23298279941082,0.4372621476650238,9.75790786743164,0.0034016871293515603,-0.0008657387296835611,-0.01935978296530377,2.4100003242492676,2019-08-07 13:53:35:970,145.69038837504704,169.0643204018996,0,-16.493284225463867,34.485958099365234,-51.27912139892578
-0.3455360531806946,0.3342879116535187,9.796224594116211,-0.0005940299795425521,-0.003263168943005164,-0.02761759844071838,2.420008659362793,2019-08-07 13:53:35:980,146.33801199147567,169.24427958223308,0,-16.493284225463867,34.485958099365234,-51.27912139892578
-0.3455360531806946,0.34865638613700867,9.820171356201172,-0.0019259356825072562,-0.005394218223793286,-0.030547791364348504,2.430018424987793,2019-08-07 13:53:35:990,146.97397958856064,169.4198088325099,0,-16.493284225463867,34.485958099365234,-51.27912139892578
-0.36708879470825195,0.34865638613700867,9.846513748168945,-0.00032764881944403687,-6.659528596096748e-05,-0.03507627001321667,2.4400055408477783,2019-08-07 13:53:36:000,147.59183613194799,169.59103747597075,0,-16.493284225463867,34.485958099365234,-51.27912139892578
-0.3718782961368561,0.36781439185142517,9.78664493560791,-0.0019259356825072562,-0.008324410627274756,-0.04706342023458313,2.4499969482421875,2019-08-07 13:53:36:010,148.20114734884103,169.75725018093783,0,-16.493284225463867,34.485958099365234,-51.27912139892578
-0.2641145586967468,0.3055509030818939,9.8034086227417,-0.0037906035756318283,-0.005127837096204061,-0.046264276331666805,2.460008382797241,2019-08-07 13:53:36:020,148.80914221346464,169.92853189412617,0,-16.493284225463867,34.485958099365234,-51.27912139892578
-0.29524630308151245,0.2983666658401489,9.820171356201172,-0.004056984703221053,-0.0075252672445070825,-0.05851780924106843,2.4700024127960205,2019-08-07 13:53:36:030,149.40274036409406,170.097432195088,0,-16.793163299560547,34.485958099365234,-51.57899856567383
-0.2856673002243042,0.20497141778469086,9.789039611816406,-0.005921652596345625,-0.004062312325772837,-0.05239104486696222,2.480017900466919,2019-08-07 13:53:36:040,149.98353903639787,170.27482303003163,0,-16.793163299560547,34.485958099365234,-51.57899856567383
-0.20903530716896057,0.2528664171695709,9.834540367126465,-0.006987177626851173,-0.006193361606560959,-0.05665314290838981,2.4900009632110596,2019-08-07 13:53:36:050,150.5629869101587,170.44378584056957,0,-16.793163299560547,34.485958099365234,-51.57899856567383
-0.35990452766418457,0.27202439308166504,9.86567211151123,-0.00672079649926195,-0.01205374693367255,-0.06331267265856638,2.500006675720215,2019-08-07 13:53:36:060,151.11671417109162,170.60709787768002,0,-16.793163299560547,34.485958099365234,-51.57899856567383
-0.2856673002243042,0.13312892615795135,9.817776679992676,-0.009384607255005544,-0.006193361606560959,-0.061714384852733735,2.5099973678588867,2019-08-07 13:53:36:070,151.66452097780208,170.78468281113538,0,-16.793163299560547,34.485958099365234,-51.57899856567383
-0.09887681901454926,0.3869723975658417,9.810592651367188,-0.0005940299795425521,0.0007325481658889489,-0.06091524094981741,2.520004987716675,2019-08-07 13:53:36:080,152.21927011188578,170.9241464862893,0,-16.793163299560547,34.485958099365234,-51.57899856567383
-0.00787633191794157,0.4851571321487427,9.77467155456543,-6.126766340918298e-05,-0.010189078520399329,-0.055853999005473484,2.530014991760254,2019-08-07 13:53:36:090,152.77968821979474,171.0488681282,0,-16.793163299560547,34.485958099365234,-51.57899856567383
0.02325541339814663,0.042128436267375946,9.798619270324707,-0.01444584919934946,-0.003263168943005164,-0.06331267265856638,2.540010452270508,2019-08-07 13:53:36:100,146.1286455258937,171.2310716595066,0,-16.793163299560547,34.485958099365234,-51.57899856567383
-0.04619232565164566,0.23370841145515442,9.781855583190918,-0.006987177626851173,-0.006193361606560959,-0.050526374373094395,2.5500025749206543,2019-08-07 13:53:36:110,146.80413618532347,171.38299738166552,0,-16.793163299560547,34.485958099365234,-51.57899856567383
-0.13719281554222107,0.5043151378631592,9.853697776794434,0.002602543746583887,-0.004062312325772837,-0.04573151511678566,2.5599989891052246,2019-08-07 13:53:36:120,147.45438010000737,171.49527946566198,0,-16.793163299560547,34.485958099365234,-51.57899856567383
-0.10606107115745544,0.22652415931224823,9.851303100585938,-0.006454414851524075,-0.005926980478971734,-0.04946085194333209,2.5700201988220215,2019-08-07 13:53:36:130,148.09629087155616,171.6426607843036,0,-16.793163299560547,34.485958099365234,-51.57899856567383
-0.06774507462978363,0.20497141778469086,9.85609245300293,-0.004323365830810277,-0.0027304066878267143,-0.03880560683976311,2.580000400543213,2019-08-07 13:53:36:140,148.72801890199509,171.78840282162912,0,-16.793163299560547,34.485958099365234,-51.57899856567383
-0.0892978236079216,0.3965514004230499,9.750723838806152,0.002602543746583887,-0.004595074841025611,-0.03747370172196564,2.5900003910064697,2019-08-07 13:53:36:150,149.34554456652236,171.904595961007,0,-16.793163299560547,34.485958099365234,-51.57899856567383
-0.0701398253440857,0.20497141778469086,9.78664493560791,-0.00672079649926195,-0.004595074841025611,-0.03694093634589529,2.600003242492676,2019-08-07 13:53:36:160,149.9530020267425,172.04628229674898,0,-16.793163299560547,34.485958099365234,-51.57899856567383
0.01607116498053074,0.2289189100265503,9.793828964233398,0.0010042569160299579,-6.659528596096748e-05,-0.030281408676313327,2.6099979877471924,2019-08-07 13:53:36:170,143.3558597460379,172.17801354301383,0,-16.793163299560547,34.485958099365234,-51.57899856567383
-0.11803481727838516,0.33668264746665955,9.784250259399414,0.006598260920496581,0.00019978586194656375,-0.03134693318667023,2.620008945465088,2019-08-07 13:53:36:180,144.07480687207905,172.2913281224888,0,-16.793163299560547,34.485958099365234,-51.57899856567383
-0.10127156972885132,0.2025766670703888,9.829751014709473,-0.004856128085988727,-0.006459742734150184,-0.03134693318667023,2.6300196647644043,2019-08-07 13:53:36:190,144.7851363164645,172.42461890481272,0,-16.793163299560547,34.485958099365234,-51.57899856567383
-0.11803481727838516,0.1762344241142273,9.925540924072266,-0.0061880337239348495,-0.003263168943005164,-0.02522016673196941,2.640007257461548,2019-08-07 13:53:36:200,145.47763696298802,172.55925245059552,0,-16.793163299560547,34.485958099365234,-51.57899856567383
-0.1874825656414032,0.29597190022468567,9.827356338500977,0.0015370192362269886,-0.00246402556023749,-0.022023593200898715,2.6500046253204346,2019-08-07 13:53:36:210,146.1476087164703,172.67270331921526,0,-16.793163299560547,34.485958099365234,-51.57899856567383
-0.17311406135559082,0.2792086601257324,9.829751014709473,-0.005122509213577951,0.0009989292934781736,-0.02522016673196941,2.6600117683410645,2019-08-07 13:53:36:220,146.80391634060112,172.7895872379633,0,-16.793163299560547,34.485958099365234,-51.57899856567383
-0.13240331411361694,0.2528664171695709,9.781855583190918,-0.00032764881944403687,-0.0021976444326482656,-0.020425307475660667,2.6699953079223633,2019-08-07 13:53:36:230,147.4535602455784,172.90436320403373,0,-16.793163299560547,34.485958099365234,-51.57899856567383
-0.10366632044315338,0.3342879116535187,9.753118515014648,0.006331879792907356,-0.004595074841025611,-0.015630446138757324,2.680006265640259,2019-08-07 13:53:36:240,148.09489246822636,173.00345584125455,0,-16.793163299560547,34.485958099365234,-51.57899856567383
-0.10606107115745544,0.2289189100265503,9.77467155456543,-0.005122509213577951,-0.0019312633050590406,-0.020958068690541815,2.69001841545105,2019-08-07 13:53:36:250,148.72164695199555,173.11943451969978,0,-16.793163299560547,34.485958099365234,-51.57899856567383
-0.18269306421279907,0.2816033959388733,9.832145690917969,-0.005921652596345625,-0.0048614559686148365,-0.013765778765781403,2.7000064849853516,2019-08-07 13:53:36:260,149.32865042057284,173.2275555575572,0,-16.793163299560547,34.485958099365234,-51.57899856567383
-0.2712987959384918,0.2816033959388733,9.84411907196045,0.002602543746583887,-0.0019312633050590406,-0.009237299076615935,2.7100048065185547,2019-08-07 13:53:36:270,149.911588786695,173.32877194871904,0,-16.793163299560547,34.485958099365234,-51.57899856567383
-0.06056082621216774,0.2887876629829407,9.78664493560791,-0.004323365830810277,-0.004062312325772837,-0.00604072502539659,2.7200095653533936,2019-08-07 13:53:36:280,150.50854811914763,173.43082096952315,0,-16.493284225463867,35.68547058105469,-52.478633880615234
-0.13719281554222107,0.3390774130821228,9.741145133972168,0.0100612155791565,-0.003263168943005164,-0.008704536821437486,2.7300000190734863,2019-08-07 13:53:36:290,151.0840698375532,173.51668875488167,0,-16.493284225463867,35.68547058105469,-52.478633880615234
-0.134798064827919,0.3917618989944458,9.846513748168945,0.006065498665318131,-0.00246402556023749,0.001950709062354473,2.7400217056274414,2019-08-07 13:53:36:300,151.64808846615708,173.5973734720373,0,-16.493284225463867,35.68547058105469,-52.478633880615234
-0.34793078899383545,0.3342879116535187,9.911171913146973,-0.008319083264797297,-0.010455460168137204,-0.004975200515039691,2.7500159740448,2019-08-07 13:53:36:310,152.18078330855695,173.69145923276005,0,-16.493284225463867,35.68547058105469,-52.478633880615234
-0.40061527490615845,0.1762344241142273,9.966251373291016,0.00047149462834221814,-0.001132119922291367,0.0022170901899436976,2.7600066661834717,2019-08-07 13:53:36:320,152.69176493617607,173.79710429912276,0,-16.493284225463867,35.68547058105469,-52.478633880615234
0.04720291122794151,0.20497141778469086,9.853697776794434,0.004733593027372009,-6.659528596096748e-05,0.0011515656795867992,2.7700047492980957,2019-08-07 13:53:36:330,146.04345634728898,173.89467152276197,0,-16.493284225463867,35.68547058105469,-52.478633880615234
-0.0892978236079216,0.559394359588623,9.602249145507812,0.02284751074373658,0.002064453868853653,0.00061880342440835,2.7799997329711914,2019-08-07 13:53:36:340,146.71077227516247,173.93727390605807,0,-16.493284225463867,35.68547058105469,-52.478633880615234
-0.17550881206989288,0.29118239879608154,9.877645492553711,-0.004056984703221053,-6.659528596096748e-05,-0.0012458645987533845,2.790022373199463,2019-08-07 13:53:36:350,147.356235495961,174.02704099377215,0,-16.493284225463867,35.68547058105469,-52.478633880615234
-0.2545355558395386,0.1498921662569046,9.899198532104492,-0.007519939882029623,-0.006459742734150184,0.003016233572711371,2.7999989986419678,2019-08-07 13:53:36:360,147.98327130141035,174.13336278557148,0,-16.493284225463867,35.68547058105469,-52.478633880615234
-0.3455360531806946,0.3989461362361908,9.781855583190918,0.004467211899782784,-0.004062312325772837,-0.004708819387450467,2.810006618499756,2019-08-07 13:53:36:370,148.58542688844918,174.20147580625178,0,-16.493284225463867,35.68547058105469,-52.478633880615234
-0.28327253460884094,0.27681389451026917,9.90638256072998,-0.007253558754440398,-0.007258886116917857,-0.0020450079815210586,2.819999933242798,2019-08-07 13:53:36:380,149.18503300576117,174.2895044591129,0,-16.493284225463867,35.68547058105469,-52.478633880615234
-0.2976410388946533,0.18102392554283142,9.860882759094238,0.00020511348449834825,-0.003529550070594388,-0.007372630663342713,2.830009698867798,2019-08-07 13:53:36:390,149.76873828300708,174.3825649818133,0,-16.493284225463867,35.68547058105469,-52.478633880615234
-0.3838520348072052,0.42768314480781555,9.81538200378418,0.001803400363816213,0.0004661670057904337,-0.010302823586972834,2.8400180339813232,2019-08-07 13:53:36:400,150.32831082989475,174.44400110586255,0,-16.493284225463867,35.68547058105469,-52.478633880615234
-0.37427303194999695,0.3462616503238678,9.808197975158691,-0.0011267922997395827,0.0012653104860859794,-0.0068398684081642635,2.8500030040740967,2019-08-07 13:53:36:410,150.87732918928188,174.51531502952503,0,-16.493284225463867,35.68547058105469,-52.478633880615234
-0.3718782961368561,0.2624454200267792,9.820171356201172,-0.0019259356825072562,-0.0037959311981836125,-0.017761495159471122,2.8599956035614014,2019-08-07 13:53:36:420,151.41853869315784,174.59547187626947,0,-16.493284225463867,35.68547058105469,-52.478633880615234
-0.3646940290927887,0.33668264746665955,9.829751014709473,0.00020511348449834825,-0.0037959311981836125,-0.016429590041673648,2.8700063228607178,2019-08-07 13:53:36:430,151.9498064398703,174.66421327888312,0,-16.493284225463867,35.68547058105469,-52.478633880615234
-0.39343103766441345,0.33668264746665955,9.81538200378418,-0.0005940299795425521,-0.002996787815415939,-0.02761759844071838,2.879997730255127,2019-08-07 13:53:36:440,152.46658427190644,174.7319710176893,0,-16.493284225463867,35.68547058105469,-52.478633880615234
-0.35511502623558044,0.3151299059391022,9.81538200378418,-0.00272507906527493,0.0017980727412644285,-0.029482266853991603,2.890022039413452,2019-08-07 13:53:36:450,152.9748000071141,174.80208763319933,0,-16.493284225463867,35.68547058105469,-52.478633880615234
-0.35990452766418457,0.3079456388950348,9.877645492553711,-0.0019259356825072562,-0.0008657387296835611,-0.03134693318667023,2.900038957595825,2019-08-07 13:53:36:460,153.47405651655393,174.87141560451107,0,-16.493284225463867,35.68547058105469,-52.478633880615234
-0.3575097918510437,0.3079456388950348,9.84411907196045,0.004733593027372009,0.0004661670057904337,-0.030015028068872754,2.9100029468536377,2019-08-07 13:53:36:470,153.96271653503518,174.93550389037884,0,-16.493284225463867,35.68547058105469,-52.478633880615234
-0.37427303194999695,0.2792086601257324,9.812987327575684,-0.0011267922997395827,-0.00859079175486398,-0.034543506717740924,2.9200026988983154,2019-08-07 13:53:36:480,154.4446010914891,175.0048305786117,0,-16.493284225463867,35.68547058105469,-52.478633880615234
-0.36708879470825195,0.2792086601257324,9.801013946533203,-0.0005940299795425521,0.0007325481658889489,-0.035875413916133,2.929997682571411,2019-08-07 13:53:36:490,154.9123986918646,175.07243163694574,0,-16.493284225463867,35.68547058105469,-52.478633880615234
-0.33356228470802307,0.31034040451049805,9.791434288024902,0.0010042569160299579,-0.0027304066878267143,-0.03880560683976311,2.9400177001953125,2019-08-07 13:53:36:500,155.37666438471967,175.13411024193695,0,-16.493284225463867,35.68547058105469,-52.478633880615234
-0.34074655175209045,0.29118239879608154,9.834540367126465,0.0020697814914054373,-0.0027304066878267143,-0.034543506717740924,2.9500010013580322,2019-08-07 13:53:36:510,155.8309739197696,175.19634928396837,0,-16.493284225463867,35.68547058105469,-52.478633880615234
-0.23537755012512207,0.4492358863353729,9.877645492553711,-0.036821863916844326,0.004994646272335123,-0.011101966449591856,2.9600038528442383,2019-08-07 13:53:36:520,156.28424793497874,175.26102320179376,0,-16.493284225463867,35.68547058105469,-52.478633880615234
0.1717298924922943,0.22652415931224823,10.200937271118164,-0.05094006732011378,-0.023508134899860558,-0.02069168808310124,2.970003366470337,2019-08-07 13:53:36:530,149.59105146263408,175.3589618638224,0,-17.242979049682617,37.03491973876953,-52.32869338989258
0.5237581133842468,0.16426067054271698,9.096957206726074,0.03696571206641143,0.013252461747749737,-0.06091524094981741,2.9800214767456055,2019-08-07 13:53:36:540,143.05767915237956,175.41029967868928,0,-17.242979049682617,37.03491973876953,-52.32869338989258
0.8207070827484131,0.42049887776374817,9.271774291992188,0.03030618231623487,0.0031299783792105513,-0.04306770488119071,2.989990711212158,2019-08-07 13:53:36:550,136.6959425143131,175.43319451863402,0,-17.242979049682617,37.03491973876953,-52.32869338989258
0.521363377571106,0.6168683767318726,9.255010604858398,0.002336162618994662,0.017248179181736756,-0.02388826161417194,2.99999737739563,2019-08-07 13:53:36:560,130.4168171940864,175.44695281708658,0,-17.242979049682617,37.03491973876953,-52.32869338989258
1.0074975490570068,0.4300778806209564,9.195141792297363,0.03643295085153029,0.01937922820245055,-0.058784191929103606,3.0100045204162598,2019-08-07 13:53:36:570,124.32264902071363,175.4639840269864,0,-17.242979049682617,37.03491973876953,-52.32869338989258
0.2387828826904297,-0.3482157588005066,9.578302383422852,0.009794834971715925,-0.007258886116917857,-0.03880560683976311,3.020001173019409,2019-08-07 13:53:36:580,118.26883178852947,168.39084741391548,0,-17.242979049682617,37.03491973876953,-52.32869338989258
0.5381265878677368,0.11876042932271957,9.535196304321289,0.015388839171238292,-0.0019312633050590406,-0.005241581642628916,3.030019998550415,2019-08-07 13:53:36:590,112.3691437499426,168.60010179880817,0,-17.242979049682617,37.03491973876953,-52.32869338989258
0.16694039106369019,0.3702091574668884,9.719592094421387,0.010327597226894376,0.0041955028895674495,-0.0012458645987533845,3.040001630783081,2019-08-07 13:53:36:600,106.53908935217571,168.77868583770893,0,-17.242979049682617,37.03491973876953,-52.32869338989258
0.06636090576648712,0.10918142646551132,9.870461463928223,-0.007786321009618847,-0.0037959311981836125,0.015802528997365776,3.050004720687866,2019-08-07 13:53:36:610,100.81814371655602,168.99481053144086,0,-17.242979049682617,37.03491973876953,-52.32869338989258
0.1453876495361328,0.11636567860841751,9.920751571655273,-0.0016595545549180318,0.0012653104860859794,0.03631387842247932,3.0600008964538574,2019-08-07 13:53:36:620,95.21786272329481,169.20240537576313,0,-17.242979049682617,37.03491973876953,-52.32869338989258
-0.19706155359745026,0.5809471011161804,9.662117958068848,0.028441513902961645,0.009256744313762716,0.05922265643544994,3.0700225830078125,2019-08-07 13:53:36:630,96.88492852365397,169.33353598327562,0,-17.242979049682617,37.03491973876953,-52.32869338989258
-0.000692082685418427,0.3989461362361908,9.841724395751953,-0.0008604111071317767,-0.0027304066878267143,0.07547190469824398,3.080003261566162,2019-08-07 13:53:36:640,98.5486795283582,169.5009218005252,0,-17.242979049682617,37.03491973876953,-52.32869338989258
-0.28327253460884094,0.38936713337898254,9.791434288024902,0.002602543746583887,0.00765845806837602,0.09225391417591919,3.0900073051452637,2019-08-07 13:53:36:650,100.14026114968618,169.66389685451162,0,-17.242979049682617,37.03491973876953,-52.32869338989258
-0.3263780474662781,0.7461848258972168,9.834540367126465,0.008729310461359028,0.007924839195965244,0.10024535320508243,3.1000025272369385,2019-08-07 13:53:36:660,101.69499281622649,169.7789409600934,0,-17.242979049682617,37.03491973876953,-52.32869338989258
-0.30243054032325745,0.8108431100845337,9.8034086227417,0.012192264599870297,-0.0005993576020943366,0.10504020830020196,3.110006332397461,2019-08-07 13:53:36:670,103.2260898780295,169.88194979035475,0,-17.242979049682617,37.03491973876953,-52.32869338989258
-0.5203527808189392,0.40852513909339905,9.808197975158691,0.006598260920496581,-0.002996787815415939,0.10397468587043966,3.1200156211853027,2019-08-07 13:53:36:680,104.70251519757986,170.03290102643592,0,-17.242979049682617,37.03491973876953,-52.32869338989258
-0.46527352929115295,0.36781439185142517,9.777066230773926,0.01059397783433495,0.006060170782692022,0.10557297367627232,3.1300055980682373,2019-08-07 13:53:36:690,106.15057451173142,170.18321130351293,0,-17.242979049682617,37.03491973876953,-52.32869338989258
-0.3455360531806946,0.4827623665332794,9.987804412841797,0.003135306001762336,0.011920556629952265,0.10956868902966473,3.1399953365325928,2019-08-07 13:53:36:700,107.58124845537395,170.32244344652574,0,-17.242979049682617,37.03491973876953,-52.32869338989258
-0.34793078899383545,0.20018191635608673,9.913566589355469,0.001803400363816213,-0.004595074841025611,0.10184364101091506,3.1500062942504883,2019-08-07 13:53:36:710,108.99200539684814,170.4918448478425,0,-17.242979049682617,37.03491973876953,-52.32869338989258
-0.4556945264339447,0.2935771644115448,9.834540367126465,0.008729310461359028,-0.00912355401004243,0.09784791733514425,3.1599984169006348,2019-08-07 13:53:36:720,110.36422477628041,170.64291301123234,0,-17.242979049682617,37.03491973876953,-52.32869338989258
-0.45329976081848145,0.34147214889526367,9.729170799255371,-0.0008604111071317767,0.014850748513285082,0.08692629370472929,3.170018434524536,2019-08-07 13:53:36:730,111.69523320526712,170.79033626430862,0,-17.242979049682617,37.03491973876953,-52.32869338989258
-0.3766677975654602,0.3151299059391022,9.932724952697754,-0.004856128085988727,0.006859314685608345,0.08346333540502883,3.180054187774658,2019-08-07 13:53:36:740,113.0140287917212,170.9409223769155,0,-17.242979049682617,37.03491973876953,-52.32869338989258
-1.2483566999435425,0.11157617717981339,10.495491027832031,-0.010450131765362443,-0.037359955615094836,0.0712098066568164,3.190004348754883,2019-08-07 13:53:36:750,114.23896086321571,171.115760801715,0,-17.242979049682617,37.03491973876953,-52.32869338989258
-1.0735399723052979,-0.05366155132651329,10.347016334533691,-0.03655548538999835,-0.01977880015390871,0.0815986732335394,3.2000057697296143,2019-08-07 13:53:36:760,115.44682003514166,164.11991723577435,0,-17.242979049682617,37.03491973876953,-52.32869338989258
-1.0112764835357666,0.7916851043701172,9.956672668457031,0.015122457523500417,-0.004062312325772837,0.05629246351181982,3.210000514984131,2019-08-07 13:53:36:770,116.62417315212416,164.33810820012422,0,-17.242979049682617,37.03491973876953,-52.32869338989258
-1.3106201887130737,0.5569996237754822,10.366174697875977,-0.04854263561136481,-0.010721840775577777,0.06188646667104488,3.2200212478637695,2019-08-07 13:53:36:780,117.75360628892622,164.61714551088022,0,-16.043468475341797,34.336021423339844,-51.129180908203125
-1.6267271041870117,0.03254943713545799,10.67270278930664,-0.0402848222165448,-0.021643468567181936,0.0491001725467621,3.2300000190734863,2019-08-07 13:53:36:790,118.8373353604805,164.94387967018238,0,-16.043468475341797,34.336021423339844,-51.129180908203125
-1.4064100980758667,0.14749743044376373,10.48351764678955,-0.03548995879904685,-0.013385652051470022,0.037912162067122765,3.2400062084198,2019-08-07 13:53:36:800,119.9152921158302,165.24882062452292,0,-16.043468475341797,34.336021423339844,-51.129180908203125
-1.5141738653182983,0.48036763072013855,10.323068618774414,-0.015244993102265786,-0.022708993077538833,0.027523299651588957,3.2500007152557373,2019-08-07 13:53:36:810,120.96283905299352,165.49911462576736,0,-16.043468475341797,34.336021423339844,-51.129180908203125
-0.8316702246665955,0.14749743044376373,10.023725509643555,-0.021105378949526025,-0.011254603030756228,0.006479188491445616,3.2600209712982178,2019-08-07 13:53:36:820,122.05505497828285,165.7841462417229,0,-16.043468475341797,34.336021423339844,-51.129180908203125
-0.9202759861946106,-0.04887205362319946,10.0668306350708,-0.019240710536252807,-0.00246402556023749,-0.006307106152985815,3.269996404647827,2019-08-07 13:53:36:830,123.1108686165668,158.88480351102035,0,-16.043468475341797,34.336021423339844,-51.129180908203125
-0.6065637469291687,-0.04408255219459534,10.349411010742188,-0.011515657316016642,-0.001132119922291367,-0.017228732904292672,3.2800052165985107,2019-08-07 13:53:36:840,124.1822038017087,152.11846007788918,0,-16.043468475341797,34.336021423339844,-51.129180908203125
-0.3311675488948822,0.1953924149274826,10.078804969787598,-0.011782037923457216,-0.03469614329890529,-0.0169623522968521,3.2899997234344482,2019-08-07 13:53:36:850,125.280392115725,152.6604903687945,0,-16.043468475341797,34.336021423339844,-51.129180908203125
-0.48443153500556946,-0.04887205362319946,9.496880531311035,-0.004856128085988727,-0.0048614559686148365,-0.03853922415172794,3.30000901222229,2019-08-07 13:53:36:860,126.31911449780291,146.0159067665875,0,-16.043468475341797,34.336021423339844,-51.129180908203125
-0.28327253460884094,-0.0919775441288948,9.743539810180664,-0.007786321009618847,0.007392076940786795,-0.04333408340803668,3.3100178241729736,2019-08-07 13:53:36:870,127.35527225121729,139.51078144129642,0,-16.043468475341797,34.336021423339844,-51.129180908203125
-0.08690307289361954,0.1690501719713211,9.841724395751953,-0.0016595545549180318,-0.00033297644199582136,-0.04226856097827438,3.320054769515991,2019-08-07 13:53:36:880,128.39823621579717,140.30181976751783,0,-16.043468475341797,34.336021423339844,-51.129180908203125
-0.055771324783563614,-0.13508303463459015,10.033304214477539,-0.010183751157921868,-0.01951241954646814,-0.047862564137499446,3.3300085067749023,2019-08-07 13:53:36:890,129.43480735849744,133.91690214253032,0,-16.043468475341797,34.336021423339844,-51.129180908203125
-0.23298279941082,-0.11353029310703278,9.86567211151123,-0.004323365830810277,-0.01977880015390871,-0.05452209388767601,3.34000301361084,2019-08-07 13:53:36:900,130.43015453716623,127.65417649625729,0,-15.743589401245117,34.336021423339844,-52.02881622314453
-0.22340381145477295,0.07086542993783951,9.702829360961914,0.003668068256940785,-0.003263168943005164,-0.05079275706112957,3.3499879837036133,2019-08-07 13:53:36:910,131.39700136476995,128.69066730453918,0,-15.743589401245117,34.336021423339844,-52.02881622314453
-0.14437706768512726,-0.05126680061221123,9.911171913146973,-0.005921652596345625,0.001531691613675204,-0.05079275706112957,3.360013246536255,2019-08-07 13:53:36:920,132.3515076315096,122.52611469987096,0,-15.743589401245117,34.336021423339844,-52.02881622314453
-0.15156131982803345,-0.03929305449128151,9.987804412841797,-0.0013931734273288073,-0.00859079175486398,-0.03507627001321667,3.3699991703033447,2019-08-07 13:53:36:930,133.2919068866497,116.48088169679227,0,-15.743589401245117,34.336021423339844,-52.02881622314453
-0.28806203603744507,0.16186591982841492,9.925540924072266,0.004999974154961233,-0.03229871367075092,-0.03294522099250287,3.3800089359283447,2019-08-07 13:53:36:940,134.21097436887192,117.72976788454002,0,-15.743589401245117,34.336021423339844,-52.02881622314453
-0.3120095431804657,0.04452318698167801,9.793828964233398,-0.00032764881944403687,-0.01844689503611124,-0.02868312295107528,3.3899998664855957,2019-08-07 13:53:36:950,135.10060942224436,118.97014698643244,0,-15.743589401245117,34.336021423339844,-52.02881622314453
-0.22819329798221588,0.09002342820167542,9.829751014709473,0.00393444938453001,0.009523125961500591,-0.015630446138757324,3.400024890899658,2019-08-07 13:53:36:960,135.96663948682868,120.1780350293659,0,-15.743589401245117,34.336021423339844,-52.02881622314453
-0.07732407003641129,0.20497141778469086,9.975830078125,0.02284751074373658,-0.00033297644199582136,-0.005507962770218141,3.409998893737793,2019-08-07 13:53:36:970,136.83861120089506,121.3381372442679,0,-15.743589401245117,34.336021423339844,-52.02881622314453
-0.12761381268501282,0.3007614016532898,9.853697776794434,-0.0011267922997395827,-0.01205374693367255,0.0075447130018025145,3.4200119972229004,2019-08-07 13:53:36:980,137.69377625082333,122.47704244558952,0,-15.743589401245117,34.336021423339844,-52.02881622314453
-0.16353505849838257,0.6623685956001282,9.827356338500977,0.009262072716537477,-0.007258886116917857,0.021396533196888144,3.429999351501465,2019-08-07 13:53:36:990,138.52490423549116,123.54518890176661,0,-15.743589401245117,34.336021423339844,-52.02881622314453
-0.7023537158966064,0.5641838908195496,9.801013946533203,0.013790551365405645,-0.0021976444326482656,0.034715590616646676,3.440002918243408,2019-08-07 13:53:37:000,139.27366286384367,124.60064841097619,0,-15.743589401245117,34.336021423339844,-52.02881622314453
-0.4030100405216217,0.6911056041717529,9.753118515014648,0.023646654646652904,0.012453318885130711,0.0480346459558106,3.450019359588623,2019-08-07 13:53:37:010,140.03386196393677,125.61427201005306,0,-15.743589401245117,34.336021423339844,-52.02881622314453
-0.04858707636594772,0.9832650423049927,9.860882759094238,0.018585412702308988,0.013518843395487609,0.0712098066568164,3.4600086212158203,2019-08-07 13:53:37:020,140.81995589202802,126.57767507317995,0,-15.743589401245117,34.336021423339844,-52.02881622314453
0.03043966367840767,0.8276063203811646,10.040488243103027,0.012192264599870297,-0.00965631626522088,0.0669477086153888,3.4699976444244385,2019-08-07 13:53:37:030,134.41244688300912,127.54504192233821,0,-16.793163299560547,35.68547058105469,-52.478633880615234
-0.4101942777633667,0.40134090185165405,9.84411907196045,0.002602543746583887,0.0012653104860859794,0.0847952488452047,3.480008125305176,2019-08-07 13:53:37:040,135.27576521798846,128.5459855538509,0,-16.793163299560547,35.68547058105469,-52.478633880615234
-0.2856673002243042,0.7366058230400085,9.729170799255371,0.015655219778678866,0.017248179181736756,0.09305306224002471,3.4899981021881104,2019-08-07 13:53:37:050,136.12693815440866,129.4796909896573,0,-16.793163299560547,35.68547058105469,-52.478633880615234
-0.24974605441093445,0.7725270986557007,9.726776123046875,0.02444579854956923,0.022575801733521247,0.10663849610603461,3.500018835067749,2019-08-07 13:53:37:060,136.96228060318325,130.38552133137074,0,-16.793163299560547,35.68547058105469,-52.478633880615234
-0.31440427899360657,0.4947361350059509,9.942303657531738,0.008729310461359028,0.004728265144745899,0.10317554612871255,3.5099968910217285,2019-08-07 13:53:37:070,137.78416082291352,131.31594558045043,0,-16.793163299560547,35.68547058105469,-52.478633880615234
-0.2138248085975647,0.4492358863353729,9.772276878356934,0.007930166558442704,-0.005127837096204061,0.10956868902966473,3.5200767517089844,2019-08-07 13:53:37:080,138.60631037465444,132.23249714587925,0,-16.793163299560547,35.68547058105469,-52.478633880615234
-0.2665092945098877,0.559394359588623,9.710013389587402,0.016720744289035767,0.013518843395487609,0.10344192881674771,3.5300025939941406,2019-08-07 13:53:37:090,139.39520576609024,133.11258478637865,0,-16.793163299560547,35.68547058105469,-52.478633880615234
-0.24735130369663239,0.5569996237754822,9.798619270324707,0.003135306001762336,0.009789506568941165,0.09438496735782219,3.5399913787841797,2019-08-07 13:53:37:100,140.17289025935816,133.98350538728863,0,-16.793163299560547,35.68547058105469,-52.478633880615234
-0.2138248085975647,0.5426311492919922,9.791434288024902,0.007663785430853478,0.005793789655102798,0.09118839174615688,3.549989938735962,2019-08-07 13:53:37:110,140.94115925228382,134.83609213312172,0,-16.793163299560547,35.68547058105469,-52.478633880615234
-0.2976410388946533,0.4947361350059509,9.971040725708008,0.006598260920496581,-0.0016648821774698163,0.0805331424813987,3.5600099563598633,2019-08-07 13:53:37:120,141.6890767126899,135.67884730981967,0,-16.793163299560547,35.68547058105469,-52.478633880615234
-0.30961480736732483,0.5234731435775757,9.743539810180664,-0.005388890341167176,-0.004595074841025611,0.08026676811574193,3.570028305053711,2019-08-07 13:53:37:130,142.42147919503086,136.50679641332167,0,-16.793163299560547,35.68547058105469,-52.478633880615234
-0.34074655175209045,0.40134090185165405,9.887224197387695,-6.126766340918298e-05,0.008990363706322143,0.06907875763610259,3.579988956451416,2019-08-07 13:53:37:140,143.1285449682587,137.3302054190261,0,-16.793163299560547,35.68547058105469,-52.478633880615234
-0.34793078899383545,0.3534458875656128,9.793828964233398,-0.0011267922997395827,0.010855031079298064,0.06428389837979386,3.589992046356201,2019-08-07 13:53:37:150,143.81918497517177,138.14289761186964,0,-16.793163299560547,35.68547058105469,-52.478633880615234
-0.2808777987957001,0.4492358863353729,9.712408065795898,-6.126766340918298e-05,0.002597216124032102,0.05868989105937958,3.5999884605407715,2019-08-07 13:53:37:160,144.50821341524028,138.9271088359534,0,-16.793163299560547,35.68547058105469,-52.478633880615234
-0.30243054032325745,0.2744191586971283,9.791434288024902,-0.0019259356825072562,0.0009989292934781736,0.053095887900154515,3.6100072860717773,2019-08-07 13:53:37:170,145.1821042542317,139.71754256241053,0,-16.793163299560547,35.68547058105469,-52.478633880615234
-0.3072200417518616,0.23849791288375854,9.767487525939941,-0.007253558754440398,0.01005588821667904,0.042440642796585534,3.6200175285339355,2019-08-07 13:53:37:180,145.83677903203548,140.4992938774451,0,-16.793163299560547,35.68547058105469,-52.478633880615234
-0.26890406012535095,0.18820816278457642,9.798619270324707,-0.004323365830810277,0.0041955028895674495,0.04323978669950186,3.62998366355896,2019-08-07 13:53:37:190,146.4862561250098,141.26971973709777,0,-16.793163299560547,35.68547058105469,-52.478633880615234
-0.19706155359745026,0.29597190022468567,9.880040168762207,0.00020511348449834825,-0.005394218223793286,0.043506169387537034,3.639993906021118,2019-08-07 13:53:37:200,147.13671021302983,142.009892640724,0,-16.793163299560547,35.68547058105469,-52.478633880615234
-0.3191937804222107,0.05410218611359596,9.75790786743164,-0.010183751157921868,-0.002996787815415939,0.023261201610161368,3.6500096321105957,2019-08-07 13:53:37:210,147.75819032819052,142.76906854158938,0,-16.793163299560547,35.68547058105469,-52.478633880615234
-0.015060581266880035,-0.13268828392028809,9.798619270324707,-0.008319083264797297,-0.001132119922291367,0.026724155748672634,3.6599907875061035,2019-08-07 13:53:37:220,148.40189972452833,136.33386602253205,0,-16.793163299560547,35.68547058105469,-52.478633880615234
-0.10366632044315338,0.13552367687225342,9.899198532104492,-0.004056984703221053,0.0017980727412644285,0.021662913804328717,3.6699907779693604,2019-08-07 13:53:37:230,149.02085230469564,137.193779664474,0,-16.793163299560547,35.68547058105469,-52.478633880615234
0.018465915694832802,0.25047165155410767,9.750723838806152,0.003668068256940785,-0.013385652051470022,0.013937860584092555,3.6799941062927246,2019-08-07 13:53:37:240,142.45012391733994,138.01841454329207,0,-16.793163299560547,35.68547058105469,-52.478633880615234
0.1334138959646225,-0.1374777853488922,9.645355224609375,-0.004056984703221053,-0.015250320464743247,-0.0007131023435749355,3.6899914741516113,2019-08-07 13:53:37:250,136.02553143488234,131.67665557465858,0,-16.793163299560547,35.68547058105469,-52.478633880615234
-0.0030868323519825935,-0.036898303776979446,9.482511520385742,0.0279087526880805,0.008990363706322143,-0.013233016510602954,3.7000064849853516,2019-08-07 13:53:37:260,136.899592122887,125.431887172237,0,-16.793163299560547,35.68547058105469,-52.478633880615234
-0.010271081700921059,0.3318931460380554,9.74593448638916,-0.005122509213577951,-0.00246402556023749,0.01074128705302186,3.709988832473755,2019-08-07 13:53:37:270,137.76177372378135,126.48711209991555,0,-16.793163299560547,35.68547058105469,-52.478633880615234
0.11904539912939072,-0.22608353197574615,9.954277992248535,-0.019773471751133954,-0.014983938817005372,-0.0068398684081642635,3.719996690750122,2019-08-07 13:53:37:280,131.42866192530045,120.39450314818234,0,-17.242979049682617,34.63589859008789,-52.32869338989258
-0.16592980921268463,-0.20692552626132965,9.834540367126465,0.008462928813621153,-0.01604946436765957,-0.017495114552030545,3.7299935817718506,2019-08-07 13:53:37:290,132.38976541564483,114.4059699384635,0,-17.242979049682617,34.63589859008789,-52.32869338989258
-0.18987730145454407,-0.12789879739284515,9.951883316040039,-0.0061880337239348495,-0.009922697912958753,-0.011634728704770307,3.740010976791382,2019-08-07 13:53:37:300,133.3256904968064,108.53605732946758,0,-17.242979049682617,34.63589859008789,-52.32869338989258
-0.17790356278419495,-0.08479329943656921,9.805803298950195,0.0020697814914054373,-0.011254603030756228,-0.005507962770218141,3.7500054836273193,2019-08-07 13:53:37:310,134.24470495919542,102.77408342122118,0,-17.242979049682617,34.63589859008789,-52.32869338989258
-0.21621955931186676,0.24328741431236267,9.81538200378418,0.009528453323978052,-0.010721840775577777,-0.0017786268539318336,3.759990692138672,2019-08-07 13:53:37:320,135.1405833690621,104.28486221181467,0,-17.242979049682617,34.63589859008789,-52.32869338989258
-0.10366632044315338,-0.015345555730164051,9.875250816345215,0.0015370192362269886,-0.0115209846784941,0.0011515656795867992,3.769991397857666,2019-08-07 13:53:37:330,136.0322122668348,98.60008255608545,0,-17.242979049682617,34.63589859008789,-52.32869338989258
-0.14677181839942932,0.10199718177318573,9.868066787719727,0.00047149462834221814,-0.003263168943005164,8.60411123386422e-05,3.7799952030181885,2019-08-07 13:53:37:340,136.89635856609027,100.21597220091255,0,-17.242979049682617,34.63589859008789,-52.32869338989258
-0.010271081700921059,0.20018191635608673,10.05485725402832,0.0071310231756750294,-0.005127837096204061,0.00035242226430983473,3.790008068084717,2019-08-07 13:53:37:350,137.76014381502614,101.78483255285195,0,-17.242979049682617,34.63589859008789,-52.32869338989258
0.12862439453601837,0.4109198749065399,9.863277435302734,0.01352417075796507,-0.01604946436765957,0.011007667660462434,3.7999887466430664,2019-08-07 13:53:37:360,131.4288780144939,103.29384369108107,0,-17.242979049682617,34.63589859008789,-52.32869338989258
0.008886916562914848,0.4516306221485138,9.640565872192383,0.00393444938453001,0.0004661670057904337,0.012073192170819333,3.8099911212921143,2019-08-07 13:53:37:370,125.2010949734766,104.77211373154356,0,-17.242979049682617,34.63589859008789,-52.32869338989258
0.011281665414571762,0.49234136939048767,9.805803298950195,0.01299140850278662,0.005527408527513573,0.017667196370341698,3.8199923038482666,2019-08-07 13:53:37:380,119.09528746029115,106.2118887261071,0,-17.242979049682617,34.63589859008789,-52.32869338989258
-0.06535032391548157,0.6072893738746643,9.769882202148438,0.009262072716537477,0.01005588821667904,0.024859487335399413,3.8299942016601562,2019-08-07 13:53:37:390,120.30006940593393,107.61131149927797,0,-17.242979049682617,34.63589859008789,-52.32869338989258
0.042413413524627686,0.5857366323471069,9.994988441467285,0.014856075875762542,-0.008324410627274756,0.031519015004981374,3.840005397796631,2019-08-07 13:53:37:400,114.30361002323262,108.98365685302677,0,-17.242979049682617,34.63589859008789,-52.32869338989258
-0.18508781492710114,0.42049887776374817,9.846513748168945,-0.0056552714687564,-0.017381369485457043,0.027789680259029535,3.849989891052246,2019-08-07 13:53:37:410,115.60574472815968,110.35824720249741,0,-17.242979049682617,34.63589859008789,-52.32869338989258
-0.1611403077840805,0.5929208397865295,9.693249702453613,0.0010042569160299579,0.00765845806837602,0.028322441473910682,3.859992027282715,2019-08-07 13:53:37:420,116.87028078749887,111.68051161938881,0,-17.242979049682617,34.63589859008789,-52.32869338989258
-0.3048253059387207,0.5402363538742065,9.930330276489258,0.009794834971715925,0.00019978586194656375,0.03311730281081402,3.8699958324432373,2019-08-07 13:53:37:430,118.09759851798738,112.97912004806861,0,-17.242979049682617,34.63589859008789,-52.32869338989258
-0.23298279941082,0.34147214889526367,9.990199089050293,-0.005388890341167176,-0.004062312325772837,0.025925011845756313,3.880007266998291,2019-08-07 13:53:37:440,119.31121092772644,114.28341399030921,0,-17.242979049682617,34.63589859008789,-52.32869338989258
-0.3263780474662781,0.34865638613700867,10.057251930236816,0.00047149462834221814,-0.011787365285934675,0.012872336073735658,3.889991283416748,2019-08-07 13:53:37:450,120.49442050097869,115.5577716509691,0,-17.242979049682617,34.63589859008789,-52.32869338989258
-0.3191937804222107,0.36781439185142517,9.781855583190918,0.0028689248741731116,-0.004328693453362062,0.0075447130018025145,3.8999898433685303,2019-08-07 13:53:37:460,121.64958294790985,116.80193746927552,0,-17.242979049682617,34.63589859008789,-52.32869338989258
-0.28806203603744507,0.3390774130821228,9.721986770629883,-0.0019259356825072562,0.0041955028895674495,-0.0012458645987533845,3.9099929332733154,2019-08-07 13:53:37:470,122.78029129491685,118.02703012614516,0,-17.242979049682617,34.63589859008789,-52.32869338989258
-0.10606107115745544,0.3055509030818939,9.875250816345215,0.005266355282550457,0.0012653104860859794,-0.016163208393935775,3.9199934005737305,2019-08-07 13:53:37:480,123.91166820362953,119.22808777883306,0,-17.242979049682617,34.63589859008789,-52.32869338989258
-0.07971882075071335,0.41570937633514404,9.839329719543457,0.007397404303264255,-0.0037959311981836125,-0.030814171971789078,3.9300122261047363,2019-08-07 13:53:37:490,125.02628619073968,120.390978682652,0,-17.242979049682617,34.63589859008789,-52.32869338989258
-0.07971882075071335,0.3773933947086334,9.760302543640137,-0.004323365830810277,-0.008324410627274756,-0.03800646293684679,3.9399895668029785,2019-08-07 13:53:37:500,126.1210647814642,121.54129508122773,0,-17.242979049682617,34.63589859008789,-52.32869338989258
-0.09169257432222366,0.3654196560382843,9.659723281860352,-0.008319083264797297,0.0033963595067997765,-0.051591900964045895,3.949990749359131,2019-08-07 13:53:37:510,127.18585921065821,122.6718124701802,0,-17.242979049682617,34.63589859008789,-52.32869338989258
-0.12761381268501282,0.4372621476650238,9.767487525939941,-0.0061880337239348495,0.005527408527513573,-0.062247146067614875,3.9599921703338623,2019-08-07 13:53:37:520,128.2240672313392,123.77058619093388,0,-17.242979049682617,34.63589859008789,-52.32869338989258
-0.19227205216884613,0.45402538776397705,9.805803298950195,-0.011249275668278767,-0.00859079175486398,-0.07503344019189766,3.96999192237854,2019-08-07 13:53:37:530,129.24194326724987,124.84847078793027,0,-17.093040466308594,33.88620376586914,-53.07838821411133
-0.03900807723402977,0.3654196560382843,9.71719741821289,-0.006987177626851173,0.0041955028895674495,-0.07796363311552779,3.98000431060791,2019-08-07 13:53:37:540,130.25014565100741,125.91235713920395,0,-17.093040466308594,33.88620376586914,-53.07838821411133
-0.07732407003641129,0.4396568834781647,9.8034086227417,-0.011515657316016642,0.0012653104860859794,-0.09261459773367837,3.9899885654449463,2019-08-07 13:53:37:550,131.23539520160068,126.94920897822777,0,-17.093040466308594,33.88620376586914,-53.07838821411133
0.2818883955478668,0.2887876629829407,9.58548641204834,-0.0032578413204533796,-0.003263168943005164,-0.0987413662689738,3.9999918937683105,2019-08-07 13:53:37:560,125.0462093585987,127.97754143862088,0,-17.093040466308594,33.88620376586914,-53.07838821411133
-0.03661332651972771,0.5426311492919922,9.62619686126709,0.010327597226894376,0.006592933558019122,-0.10486812648189081,4.009993553161621,2019-08-07 13:53:37:570,126.13722415465287,128.94766345400288,0,-17.093040466308594,33.88620376586914,-53.07838821411133
0.03043966367840767,0.06128643453121185,9.74593448638916,-0.011515657316016642,-0.01604946436765957,-0.11738804624051682,4.020022630691528,2019-08-07 13:53:37:580,120.02709667636577,129.96798912005602,0,-17.093040466308594,33.88620376586914,-53.07838821411133
-0.08211357146501541,-0.25242578983306885,9.753118515014648,-0.01551137370970636,0.0017980727412644285,-0.10966298989938876,4.029994249343872,2019-08-07 13:53:37:590,121.215900514635,123.80696568185957,0,-17.093040466308594,33.88620376586914,-53.07838821411133
0.2890726327896118,0.34147214889526367,9.836935043334961,0.005799117537728906,-0.015516702112481122,-0.1248467115712313,4.039988040924072,2019-08-07 13:53:37:600,115.23395440904311,124.88780968607848,0,-17.093040466308594,33.88620376586914,-53.07838821411133
-0.19706155359745026,-0.3266630172729492,9.793828964233398,-0.012581181826373541,-0.02563918600116895,-0.13017434036479958,4.049990892410278,2019-08-07 13:53:37:610,116.5206219464821,118.83532648645382,0,-17.093040466308594,33.88620376586914,-53.07838821411133
-0.12282431870698929,-0.0656353011727333,9.611828804016113,-0.007786321009618847,0.002064453868853653,-0.12857605255896695,4.059992790222168,2019-08-07 13:53:37:620,117.77440786602851,112.87081766874444,0,-17.093040466308594,33.88620376586914,-53.07838821411133
-0.1683245599269867,0.3606301546096802,9.738750457763672,0.006065498665318131,0.018580084299534227,-0.1291088096126589,4.069989919662476,2019-08-07 13:53:37:630,118.98868597861906,114.16758215216716,0,-17.093040466308594,33.88620376586914,-53.07838821411133
0.08312415331602097,-0.07760904729366302,9.848908424377441,-0.011515657316016642,-0.0005993576020943366,-0.12937519230069408,4.080007791519165,2019-08-07 13:53:37:640,113.01892062319172,108.29973767813667,0,-17.093040466308594,33.88620376586914,-53.07838821411133
0.4806526005268097,0.23849791288375854,9.587881088256836,0.004733593027372009,0.005527408527513573,-0.11845356867027912,4.089986085891724,2019-08-07 13:53:37:650,107.21284346118418,109.70259208957737,0,-17.093040466308594,33.88620376586914,-53.07838821411133
0.12862439453601837,0.21933990716934204,9.604643821716309,0.01405693301314352,-0.008324410627274756,-0.11685528086444646,4.099986553192139,2019-08-07 13:53:37:660,101.48860602113444,111.0744823640146,0,-17.093040466308594,33.88620376586914,-53.07838821411133
0.1334138959646225,-0.25242578983306885,9.772276878356934,-0.018707947240777054,-0.0016648821774698163,-0.10167155919260393,4.109991073608398,2019-08-07 13:53:37:670,95.87541254521238,105.29309529492123,0,-17.093040466308594,33.88620376586914,-53.07838821411133
0.08551890403032303,0.01818094030022621,9.812987327575684,-0.0024586979376857053,0.002064453868853653,-0.08702059457445332,4.119992733001709,2019-08-07 13:53:37:680,90.36673116593991,106.7864910893814,0,-17.093040466308594,33.88620376586914,-53.07838821411133
0.15736140310764313,0.3726038932800293,9.808197975158691,0.012725026855048746,-0.014451176561826921,-0.06810753191487512,4.1300060749053955,2019-08-07 13:53:37:690,84.98590502232474,108.20009535493782,0,-17.093040466308594,33.88620376586914,-53.07838821411133
0.08791365474462509,0.21694517135620117,9.810592651367188,0.0007378757884407334,-0.02057794405682504,-0.05319018876987854,4.1399900913238525,2019-08-07 13:53:37:700,79.70799132510479,109.6103438785628,0,-17.093040466308594,33.88620376586914,-53.07838821411133
0.03762391209602356,0.12594467401504517,9.731565475463867,0.0020697814914054373,0.002597216124032102,-0.04093665586047691,4.149986743927002,2019-08-07 13:53:37:710,74.51680393886406,111.00214574562415,0,-17.093040466308594,33.88620376586914,-53.07838821411133
0.13820339739322662,0.3247089087963104,9.8034086227417,0.012725026855048746,0.010322268824119614,-0.018294258454946873,4.159992456436157,2019-08-07 13:53:37:720,69.43682206603943,112.33701247054803,0,-17.093040466308594,33.88620376586914,-53.07838821411133
-0.0629555732011795,0.52107834815979,9.839329719543457,0.007397404303264255,-0.001132119922291367,-0.0020450079815210586,4.169991970062256,2019-08-07 13:53:37:730,71.64138939723115,113.6254892018841,0,-17.093040466308594,33.88620376586914,-53.07838821411133
0.34415188431739807,0.11157617717981339,9.846513748168945,0.0071310231756750294,-0.0048614559686148365,0.01846634027325802,4.1800079345703125,2019-08-07 13:53:37:740,66.65133100926477,114.93598453164857,0,-17.093040466308594,33.88620376586914,-53.07838821411133
1.816922903060913,0.9736860394477844,9.714802742004395,-0.013380324688992563,0.013785224002928184,0.07573828738627916,4.189993858337402,2019-08-07 13:53:37:750,61.922443495051986,116.13029783629837,0,-17.093040466308594,33.88620376586914,-53.07838821411133
2.197688102722168,1.7950851917266846,8.10313606262207,0.25166890610481296,0.06626231081934328,-0.0316133158747054,4.199994087219238,2019-08-07 13:53:37:760,57.350275847971794,117.01655709569232,0,-17.093040466308594,33.88620376586914,-53.07838821411133
-0.7167222499847412,0.09960243105888367,9.3460111618042,-0.0056552714687564,0.0071256958131975705,0.053095887900154515,4.209991216659546,2019-08-07 13:53:37:770,59.7115646697726,118.26718866534394,0,-17.093040466308594,33.88620376586914,-53.07838821411133
1.7211329936981201,0.15947116911411285,10.105146408081055,-0.08610237824248602,-0.017114988878016466,0.091987531487884,4.219992160797119,2019-08-07 13:53:37:780,55.12026430262595,119.53211342170019,0,-14.993894577026367,34.485958099365234,-52.17875289916992
-0.40779954195022583,1.0239758491516113,9.480116844177246,0.10515928489044213,0.04948029718047888,0.022994818922126188,4.230003595352173,2019-08-07 13:53:37:790,57.54078145074272,120.55906106790871,0,-14.993894577026367,34.485958099365234,-52.17875289916992
-0.2665092945098877,0.6432105898857117,9.647749900817871,-0.0032578413204533796,0.002597216124032102,0.08186505592157457,4.2399866580963135,2019-08-07 13:53:37:800,59.95686325189402,121.67342130118067,0,-14.993894577026367,34.485958099365234,-52.17875289916992
0.47586309909820557,0.46120962500572205,9.729170799255371,-0.009384607255005544,-0.017381369485457043,0.07147618934485157,4.249990463256836,2019-08-07 13:53:37:810,55.2234925192272,122.79094303439184,0,-14.993894577026367,34.485958099365234,-52.17875289916992
-0.6185374855995178,0.4324726462364197,9.571117401123047,0.03083894561171062,0.017248179181736756,0.05203036547039222,4.260004758834839,2019-08-07 13:53:37:820,57.63537155628641,123.86604018874654,0,-14.993894577026367,34.485958099365234,-52.17875289916992
-0.3048253059387207,0.4252883791923523,9.726776123046875,-0.007519939882029623,0.008191220323554469,0.06108732276812855,4.270008325576782,2019-08-07 13:53:37:830,60.04216327755812,124.94287181568734,0,-14.993894577026367,34.485958099365234,-52.17875289916992
-0.3431412875652313,0.3534458875656128,9.872856140136719,0.006065498665318131,0.011920556629952265,0.04483807450533451,4.279989719390869,2019-08-07 13:53:37:840,62.39482763781709,125.9996089551023,0,-14.993894577026367,34.485958099365234,-52.17875289916992
-0.4509050250053406,0.35584065318107605,9.937514305114746,0.0020697814914054373,-0.005127837096204061,0.03391644671373035,4.2899861335754395,2019-08-07 13:53:37:850,64.69785016155551,127.03743980606352,0,-14.993894577026367,34.485958099365234,-52.17875289916992
-0.2545355558395386,0.3773933947086334,9.841724395751953,-0.0013931734273288073,-0.006193361606560959,0.022728438314685614,4.300000190734863,2019-08-07 13:53:37:860,66.97774551327375,128.053554307786,0,-14.993894577026367,34.485958099365234,-52.17875289916992
-0.4317470192909241,0.5354468822479248,9.683670997619629,-0.0029914601928641544,0.008723982578732917,0.029920729279743333,4.309989929199219,2019-08-07 13:53:37:870,69.18224022670687,129.03086363765422,0,-14.993894577026367,34.485958099365234,-52.17875289916992
0.1860983967781067,0.6982898712158203,9.554354667663574,0.012458646247608172,0.0199119914979263,0.006479188491445616,4.320004224777222,2019-08-07 13:53:37:880,64.20971604593394,129.95963907139523,0,-14.993894577026367,34.485958099365234,-52.17875289916992
-0.1874825656414032,0.19060291349887848,9.690855026245117,0.009794834971715925,0.02444047014679447,-0.021757212593458142,4.32999587059021,2019-08-07 13:53:37:890,66.48964339283431,130.93241576018244,0,-14.993894577026367,34.485958099365234,-52.17875289916992
-0.15635080635547638,0.1307341754436493,9.863277435302734,-0.013113944081551988,-0.012320127541113125,-0.009770061331794384,4.339991569519043,2019-08-07 13:53:37:900,68.7486019687519,131.9059399323027,0,-14.993894577026367,34.485958099365234,-52.17875289916992
-0.1539560705423355,0.5378416180610657,9.616618156433105,0.004733593027372009,-0.004328693453362062,-0.020425307475660667,4.349991321563721,2019-08-07 13:53:37:910,70.95771659637018,132.8011408196002,0,-14.993894577026367,34.485958099365234,-52.17875289916992
-0.28806203603744507,0.32949841022491455,9.63817024230957,0.004999974154961233,0.011387794374773814,-0.02708483514524263,4.360000371932983,2019-08-07 13:53:37:920,73.09792374109975,133.7031480225412,0,-14.993894577026367,34.485958099365234,-52.17875289916992
-0.07492932677268982,0.12833942472934723,9.796224594116211,-0.011515657316016642,0.0004661670057904337,-0.026285691242326308,4.370009183883667,2019-08-07 13:53:37:930,75.22693857943761,134.62054511136037,0,-14.993894577026367,34.485958099365234,-52.17875289916992
-0.2401670515537262,0.1834186613559723,9.767487525939941,-0.004056984703221053,-0.005127837096204061,-0.028416740263040103,4.3799896240234375,2019-08-07 13:53:37:940,77.29710287606476,135.50889170983444,0,-14.993894577026367,34.485958099365234,-52.17875289916992
-0.2856673002243042,0.16186591982841492,9.731565475463867,-0.005921652596345625,-0.00965631626522088,-0.03507627001321667,4.389988422393799,2019-08-07 13:53:37:950,79.32295381048252,136.38298012621087,0,-14.993894577026367,34.485958099365234,-52.17875289916992
-0.22340381145477295,0.03733893856406212,9.765092849731445,-0.011515657316016642,0.00019978586194656375,-0.03560903122809782,4.399997234344482,2019-08-07 13:53:37:960,81.31017100406119,137.257410613383,0,-14.993894577026367,34.485958099365234,-52.17875289916992
-0.18987730145454407,0.13552367687225342,9.769882202148438,-0.011782037923457216,-0.0008657387296835611,-0.035875413916133,4.41002631187439,2019-08-07 13:53:37:970,83.26218708461114,138.10300259856461,0,-14.993894577026367,34.485958099365234,-52.17875289916992
-0.12282431870698929,0.3462616503238678,9.796224594116211,-0.0024586979376857053,-0.008857173402601856,-0.028949503558515853,4.420165538787842,2019-08-07 13:53:37:980,85.18761922560907,138.901855143782,0,-14.993894577026367,34.485958099365234,-52.17875289916992
-0.1419823169708252,0.16186591982841492,9.841724395751953,-0.0032578413204533796,-0.01205374693367255,-0.0348098894057761,4.429991006851196,2019-08-07 13:53:37:990,87.073986393855,139.70677032034845,0,-14.993894577026367,34.485958099365234,-52.17875289916992
-0.04619232565164566,0.05410218611359596,9.714802742004395,-0.008585464392386522,-0.006992504989328633,-0.04200217829023921,4.440133094787598,2019-08-07 13:53:38:000,88.93104013234938,140.51114254623684,0,-14.993894577026367,34.485958099365234,-52.17875289916992
0.03283441439270973,0.1498921662569046,9.63817024230957,-0.0008604111071317767,0.002064453868853653,-0.03907198536660909,4.450412273406982,2019-08-07 13:53:38:011,83.55513156226527,141.28359653809324,0,-14.993894577026367,34.485958099365234,-52.17875289916992
0.054387159645557404,0.20736616849899292,9.750723838806152,0.00047149462834221814,-0.0005993576020943366,-0.04040389464559577,4.460005760192871,2019-08-07 13:53:38:020,78.29074336018707,142.03330440293146,0,-14.993894577026367,34.485958099365234,-52.17875289916992
-0.012665831483900547,0.1834186613559723,9.659723281860352,-0.00272507906527493,-0.008324410627274756,-0.03907198536660909,4.470005750656128,2019-08-07 13:53:38:030,80.32810010982959,142.7724124302771,0,-17.842735290527344,34.03614044189453,-52.628570556640625
-0.13000856339931488,0.18581341207027435,9.78664493560791,-0.004856128085988727,-0.009922697912958753,-0.04093665586047691,4.480149745941162,2019-08-07 13:53:38:040,82.31196814523521,143.497975926265,0,-17.842735290527344,34.03614044189453,-52.628570556640625
-0.019850080832839012,0.08762867748737335,9.753118515014648,-0.008319083264797297,-0.0013985010498805918,-0.04146941707535806,4.490490674972534,2019-08-07 13:53:38:051,84.26420858350502,144.22255140364678,0,-17.842735290527344,34.03614044189453,-52.628570556640625
-0.027034329250454903,0.2552611529827118,9.769882202148438,0.0015370192362269886,-0.006459742734150184,-0.04653065901970198,4.499997138977051,2019-08-07 13:53:38:060,86.17920167105208,144.90734700490634,0,-17.842735290527344,34.03614044189453,-52.628570556640625
-0.23537755012512207,0.1690501719713211,9.990199089050293,-6.126766340918298e-05,-0.00566059935138251,-0.04333408340803668,4.509997844696045,2019-08-07 13:53:38:070,88.03180253324165,145.58984559197285,0,-17.842735290527344,34.03614044189453,-52.628570556640625
-0.2856673002243042,0.16426067054271698,9.875250816345215,-0.0005940299795425521,-0.00805802949968553,-0.05132551827601072,4.520018815994263,2019-08-07 13:53:38:080,89.84256119824963,146.25932401764842,0,-17.842735290527344,34.03614044189453,-52.628570556640625
-0.4485102891921997,0.2935771644115448,9.92314624786377,-0.002192316810096481,-0.008324410627274756,-0.04946085194333209,4.530072212219238,2019-08-07 13:53:38:090,91.59865075800514,146.9014829645496,0,-17.842735290527344,34.03614044189453,-52.628570556640625
-0.3311675488948822,0.29118239879608154,9.85609245300293,0.00020511348449834825,-0.006726123861739408,-0.05105913974916475,4.539993762969971,2019-08-07 13:53:38:100,93.33193620985277,147.52949464912714,0,-17.842735290527344,34.03614044189453,-52.628570556640625
-0.38624677062034607,0.3247089087963104,9.860882759094238,0.001803400363816213,-0.00805802949968553,-0.05612038169350867,4.550052881240845,2019-08-07 13:53:38:110,95.02498669268658,148.1401659496713,0,-17.842735290527344,34.03614044189453,-52.628570556640625
