ACCELEROMETER X (m/s²),ACCELEROMETER Y (m/s²),ACCELEROMETER Z (m/s²),GYROSCOPE X (rad/s),GYROSCOPE Y (rad/s),GYROSCOPE Z (rad/s),Time since start in ms ,YYYY-MO-DD HH-MI-SS_SSS,Pitch (Deg),Roll (Deg),Heading (Deg),MagX,MagY,MagZ
0.025774691253900528,0.22625595331192017,9.639837265014648,-0.0019046251923001184,0.009045504664751694,-0.0003233867214026093,0.0,2019-08-06 15:03:51:223,-3.5969360945266433,3.5731092316634214,0,-52.628570556640625,11.245421409606934,-25.33968162536621
0.023379940539598465,0.24541394412517548,9.685338020324707,-0.0005727194893354142,0.011176553685465489,0.00020937558253977584,0.010000467300415039,2019-08-06 15:03:51:233,-7.128507105788286,7.072938835466559,0,-52.628570556640625,11.245421409606934,-25.33968162536621
0.018590440973639488,0.22865070402622223,9.637442588806152,0.0031566164919694735,0.015438651726893083,-0.0013889113292873795,0.01999807357788086,2019-08-06 15:03:51:243,-10.592393224200592,10.50252601633823,0,-52.628570556640625,11.245421409606934,-25.33968162536621
0.006616693455725908,0.3100721836090088,9.675758361816406,-0.002970149702657017,0.010377409782549165,0.0026068058446253144,0.03000164031982422,2019-08-06 15:03:51:253,-13.985590713991431,13.857434042676116,0,-52.628570556640625,11.245421409606934,-25.33968162536621
0.02816944010555744,0.2813352048397064,9.637442588806152,0.0004928051185493561,0.012508459843560263,-0.001122530201698155,0.040030479431152344,2019-08-06 15:03:51:263,-17.30957323192879,17.146565904903863,0,-52.628570556640625,11.245421409606934,-25.33968162536621
0.025774691253900528,0.25978243350982666,9.618284225463867,0.002890235364380249,0.009844647527370716,-0.0021880547120550534,0.05000138282775879,2019-08-06 15:03:51:273,-20.565822668423976,20.371073672661815,0,-52.628570556640625,11.245421409606934,-25.33968162536621
0.025774691253900528,0.2549929618835449,9.647021293640137,0.0002264239747054862,0.006914455123889247,0.0020740435894468653,0.05999755859375,2019-08-06 15:03:51:283,-23.755325563627945,23.53324297736362,0,-52.628570556640625,11.245421409606934,-25.33968162536621
0.025774691253900528,0.25978243350982666,9.637442588806152,-0.003502911957835466,0.01357398435391716,-0.0024544358396442778,0.06999635696411133,2019-08-06 15:03:51:293,-26.88477524346643,26.633663470491328,0,-52.628570556640625,11.245421409606934,-25.33968162536621
0.0473274365067482,0.2502034604549408,9.589548110961914,-0.002703768575067792,0.010377409782549165,-5.7005565367755386e-05,0.0800027847290039,2019-08-06 15:03:51:303,-29.947254977472557,29.672617731352677,0,-52.628570556640625,11.245421409606934,-25.33968162536621
0.025774691253900528,0.2238612025976181,9.647021293640137,-3.9957173202045016e-05,0.011176553685465489,0.0028731869722145387,0.08998942375183105,2019-08-06 15:03:51:313,-32.951515488939464,32.65260133650103,0,-52.628570556640625,11.245421409606934,-25.33968162536621
0.02098519168794155,0.2645719349384308,9.575179100036621,-0.0019046251923001184,0.012774840451000838,-0.001655292456876604,0.10000181198120117,2019-08-06 15:03:51:323,-35.89715570882298,35.56896532032051,0,-53.978023529052734,11.69523811340332,-26.08937644958496
0.006616693455725908,0.26696670055389404,9.594337463378906,-3.9957173202045016e-05,0.006914455123889247,0.00020937558253977584,0.11083316802978516,2019-08-06 15:03:51:334,-38.78262754659278,38.42573293023989,0,-53.978023529052734,11.69523811340332,-26.08937644958496
-0.0005675556603819132,0.25259819626808167,9.67336368560791,0.0012919485988449018,0.009844647527370716,-0.0013889113292873795,0.11999177932739258,2019-08-06 15:03:51:343,-34.41210488585769,41.22663766391045,0,-53.978023529052734,11.69523811340332,-26.08937644958496
0.025774691253900528,0.29809844493865967,9.635047912597656,0.0031566164919694735,0.008779123017013819,-0.000856149009090349,0.13000273704528809,2019-08-06 15:03:51:353,-37.32573222687718,43.964888391857805,0,-53.978023529052734,11.69523811340332,-26.08937644958496
0.011406192556023598,0.2885194420814514,9.575179100036621,0.0012919485988449018,0.011442934292906064,-0.0003233867214026093,0.13997459411621094,2019-08-06 15:03:51:363,-40.184259649368215,46.65034893653596,0,-53.978023529052734,11.69523811340332,-26.08937644958496
0.04253793880343437,0.3076774477958679,9.630258560180664,-3.9957173202045016e-05,0.010111029175108591,-0.004052722605179625,0.14999985694885254,2019-08-06 15:03:51:373,-42.98120452248905,49.28076600458291,0,-53.978023529052734,11.69523811340332,-26.08937644958496
-0.010146554559469223,0.2885194420814514,9.675758361816406,0.0026238542367910244,0.012242078195822388,0.0020740435894468653,0.1600029468536377,2019-08-06 15:03:51:383,-38.529658138559356,51.85951724022367,0,-53.978023529052734,11.69523811340332,-26.08937644958496
0.02098519168794155,0.27894043922424316,9.656600952148438,-3.9957173202045016e-05,0.009045504664751694,-0.0053846282431257485,0.17000365257263184,2019-08-06 15:03:51:393,-41.36165413625405,54.389257633144716,0,-53.978023529052734,11.69523811340332,-26.08937644958496
0.030564190819859505,0.28612470626831055,9.64462661743164,0.0015583297264341264,0.012242078195822388,-0.0003233867214026093,0.18003535270690918,2019-08-06 15:03:51:403,-44.13768531596553,56.86660908587944,0,-53.978023529052734,11.69523811340332,-26.08937644958496
0.013800942339003086,0.2957036793231964,9.627863883972168,-0.004035674213013915,0.01064379143028704,0.0012749002066791914,0.19000720977783203,2019-08-06 15:03:51:413,-46.859248667103984,59.29635273876399,0,-53.978023529052734,11.69523811340332,-26.08937644958496
-0.024515053257346153,0.2430191934108734,9.694916725158691,-0.0024373874474785677,0.012242078195822388,0.0007421378864821609,0.1999983787536621,2019-08-06 15:03:51:423,-42.33182914717079,61.683074801108255,0,-53.978023529052734,11.69523811340332,-26.08937644958496
0.011406192556023598,0.2645719349384308,9.647021293640137,0.0012919485988449018,0.01064379143028704,0.0007421378864821609,0.20999789237976074,2019-08-06 15:03:51:433,-45.089813870898155,64.01726877136053,0,-53.978023529052734,11.69523811340332,-26.08937644958496
0.0473274365067482,0.2885194420814514,9.572784423828125,0.001824710854023351,0.013307602706179285,0.004737855125413436,0.2200021743774414,2019-08-06 15:03:51:443,-47.78982768240727,66.30137145319243,0,-52.478633880615234,13.19462776184082,-26.08937644958496
-0.005357054993510246,0.2909142076969147,9.682943344116211,-0.0005727194893354142,0.014905889471714633,0.00047575672638364575,0.22997665405273438,2019-08-06 15:03:51:453,-43.24301337961104,68.5412472665471,0,-52.478633880615234,13.19462776184082,-26.08937644958496
0.02098519168794155,0.24541394412517548,9.615889549255371,-0.0019046251923001184,0.011709315940643939,-0.001122530201698155,0.23996973037719727,2019-08-06 15:03:51:463,-45.98222254526063,70.74225164721179,0,-52.478633880615234,13.19462776184082,-26.08937644958496
0.011406192556023598,0.2693614363670349,9.62067985534668,0.0023574731092018,0.009844647527370716,-0.0013889113292873795,0.24999356269836426,2019-08-06 15:03:51:473,-48.666760437766094,72.89400458081214,0,-52.478633880615234,13.19462776184082,-26.08937644958496
0.052116937935352325,0.2957036793231964,9.637442588806152,-0.0005727194893354142,0.011975696548084513,-0.0021880547120550534,0.2600231170654297,2019-08-06 15:03:51:483,-51.29397266818205,75.00129815454238,0,-52.478633880615234,13.19462776184082,-26.08937644958496
0.025774691253900528,0.2645719349384308,9.658995628356934,-3.9957173202045016e-05,0.01064379143028704,-5.7005565367755386e-05,0.2700202465057373,2019-08-06 15:03:51:493,-53.87101014531364,77.0699144103624,0,-52.478633880615234,13.19462776184082,-26.08937644958496
0.08803818374872208,0.2502034604549408,9.647021293640137,0.0015583297264341264,0.013307602706179285,0.00047575672638364575,0.28004026412963867,2019-08-06 15:03:51:503,-56.390619828671376,79.097925765114,0,-52.478633880615234,13.19462776184082,-26.08937644958496
0.02816944010555744,0.2573876976966858,9.651811599731445,-0.0019046251923001184,0.011709315940643939,-0.0019216735844658289,0.2900199890136719,2019-08-06 15:03:51:513,-58.8660244469446,81.08648329873404,0,-52.478633880615234,13.19462776184082,-26.08937644958496
0.052116937935352325,0.25978243350982666,9.570389747619629,-3.9957173202045016e-05,0.010111029175108591,0.00020937558253977584,0.3000175952911377,2019-08-06 15:03:51:523,-61.28813974116811,83.03367851484516,0,-52.478633880615234,13.19462776184082,-26.08937644958496
0.02816944010555744,0.23344020545482635,9.62067985534668,-0.002970149702657017,0.010910172037727614,0.00047575672638364575,0.31001758575439453,2019-08-06 15:03:51:533,-63.66514774533653,84.94687315705744,0,-52.478633880615234,13.19462776184082,-26.08937644958496
0.013800942339003086,0.24780869483947754,9.649415969848633,-0.0024373874474785677,0.01064379143028704,0.0020740435894468653,0.3200204372406006,2019-08-06 15:03:51:543,-65.99618404037643,86.81988264002348,0,-52.478633880615234,13.19462776184082,-26.08937644958496
0.006616693455725908,0.23822970688343048,9.635047912597656,-0.0003063383292368989,0.008779123017013819,0.0018076624618576407,0.330014705657959,2019-08-06 15:03:51:553,-68.28040006332087,88.65532953153917,0,-52.478633880615234,13.19462776184082,-26.08937644958496
0.025774691253900528,0.2909142076969147,9.623074531555176,-0.0011054818095324445,0.014639508864274061,0.0020740435894468653,0.34000062942504883,2019-08-06 15:03:51:563,-70.51993131304644,90.44821128104394,0,-52.478633880615234,13.19462776184082,-26.08937644958496
-0.0029623054433614016,0.2885194420814514,9.599126815795898,0.0012919485988449018,0.014373127216536186,0.006069760763359559,0.35001564025878906,2019-08-06 15:03:51:573,-65.51796892395907,92.20408830114755,0,-53.07838821411133,12.594871520996094,-25.489622116088867
-0.04367304965853691,0.19991371035575867,9.647021293640137,-0.004302055340603139,0.007979980154394795,-0.0021880547120550534,0.3600139617919922,2019-08-06 15:03:51:583,-60.61727718275164,93.93867849705411,0,-53.07838821411133,12.594871520996094,-25.489622116088867
0.02816944010555744,0.2645719349384308,9.575179100036621,0.0034229976195586987,0.009844647527370716,-0.001655292456876604,0.37003183364868164,2019-08-06 15:03:51:593,-63.007098088650565,95.62632472486497,0,-53.07838821411133,12.594871520996094,-25.489622116088867
0.023379940539598465,0.2621771991252899,9.654206275939941,0.0010255674062370958,0.006648073996300022,0.0010085190140713856,0.3800232410430908,2019-08-06 15:03:51:603,-65.34791070405096,97.28211113446542,0,-53.07838821411133,12.594871520996094,-25.489622116088867
0.02816944010555744,0.2645719349384308,9.587152481079102,-0.0037692930854246903,0.01064379143028704,-0.0027208169672335025,0.39002275466918945,2019-08-06 15:03:51:613,-67.643561698176,98.90697001653119,0,-53.07838821411133,12.594871520996094,-25.489622116088867
-0.024515053257346153,0.2813352048397064,9.666179656982422,0.0023574731092018,0.010377409782549165,0.001541281334268416,0.40003061294555664,2019-08-06 15:03:51:623,-62.69942817257472,100.4941632735859,0,-53.07838821411133,12.594871520996094,-25.489622116088867
-0.0005675556603819132,0.27894043922424316,9.704495429992676,0.0031566164919694735,0.011975696548084513,0.006069760763359559,0.410020112991333,2019-08-06 15:03:51:633,-57.85222390340058,102.0495809604929,0,-53.07838821411133,12.594871520996094,-25.489622116088867
0.03295893967151642,0.2645719349384308,9.635047912597656,0.004754903517579147,0.011975696548084513,0.0023404247170360896,0.4199826717376709,2019-08-06 15:03:51:643,-60.29795872831644,103.57447129947258,0,-53.07838821411133,12.594871520996094,-25.489622116088867
-0.005357054993510246,0.2621771991252899,9.60391616821289,-0.0005727194893354142,0.01357398435391716,-0.0024544358396442778,0.42999792098999023,2019-08-06 15:03:51:653,-55.500272140651816,105.07202937573629,0,-53.07838821411133,12.594871520996094,-25.489622116088867
0.00422194367274642,0.2645719349384308,9.668574333190918,-0.002970149702657017,0.014373127216536186,-0.0032535792224119516,0.4399838447570801,2019-08-06 15:03:51:663,-57.997825445945075,106.54090503816236,0,-53.07838821411133,12.594871520996094,-25.489622116088867
0.04253793880343437,0.27175620198249817,9.62067985534668,-0.0013718629371216693,0.012242078195822388,-0.0027208169672335025,0.4501016139984131,2019-08-06 15:03:51:673,-60.43975715578145,107.97850613331565,0,-53.07838821411133,12.594871520996094,-25.489622116088867
0.04014318808913231,0.23344020545482635,9.678153038024902,0.0002264239747054862,0.012508459843560263,0.004471473997824211,0.45999860763549805,2019-08-06 15:03:51:683,-62.8331601309146,109.39117568431448,0,-53.07838821411133,12.594871520996094,-25.489622116088867
0.030564190819859505,0.25978243350982666,9.642231941223145,0.0020910919816125757,0.009578266919930143,0.0031395680998037635,0.4700276851654053,2019-08-06 15:03:51:693,-65.17825841049651,110.77130865142112,0,-52.32869338989258,11.245421409606934,-25.939437866210938
0.02816944010555744,0.25978243350982666,9.596732139587402,-0.0024373874474785677,0.01064379143028704,-5.7005565367755386e-05,0.4799814224243164,2019-08-06 15:03:51:703,-67.47727845332996,112.12623250718713,0,-52.32869338989258,11.245421409606934,-25.939437866210938
0.04972218722105026,0.2837299406528473,9.637442588806152,0.0010255674062370958,0.009578266919930143,0.004205092610160662,0.4900026321411133,2019-08-06 15:03:51:713,-69.72721043737377,113.44940433599706,0,-52.32869338989258,11.245421409606934,-25.939437866210938
0.04253793880343437,0.2549929618835449,9.613494873046875,-0.0013718629371216693,0.009578266919930143,-0.0005897678815011245,0.5000066757202148,2019-08-06 15:03:51:723,-71.93297615548138,114.75079916871503,0,-52.32869338989258,11.245421409606934,-25.939437866210938
0.03295893967151642,0.2765457034111023,9.647021293640137,-0.0011054818095324445,0.008779123017013819,-0.004052722605179625,0.5099809169769287,2019-08-06 15:03:51:733,-74.09531840783113,116.0235619925212,0,-52.32869338989258,11.245421409606934,-25.939437866210938
0.044932689517736435,0.27175620198249817,9.649415969848633,-0.0003063383292368989,0.011442934292906064,0.0018076624618576407,0.5200259685516357,2019-08-06 15:03:51:743,-76.21453023897372,117.27099967925945,0,-52.32869338989258,11.245421409606934,-25.939437866210938
0.025774691253900528,0.2885194420814514,9.589548110961914,-0.0013718629371216693,0.010111029175108591,-0.0019216735844658289,0.5299811363220215,2019-08-06 15:03:51:753,-78.29281153756888,118.49187992088036,0,-52.32869338989258,11.245421409606934,-25.939437866210938
0.044932689517736435,0.2813352048397064,9.637442588806152,0.0007591862786478714,0.010377409782549165,0.004205092610160662,0.5400068759918213,2019-08-06 15:03:51:763,-80.32745463812762,119.68817299365449,0,-52.32869338989258,11.245421409606934,-25.939437866210938
0.044932689517736435,0.2837299406528473,9.630258560180664,-0.0008391006169246387,0.012774840451000838,0.00047575672638364575,0.5500085353851318,2019-08-06 15:03:51:773,-82.32273323735505,120.86112917596748,0,-52.32869338989258,11.245421409606934,-25.939437866210938
0.052116937935352325,0.24062444269657135,9.60391616821289,-0.0005727194893354142,0.011176553685465489,0.0028731869722145387,0.5599765777587891,2019-08-06 15:03:51:783,-84.27631573344867,122.01552243633473,0,-52.32869338989258,11.245421409606934,-25.939437866210938
-0.007751804776489735,0.29330894351005554,9.651811599731445,-0.0005727194893354142,0.008779123017013819,-5.7005565367755386e-05,0.5700254440307617,2019-08-06 15:03:51:793,-78.99666330911222,123.14072262027088,0,-52.32869338989258,11.245421409606934,-25.939437866210938
0.011406192556023598,0.2885194420814514,9.649415969848633,0.0004928051185493561,0.01410674660909561,0.0020740435894468653,0.5799815654754639,2019-08-06 15:03:51:803,-81.02326166528995,124.24337977547535,0,-52.32869338989258,11.245421409606934,-25.939437866210938
0.011406192556023598,0.2430191934108734,9.630258560180664,0.0023574731092018,0.012242078195822388,0.001541281334268416,0.5899996757507324,2019-08-06 15:03:51:813,-83.00832555567992,125.32827506602167,0,-52.32869338989258,11.245421409606934,-25.939437866210938
0.006616693455725908,0.27175620198249817,9.584757804870605,0.005820428027936045,0.012774840451000838,0.001541281334268416,0.6000075340270996,2019-08-06 15:03:51:823,-84.95454667140652,126.38595744343124,0,-52.17875289916992,11.395359992980957,-26.689132690429688
-0.012541304342448711,0.2573876976966858,9.611100196838379,0.0007591862786478714,0.006648073996300022,0.001541281334268416,0.6099777221679688,2019-08-06 15:03:51:833,-79.66067277219663,127.42713270668317,0,-52.17875289916992,11.395359992980957,-26.689132690429688
0.04253793880343437,0.24780869483947754,9.635047912597656,-3.9957173202045016e-05,0.010377409782549165,0.00020937558253977584,0.6200122833251953,2019-08-06 15:03:51:843,-81.66824726708438,128.44914667645978,0,-52.17875289916992,11.395359992980957,-26.689132690429688
0.00901144277304411,0.2645719349384308,9.658995628356934,-0.005900342106138487,0.012242078195822388,-0.0019216735844658289,0.6299889087677002,2019-08-06 15:03:51:853,-83.64067107306686,129.45208882237648,0,-52.17875289916992,11.395359992980957,-26.689132690429688
0.00901144277304411,0.32683542370796204,9.682943344116211,0.0007591862786478714,0.009311885272192268,0.00020937558253977584,0.6400036811828613,2019-08-06 15:03:51:863,-85.57202753903258,130.42395589155385,0,-52.17875289916992,11.395359992980957,-26.689132690429688
0.030564190819859505,0.27175620198249817,9.587152481079102,-0.003236530830246241,0.010377409782549165,0.0023404247170360896,0.6499791145324707,2019-08-06 15:03:51:873,-87.46274636677317,131.3848163350724,0,-52.17875289916992,11.395359992980957,-26.689132690429688
0.00901144277304411,0.25978243350982666,9.654206275939941,-0.0016382440647108938,0.009578266919930143,-0.0013889113292873795,0.6600031852722168,2019-08-06 15:03:51:883,-89.31781294713771,132.32721439988478,0,-52.17875289916992,11.395359992980957,-26.689132690429688
0.00422194367274642,0.2430191934108734,9.642231941223145,0.001824710854023351,0.010111029175108591,-0.0021880547120550534,0.6699850559234619,2019-08-06 15:03:51:893,-91.13662197459769,133.25077228344404,0,-52.17875289916992,11.395359992980957,-26.689132690429688
0.025774691253900528,0.32444068789482117,9.666179656982422,-0.0005727194893354142,0.008779123017013819,0.003938711482571438,0.6800439357757568,2019-08-06 15:03:51:903,-92.9157924696342,134.1476326385749,0,-52.17875289916992,11.395359992980957,-26.689132690429688
0.037748441100120544,0.2621771991252899,9.647021293640137,-0.0011054818095324445,0.011975696548084513,0.0018076624618576407,0.6899895668029785,2019-08-06 15:03:51:913,-94.65968049516306,135.0341624412616,0,-52.17875289916992,11.395359992980957,-26.689132690429688
0.04014318808913231,0.24541394412517548,9.639837265014648,0.0015583297264341264,0.013307602706179285,-0.0013889113292873795,0.7000002861022949,2019-08-06 15:03:51:923,-96.36919518540118,135.9034364828336,0,-52.17875289916992,11.395359992980957,-26.689132690429688
0.011406192556023598,0.2549929618835449,9.711679458618164,-0.0011054818095324445,0.016237795629809405,0.0020740435894468653,0.7099802494049072,2019-08-06 15:03:51:933,-98.0495646567874,136.75590662094785,0,-52.17875289916992,11.395359992980957,-26.689132690429688
0.03295893967151642,0.2573876976966858,9.60391616821289,0.003689378747147923,0.01064379143028704,-0.005651009370714973,0.719994306564331,2019-08-06 15:03:51:943,-99.6906256753275,137.58801047963578,0,-53.228328704833984,12.44493293762207,-25.63956069946289
0.011406192556023598,0.26696670055389404,9.625469207763672,0.003689378747147923,0.009311885272192268,0.0023404247170360896,0.7299740314483643,2019-08-06 15:03:51:953,-101.3006732609474,138.40240855265407,0,-53.228328704833984,12.44493293762207,-25.63956069946289
0.018590440973639488,0.2765457034111023,9.656600952148438,-0.0019046251923001184,0.009844647527370716,0.003938711482571438,0.7399778366088867,2019-08-06 15:03:51:963,-102.87798359441497,139.20262247340236,0,-53.228328704833984,12.44493293762207,-25.63956069946289
0.05451168864965439,0.2837299406528473,9.623074531555176,0.0023574731092018,0.01357398435391716,0.0028731869722145387,0.7499873638153076,2019-08-06 15:03:51:973,-104.42156177594542,139.9834682726161,0,-53.228328704833984,12.44493293762207,-25.63956069946289
0.006616693455725908,0.22625595331192017,9.630258560180664,-0.0013718629371216693,0.015172271119452508,0.00020937558253977584,0.7599804401397705,2019-08-06 15:03:51:983,-105.94085652371625,140.75765116768852,0,-53.228328704833984,12.44493293762207,-25.63956069946289
0.023379940539598465,0.2621771991252899,9.577573776245117,-3.9957173202045016e-05,0.009844647527370716,0.001541281334268416,0.769986629486084,2019-08-06 15:03:51:993,-107.424773266782,141.51116004931944,0,-53.228328704833984,12.44493293762207,-25.63956069946289
0.04014318808913231,0.25978243350982666,9.594337463378906,-0.003502911957835466,0.01357398435391716,0.0026068058446253144,0.7799780368804932,2019-08-06 15:03:52:003,-108.87909848590222,142.2518820724542,0,-53.228328704833984,12.44493293762207,-25.63956069946289
-0.0149360541254282,0.30049318075180054,9.625469207763672,-0.0005727194893354142,0.011709315940643939,-0.0019216735844658289,0.7899911403656006,2019-08-06 15:03:52:013,-103.10987803760275,142.9714042266646,0,-53.228328704833984,12.44493293762207,-25.63956069946289
0.03295893967151642,0.3028879463672638,9.611100196838379,-0.0003063383292368989,0.011176553685465489,-0.000856149009090349,0.7999751567840576,2019-08-06 15:03:52:023,-104.65001644135315,143.6760469946674,0,-53.228328704833984,12.44493293762207,-25.63956069946289
0.02098519168794155,0.2549929618835449,9.649415969848633,-0.0013718629371216693,0.009844647527370716,-0.0021880547120550534,0.8099884986877441,2019-08-06 15:03:52:033,-106.16005915303226,144.3730227595203,0,-53.228328704833984,12.44493293762207,-25.63956069946289
0.025774691253900528,0.2549929618835449,9.639837265014648,0.0012919485988449018,0.012508459843560263,-0.0013889113292873795,0.8199882507324219,2019-08-06 15:03:52:043,-107.64081737352825,145.05453220417118,0,-53.228328704833984,12.44493293762207,-25.63956069946289
0.03295893967151642,0.27415093779563904,9.627863883972168,0.0007591862786478714,0.012508459843560263,0.006602523018538008,0.8299856185913086,2019-08-06 15:03:52:053,-109.09109987812954,145.72039455425536,0,-53.228328704833984,12.44493293762207,-25.63956069946289
0.05690643563866615,0.29809844493865967,9.623074531555176,-0.0011054818095324445,0.012508459843560263,0.003672330354982212,0.8399782180786133,2019-08-06 15:03:52:063,-110.50951982738206,146.37112071937167,0,-53.228328704833984,12.44493293762207,-25.63956069946289
0.018590440973639488,0.27894043922424316,9.594337463378906,-0.0005727194893354142,0.014639508864274061,0.006602523018538008,0.8499853610992432,2019-08-06 15:03:52:073,-111.90533498941114,147.0107137845269,0,-52.77851104736328,11.69523811340332,-25.489622116088867
0.0473274365067482,0.25259819626808167,9.618284225463867,-0.0011054818095324445,0.012508459843560263,0.0020740435894468653,0.8599791526794434,2019-08-06 15:03:52:083,-113.26860890047385,147.64103239518914,0,-52.77851104736328,11.69523811340332,-25.489622116088867
0.03295893967151642,0.20709794759750366,9.575179100036621,0.0004928051185493561,0.010377409782549165,0.0026068058446253144,0.870006799697876,2019-08-06 15:03:52:093,-114.60513536729285,148.26315355916753,0,-52.77851104736328,11.69523811340332,-25.489622116088867
0.06169593706727028,0.2885194420814514,9.649415969848633,0.0015583297264341264,0.009844647527370716,0.0018076624618576407,0.8799855709075928,2019-08-06 15:03:52:103,-115.91122208534492,148.86276444833499,0,-52.77851104736328,11.69523811340332,-25.489622116088867
0.03535369038581848,0.24780869483947754,9.670969009399414,0.0026238542367910244,0.011975696548084513,-0.0005897678815011245,0.8899743556976318,2019-08-06 15:03:52:113,-117.19552539031672,149.45468102942624,0,-52.77851104736328,11.69523811340332,-25.489622116088867
0.02098519168794155,0.2693614363670349,9.589548110961914,0.0031566164919694735,0.011709315940643939,-0.001122530201698155,0.8999934196472168,2019-08-06 15:03:52:123,-118.45569453265925,150.03163235828126,0,-52.77851104736328,11.69523811340332,-25.489622116088867
-0.03648880124092102,0.26696670055389404,9.567995071411133,-0.0005727194893354142,0.009311885272192268,0.0020740435894468653,0.9099750518798828,2019-08-06 15:03:52:133,-112.49616972699262,150.59935559821065,0,-52.77851104736328,11.69523811340332,-25.489622116088867
0.016195692121982574,0.2813352048397064,9.577573776245117,-0.0019046251923001184,0.010910172037727614,-5.7005565367755386e-05,0.9199855327606201,2019-08-06 15:03:52:143,-113.85044105664738,151.1547881783213,0,-52.77851104736328,11.69523811340332,-25.489622116088867
0.016195692121982574,0.24780869483947754,9.627863883972168,0.0020910919816125757,0.010377409782549165,0.0012749002066791914,0.9299755096435547,2019-08-06 15:03:52:153,-115.17732567499291,151.70103157990496,0,-52.77851104736328,11.69523811340332,-25.489622116088867
0.011406192556023598,0.2645719349384308,9.670969009399414,0.0004928051185493561,0.012774840451000838,-0.005651009370714973,0.9399876594543457,2019-08-06 15:03:52:163,-116.47960941010417,152.2353925238169,0,-52.77851104736328,11.69523811340332,-25.489622116088867
0.037748441100120544,0.2573876976966858,9.63265323638916,-0.005101198723370813,0.006914455123889247,-0.000856149009090349,0.9499790668487549,2019-08-06 15:03:52:173,-117.74940575202287,152.76293456667347,0,-52.77851104736328,11.69523811340332,-25.489622116088867
-0.0005675556603819132,0.2885194420814514,9.60391616821289,-0.0008391006169246387,0.010377409782549165,-0.0013889113292873795,0.9599876403808594,2019-08-06 15:03:52:183,-111.80031725350821,153.2737323557705,0,-52.77851104736328,11.69523811340332,-25.489622116088867
0.02816944010555744,0.27415093779563904,9.656600952148438,-0.002171006319889343,0.010910172037727614,0.003405949227392988,0.9699766635894775,2019-08-06 15:03:52:193,-113.16708746976052,153.7769515757932,0,-52.77851104736328,11.69523811340332,-25.489622116088867
0.0473274365067482,0.2813352048397064,9.594337463378906,0.0015583297264341264,0.013840364961357736,0.004471473997824211,0.9799857139587402,2019-08-06 15:03:52:203,-114.50587151487213,154.2669446418119,0,-52.77851104736328,11.69523811340332,-25.489622116088867
0.04253793880343437,0.29809844493865967,9.60391616821289,-0.0016382440647108938,0.00824636128198402,-5.7005565367755386e-05,0.9899768829345703,2019-08-06 15:03:52:213,-115.8153048274128,154.74696785323587,0,-52.77851104736328,11.69523811340332,-25.489622116088867
0.044932689517736435,0.29809844493865967,9.594337463378906,0.0026238542367910244,0.010910172037727614,0.003672330354982212,0.9999880790710449,2019-08-06 15:03:52:223,-117.09976506544318,155.21496112465525,0,-52.77851104736328,11.69523811340332,-25.489622116088867
0.023379940539598465,0.27894043922424316,9.613494873046875,0.0002264239747054862,0.011709315940643939,0.0028731869722145387,1.0099818706512451,2019-08-06 15:03:52:233,-118.36155359540571,155.6772948473006,0,-52.77851104736328,11.69523811340332,-25.489622116088867
0.006616693455725908,0.24780869483947754,9.625469207763672,-0.0013718629371216693,0.008779123017013819,-0.000856149009090349,1.0199840068817139,2019-08-06 15:03:52:243,-119.59846532254795,156.1350242147621,0,-52.77851104736328,11.69523811340332,-25.489622116088867
0.03295893967151642,0.2765457034111023,9.682943344116211,0.0004928051185493561,0.011442934292906064,-0.0024544358396442778,1.0299785137176514,2019-08-06 15:03:52:253,-120.8090172100183,156.579328618227,0,-52.77851104736328,11.69523811340332,-25.489622116088867
0.02816944010555744,0.29809844493865967,9.618284225463867,-3.9957173202045016e-05,0.009844647527370716,0.004205092610160662,1.0399820804595947,2019-08-06 15:03:52:263,-121.99501051601067,157.0122606164969,0,-52.77851104736328,11.69523811340332,-25.489622116088867
0.030564190819859505,0.25978243350982666,9.694916725158691,0.0063531902831144935,0.012242078195822388,-0.0003233867214026093,1.0499780178070068,2019-08-06 15:03:52:273,-123.15836882221748,157.4377512394257,0,-52.77851104736328,11.69523811340332,-25.489622116088867
0.0018271940061822534,0.2837299406528473,9.687732696533203,-0.0016382440647108938,0.009844647527370716,-0.0032535792224119516,1.0599865913391113,2019-08-06 15:03:52:283,-124.30051781116107,157.8563654075917,0,-52.77851104736328,11.69523811340332,-25.489622116088867
0.0473274365067482,0.24062444269657135,9.663784980773926,-0.002171006319889343,0.010377409782549165,-0.0027208169672335025,1.0699944496154785,2019-08-06 15:03:52:293,-125.41472697131408,158.27193112177054,0,-52.77851104736328,11.69523811340332,-25.489622116088867
0.02098519168794155,0.26696670055389404,9.625469207763672,-0.003502911957835466,0.011709315940643939,0.001541281334268416,1.0799875259399414,2019-08-06 15:03:52:303,-126.51050435399928,158.67668368143103,0,-52.77851104736328,11.69523811340332,-25.489622116088867
0.023379940539598465,0.25259819626808167,9.639837265014648,0.003689378747147923,0.008512742409573244,-0.000856149009090349,1.089980125427246,2019-08-06 15:03:52:313,-127.5822913865137,159.0710597445583,0,-52.77851104736328,11.69523811340332,-25.489622116088867
0.03535369038581848,0.27415093779563904,9.625469207763672,0.0012919485988449018,0.010377409782549165,0.00047575672638364575,1.0999839305877686,2019-08-06 15:03:52:323,-128.63226582678473,159.45628389907432,0,-52.478633880615234,10.795604705810547,-25.189743041992188
0.025774691253900528,0.27415093779563904,9.639837265014648,0.0023574731092018,0.015971413982071532,0.0020740435894468653,1.1099774837493896,2019-08-06 15:03:52:333,-129.66551875051542,159.8332550161686,0,-52.478633880615234,10.795604705810547,-25.189743041992188
0.00901144277304411,0.2813352048397064,9.606310844421387,0.002890235364380249,0.014373127216536186,0.0020740435894468653,1.1199941635131836,2019-08-06 15:03:52:343,-130.67921737349025,160.2014140807178,0,-52.478633880615234,10.795604705810547,-25.189743041992188
0.03535369038581848,0.24062444269657135,9.635047912597656,0.0007591862786478714,0.007979980154394795,0.003405949227392988,1.1299784183502197,2019-08-06 15:03:52:353,-131.66590205250853,160.56834818760507,0,-52.478633880615234,10.795604705810547,-25.189743041992188
0.013800942339003086,0.3028879463672638,9.608705520629883,-0.004302055340603139,0.011975696548084513,0.0020740435894468653,1.1399881839752197,2019-08-06 15:03:52:363,-132.6376690430164,160.92328930888033,0,-52.478633880615234,10.795604705810547,-25.189743041992188
0.04014318808913231,0.2502034604549408,9.649415969848633,-0.0005727194893354142,0.012774840451000838,-0.0013889113292873795,1.1499907970428467,2019-08-06 15:03:52:373,-133.58732341859533,161.27543895313204,0,-52.478633880615234,10.795604705810547,-25.189743041992188
0.030564190819859505,0.30528268218040466,9.67336368560791,-0.004834817595781589,0.00824636128198402,0.0028731869722145387,1.1599781513214111,2019-08-06 15:03:52:383,-134.51658076528204,161.6164894153122,0,-52.478633880615234,10.795604705810547,-25.189743041992188
0.03295893967151642,0.27894043922424316,9.599126815795898,-0.004568436468192365,0.011176553685465489,-0.0024544358396442778,1.1699941158294678,2019-08-06 15:03:52:393,-135.428600262343,161.95343917004388,0,-52.478633880615234,10.795604705810547,-25.189743041992188
0.02098519168794155,0.2645719349384308,9.587152481079102,0.0004928051185493561,0.01357398435391716,0.0023404247170360896,1.1799862384796143,2019-08-06 15:03:52:403,-136.3251357513778,162.28247864996874,0,-52.478633880615234,10.795604705810547,-25.189743041992188
0.03295893967151642,0.21667695045471191,9.666179656982422,0.003689378747147923,0.010111029175108591,0.004205092610160662,1.1899876594543457,2019-08-06 15:03:52:413,-137.20040393917603,162.6090746743666,0,-52.478633880615234,10.795604705810547,-25.189743041992188
0.00901144277304411,0.2693614363670349,9.694916725158691,-0.005101198723370813,0.007713599026805571,0.0007421378864821609,1.1999785900115967,2019-08-06 15:03:52:423,-138.05965797729112,162.9279252207368,0,-52.478633880615234,10.795604705810547,-25.189743041992188
0.011406192556023598,0.2573876976966858,9.63265323638916,-0.002171006319889343,0.010910172037727614,0.0012749002066791914,1.2099859714508057,2019-08-06 15:03:52:433,-138.90323848841743,163.2399746716117,0,-52.478633880615234,10.795604705810547,-25.189743041992188
0.03295893967151642,0.2813352048397064,9.666179656982422,0.0004928051185493561,0.012242078195822388,0.006602523018538008,1.219982624053955,2019-08-06 15:03:52:443,-139.72813809489548,163.5415559769439,0,-52.478633880615234,10.795604705810547,-25.189743041992188
0.013800942339003086,0.3028879463672638,9.59194278717041,-3.9957173202045016e-05,0.009311885272192268,-0.0013889113292873795,1.2299840450286865,2019-08-06 15:03:52:453,-140.53715593808795,163.83457436112914,0,-52.478633880615234,10.795604705810547,-25.189743041992188
0.02098519168794155,0.2693614363670349,9.618284225463867,0.0002264239747054862,0.011709315940643939,0.003672330354982212,1.2399911880493164,2019-08-06 15:03:52:463,-141.33049212371034,164.12567250075404,0,-52.478633880615234,10.795604705810547,-25.189743041992188
0.06409068405628204,0.24780869483947754,9.618284225463867,0.0010255674062370958,0.011709315940643939,-0.0005897678815011245,1.2499785423278809,2019-08-06 15:03:52:473,-142.10281312610903,164.41306670137433,0,-52.478633880615234,10.795604705810547,-25.189743041992188
0.00901144277304411,0.2549929618835449,9.630258560180664,-0.002703768575067792,0.009311885272192268,0.0020740435894468653,1.259990930557251,2019-08-06 15:03:52:483,-142.864919670147,164.69599059130363,0,-52.478633880615234,10.795604705810547,-25.189743041992188
0.06409068405628204,0.2430191934108734,9.627863883972168,-3.9957173202045016e-05,0.01064379143028704,0.00020937558253977584,1.2699785232543945,2019-08-06 15:03:52:493,-143.605962327277,164.97317500103415,0,-52.478633880615234,10.795604705810547,-25.189743041992188
0.011406192556023598,0.2885194420814514,9.62067985534668,0.0020910919816125757,0.012242078195822388,0.0007421378864821609,1.2799863815307617,2019-08-06 15:03:52:503,-144.33936380598269,165.2381812867369,0,-52.478633880615234,10.795604705810547,-25.189743041992188
-0.007751804776489735,0.23822970688343048,9.60391616821289,-0.002171006319889343,0.009311885272192268,0.00020937558253977584,1.289977788925171,2019-08-06 15:03:52:513,-137.85872557405904,165.50621647750563,0,-52.478633880615234,10.795604705810547,-25.189743041992188
0.044932689517736435,0.23344020545482635,9.675758361816406,0.0015583297264341264,0.013307602706179285,0.0010085190140713856,1.299988031387329,2019-08-06 15:03:52:523,-138.70370950448782,165.76757491587367,0,-52.478633880615234,10.795604705810547,-25.189743041992188
0.02816944010555744,0.2885194420814514,9.625469207763672,-0.0013718629371216693,0.014373127216536186,-0.0024544358396442778,1.309983730316162,2019-08-06 15:03:52:533,-139.5343487621378,166.01865532300286,0,-52.478633880615234,10.795604705810547,-25.189743041992188
-0.010146554559469223,0.25259819626808167,9.579968452453613,0.0020910919816125757,0.010377409782549165,0.00020937558253977584,1.319990873336792,2019-08-06 15:03:52:543,-133.15070653832126,166.26689949643088,0,-52.478633880615234,10.795604705810547,-25.189743041992188
-0.010146554559469223,0.28612470626831055,9.658995628356934,-0.0037692930854246903,0.012774840451000838,0.0023404247170360896,1.3299884796142578,2019-08-06 15:03:52:553,-126.89606750379728,166.5097423604513,0,-52.478633880615234,10.795604705810547,-25.189743041992188
0.023379940539598465,0.2909142076969147,9.60391616821289,-0.0019046251923001184,0.011709315940643939,-0.000856149009090349,1.3399813175201416,2019-08-06 15:03:52:563,-127.96192657844925,166.7459156366454,0,-52.478633880615234,10.795604705810547,-25.189743041992188
0.025774691253900528,0.26696670055389404,9.611100196838379,0.002890235364380249,0.011975696548084513,-0.0027208169672335025,1.3499882221221924,2019-08-06 15:03:52:573,-129.006343960615,166.97755152415974,0,-53.07838821411133,12.594871520996094,-25.189743041992188
0.05690643563866615,0.26696670055389404,9.625469207763672,0.0012919485988449018,0.007713599026805571,0.0023404247170360896,1.3599822521209717,2019-08-06 15:03:52:583,-130.02377101823416,167.2055011629789,0,-53.07838821411133,12.594871520996094,-25.189743041992188
0.030564190819859505,0.25259819626808167,9.658995628356934,-3.9957173202045016e-05,0.014639508864274061,-0.0013889113292873795,1.3699867725372314,2019-08-06 15:03:52:593,-131.0278933419875,167.43145288773195,0,-53.07838821411133,12.594871520996094,-25.189743041992188
0.06888018548488617,0.23583495616912842,9.60391616821289,0.002890235364380249,0.013307602706179285,-0.0019216735844658289,1.3799848556518555,2019-08-06 15:03:52:603,-132.00658777069077,167.6530676864996,0,-53.07838821411133,12.594871520996094,-25.189743041992188
0.059301186352968216,0.2813352048397064,9.627863883972168,-0.002171006319889343,0.011975696548084513,-0.0003233867214026093,1.3899781703948975,2019-08-06 15:03:52:613,-132.96611787471647,167.867749333128,0,-53.07838821411133,12.594871520996094,-25.189743041992188
0.04972218722105026,0.30049318075180054,9.642231941223145,-0.002171006319889343,0.00824636128198402,0.0007421378864821609,1.3999922275543213,2019-08-06 15:03:52:623,-133.9055232455605,168.07591500149118,0,-53.07838821411133,12.594871520996094,-25.189743041992188
0.0018271940061822534,0.2693614363670349,9.608705520629883,0.001824710854023351,0.010377409782549165,-0.001122530201698155,1.4099841117858887,2019-08-06 15:03:52:633,-134.83301704553074,168.2812578484964,0,-53.07838821411133,12.594871520996094,-25.189743041992188
0.025774691253900528,0.27175620198249817,9.639837265014648,-0.0008391006169246387,0.01357398435391716,-0.001122530201698155,1.4199872016906738,2019-08-06 15:03:52:643,-135.74091692794593,168.48380809178573,0,-53.07838821411133,12.594871520996094,-25.189743041992188
0.00422194367274642,0.2837299406528473,9.596732139587402,-0.0008391006169246387,0.010111029175108591,0.0023404247170360896,1.4299850463867188,2019-08-06 15:03:52:653,-136.63127056589525,168.68073354893323,0,-53.07838821411133,12.594871520996094,-25.189743041992188
0.030564190819859505,0.2573876976966858,9.70210075378418,-3.9957173202045016e-05,0.008779123017013819,0.0012749002066791914,1.4399771690368652,2019-08-06 15:03:52:663,-137.4999608109752,168.87674835149053,0,-53.07838821411133,12.594871520996094,-25.189743041992188
0.04014318808913231,0.2765457034111023,9.687732696533203,-0.0005727194893354142,0.007979980154394795,-0.0005897678815011245,1.4499917030334473,2019-08-06 15:03:52:673,-138.34970053642576,169.0668330446067,0,-53.07838821411133,12.594871520996094,-25.189743041992188
0.011406192556023598,0.2549929618835449,9.630258560180664,0.0007591862786478714,0.011176553685465489,-0.0005897678815011245,1.4599788188934326,2019-08-06 15:03:52:683,-139.18761682439344,169.2547358317267,0,-53.07838821411133,12.594871520996094,-25.189743041992188
0.02098519168794155,0.2645719349384308,9.587152481079102,-3.9957173202045016e-05,0.01357398435391716,-5.7005565367755386e-05,1.4699978828430176,2019-08-06 15:03:52:693,-140.00899251623608,169.43804834851775,0,-53.07838821411133,12.594871520996094,-25.189743041992188
-0.010146554559469223,0.2502034604549408,9.623074531555176,0.0034229976195586987,0.011442934292906064,0.00047575672638364575,1.4799880981445312,2019-08-06 15:03:52:703,-133.61643982222634,169.6175797399464,0,-53.07838821411133,12.594871520996094,-25.189743041992188
0.02098519168794155,0.25978243350982666,9.63265323638916,-0.0011054818095324445,0.011709315940643939,0.0007421378864821609,1.4899861812591553,2019-08-06 15:03:52:713,-134.54818810295836,169.7949521146858,0,-53.07838821411133,12.594871520996094,-25.189743041992188
0.0473274365067482,0.27415093779563904,9.584757804870605,0.004488522389989922,0.011975696548084513,-0.0003233867214026093,1.499983787536621,2019-08-06 15:03:52:723,-135.4582888341685,169.96376591272485,0,-53.07838821411133,12.594871520996094,-25.189743041992188
0.00901144277304411,0.24780869483947754,9.60391616821289,-0.0011054818095324445,0.01064379143028704,0.0018076624618576407,1.5099899768829346,2019-08-06 15:03:52:733,-136.354028008126,170.13555034228918,0,-53.07838821411133,12.594871520996094,-25.189743041992188
-0.0029623054433614016,0.28612470626831055,9.642231941223145,-0.0016382440647108938,0.013840364961357736,-0.003786341477590401,1.5199785232543945,2019-08-06 15:03:52:743,-130.03506194347275,170.29976409737287,0,-53.07838821411133,12.594871520996094,-25.189743041992188
-0.007751804776489735,0.2573876976966858,9.666179656982422,-0.0024373874474785677,0.012774840451000838,0.0012749002066791914,1.5299880504608154,2019-08-06 15:03:52:753,-123.84245956228422,170.4646328724826,0,-53.07838821411133,12.594871520996094,-25.189743041992188
-0.005357054993510246,0.29330894351005554,9.627863883972168,-0.0008391006169246387,0.007979980154394795,0.001541281334268416,1.53997802734375,2019-08-06 15:03:52:763,-117.77072422857294,170.62091183973845,0,-53.07838821411133,12.594871520996094,-25.189743041992188
-0.0149360541254282,0.24780869483947754,9.594337463378906,-0.0008391006169246387,0.010910172037727614,0.0007421378864821609,1.5499937534332275,2019-08-06 15:03:52:773,-111.82322933555888,170.77937463475192,0,-53.07838821411133,12.594871520996094,-25.189743041992188
0.00422194367274642,0.26696670055389404,9.601521492004395,0.0020910919816125757,0.011975696548084513,-5.7005565367755386e-05,1.5599889755249023,2019-08-06 15:03:52:783,-113.1929819958242,170.9307600118913,0,-53.07838821411133,12.594871520996094,-25.189743041992188
0.00901144277304411,0.24541394412517548,9.62067985534668,0.0020910919816125757,0.0074472173790676955,-0.001655292456876604,1.5699951648712158,2019-08-06 15:03:52:793,-114.532233197196,171.08174511411067,0,-53.07838821411133,12.594871520996094,-25.189743041992188
0.011406192556023598,0.2621771991252899,9.675758361816406,-0.004302055340603139,0.012508459843560263,0.0028731869722145387,1.5799992084503174,2019-08-06 15:03:52:803,-115.84726400337095,171.23148431612043,0,-53.07838821411133,12.594871520996094,-25.189743041992188
0.00901144277304411,0.23583495616912842,9.635047912597656,-3.9957173202045016e-05,0.012508459843560263,-0.0005897678815011245,1.5899975299835205,2019-08-06 15:03:52:813,-117.13626927894956,171.3788343365206,0,-53.07838821411133,12.594871520996094,-25.189743041992188
0.023379940539598465,0.30049318075180054,9.63265323638916,-0.0003063383292368989,0.00824636128198402,0.0028731869722145387,1.5999913215637207,2019-08-06 15:03:52:823,-118.39539003024787,171.51569399876036,0,-53.07838821411133,10.795604705810547,-26.38925552368164
0.059301186352968216,0.2885194420814514,9.618284225463867,-0.0013718629371216693,0.008512742409573244,-0.001655292456876604,1.6099834442138672,2019-08-06 15:03:52:833,-119.62519334568853,171.65178611314587,0,-53.07838821411133,10.795604705810547,-26.38925552368164
0.04014318808913231,0.25978243350982666,9.642231941223145,0.0015583297264341264,0.014639508864274061,0.0010085190140713856,1.6200015544891357,2019-08-06 15:03:52:843,-120.83615370460257,171.7870078464326,0,-53.07838821411133,10.795604705810547,-26.38925552368164
0.030564190819859505,0.24541394412517548,9.62067985534668,0.0020910919816125757,0.010910172037727614,0.0026068058446253144,1.6299958229064941,2019-08-06 15:03:52:853,-122.02191268894477,171.92086939165142,0,-53.07838821411133,10.795604705810547,-26.38925552368164
0.018590440973639488,0.2621771991252899,9.599126815795898,-0.0005727194893354142,0.008512742409573244,0.003938711482571438,1.6399950981140137,2019-08-06 15:03:52:863,-123.18403471248745,172.0514833961129,0,-53.07838821411133,10.795604705810547,-26.38925552368164
0.00901144277304411,0.2573876976966858,9.642231941223145,-0.003236530830246241,0.011975696548084513,-0.0019216735844658289,1.6500012874603271,2019-08-06 15:03:52:873,-124.32601156732703,172.18169059486024,0,-53.07838821411133,10.795604705810547,-26.38925552368164
0.013800942339003086,0.27894043922424316,9.623074531555176,0.0015583297264341264,0.011442934292906064,0.0012749002066791914,1.6599853038787842,2019-08-06 15:03:52:883,-125.44426284334885,172.3039762559643,0,-53.07838821411133,10.795604705810547,-26.38925552368164
0.04253793880343437,0.24541394412517548,9.63265323638916,-0.0037692930854246903,0.01064379143028704,0.0028731869722145387,1.669996976852417,2019-08-06 15:03:52:893,-126.5363006899507,172.43082713950852,0,-53.07838821411133,10.795604705810547,-26.38925552368164
0.00422194367274642,0.2621771991252899,9.579968452453613,0.002890235364380249,0.011709315940643939,-0.0003233867214026093,1.679999589920044,2019-08-06 15:03:52:903,-127.611646148012,172.54923459981902,0,-53.07838821411133,10.795604705810547,-26.38925552368164
0.011406192556023598,0.25259819626808167,9.615889549255371,0.0004928051185493561,0.01410674660909561,0.00553699850818111,1.6899964809417725,2019-08-06 15:03:52:913,-128.66597241797385,172.6678783403095,0,-53.07838821411133,10.795604705810547,-26.38925552368164
0.04253793880343437,0.28612470626831055,9.55362606048584,0.0012919485988449018,0.012508459843560263,0.0012749002066791914,1.7000041007995605,2019-08-06 15:03:52:923,-129.69457959891164,172.7794856439442,0,-53.07838821411133,10.795604705810547,-26.38925552368164
0.02098519168794155,0.29809844493865967,9.618284225463867,-0.0013718629371216693,0.012774840451000838,0.00553699850818111,1.7100021839141846,2019-08-06 15:03:52:933,-130.7053595305195,172.88916220931392,0,-53.07838821411133,10.795604705810547,-26.38925552368164
-0.0029623054433614016,0.2765457034111023,9.613494873046875,-0.006433104361316936,0.010910172037727614,0.0018076624618576407,1.7199993133544922,2019-08-06 15:03:52:943,-124.49772973093604,173.00203532174248,0,-53.07838821411133,10.795604705810547,-26.38925552368164
0.037748441100120544,0.28612470626831055,9.599126815795898,-0.004834817595781589,0.009311885272192268,-0.001655292456876604,1.7300021648406982,2019-08-06 15:03:52:953,-125.60849896326215,173.11056351558173,0,-53.07838821411133,10.795604705810547,-26.38925552368164
0.03295893967151642,0.23583495616912842,9.575179100036621,-0.004302055340603139,0.014373127216536186,-0.0027208169672335025,1.7399842739105225,2019-08-06 15:03:52:963,-126.70044067022229,173.22254552984617,0,-53.07838821411133,10.795604705810547,-26.38925552368164
0.025774691253900528,0.25259819626808167,9.589548110961914,0.001824710854023351,0.010910172037727614,0.006868904146127233,1.749988079071045,2019-08-06 15:03:52:973,-127.7694802616138,173.326892083232,0,-53.07838821411133,10.795604705810547,-26.38925552368164
-0.038883551955223083,0.28612470626831055,9.64462661743164,-0.003236530830246241,0.011709315940643939,0.0012749002066791914,1.760007619857788,2019-08-06 15:03:52:983,-121.62529814992735,173.4281894795668,0,-53.07838821411133,10.795604705810547,-26.38925552368164
-0.0029623054433614016,0.3028879463672638,9.639837265014648,-0.0019046251923001184,0.008779123017013819,0.0031395680998037635,1.7700066566467285,2019-08-06 15:03:52:993,-115.59807331562754,173.52470169885302,0,-53.07838821411133,10.795604705810547,-26.38925552368164
0.023379940539598465,0.2837299406528473,9.596732139587402,-0.004834817595781589,0.010910172037727614,-0.003519960350001176,1.7800021171569824,2019-08-06 15:03:53:003,-116.88944339553974,173.6230517426985,0,-53.07838821411133,10.795604705810547,-26.38925552368164
0.0018271940061822534,0.26696670055389404,9.666179656982422,0.001824710854023351,0.012242078195822388,-0.0027208169672335025,1.7900035381317139,2019-08-06 15:03:53:013,-118.15831280268748,173.71792540704692,0,-53.07838821411133,10.795604705810547,-26.38925552368164
0.025774691253900528,0.2573876976966858,9.615889549255371,-0.0016382440647108938,0.011176553685465489,-0.001122530201698155,1.8000082969665527,2019-08-06 15:03:53:023,-119.3983536168991,173.81382190549886,0,-53.07838821411133,10.795604705810547,-26.38925552368164
0.04014318808913231,0.29809844493865967,9.639837265014648,-0.003502911957835466,0.011442934292906064,0.0023404247170360896,1.8100190162658691,2019-08-06 15:03:53:033,-120.61204671360579,173.90408991279037,0,-53.07838821411133,10.795604705810547,-26.38925552368164
0.04253793880343437,0.25978243350982666,9.611100196838379,-0.0016382440647108938,0.012508459843560263,0.0018076624618576407,1.8200042247772217,2019-08-06 15:03:53:043,-121.8017471787209,173.99596073521604,0,-53.07838821411133,10.795604705810547,-26.38925552368164
0.02098519168794155,0.22625595331192017,9.63265323638916,0.001824710854023351,0.008512742409573244,0.001541281334268416,1.8299989700317383,2019-08-06 15:03:53:053,-122.96799318922999,174.08810667014717,0,-53.07838821411133,10.795604705810547,-26.38925552368164
0.025774691253900528,0.25978243350982666,9.599126815795898,-0.003236530830246241,0.01570503337463096,0.0010085190140713856,1.8400042057037354,2019-08-06 15:03:53:063,-124.11437939770518,174.17715829920178,0,-53.07838821411133,10.795604705810547,-26.38925552368164
0.006616693455725908,0.2813352048397064,9.651811599731445,0.003689378747147923,0.014373127216536186,-0.001655292456876604,1.8500020503997803,2019-08-06 15:03:53:073,-125.23937499196187,174.25815180712428,0,-52.478633880615234,11.995116233825684,-26.689132690429688
0.00422194367274642,0.2837299406528473,9.678153038024902,0.0034229976195586987,0.009844647527370716,0.0031395680998037635,1.859968662261963,2019-08-06 15:03:53:083,-126.33959690435006,174.33748852118177,0,-52.478633880615234,11.995116233825684,-26.689132690429688
0.04253793880343437,0.2765457034111023,9.635047912597656,0.0010255674062370958,0.007713599026805571,0.004737855125413436,1.8699920177459717,2019-08-06 15:03:53:093,-127.41208716770412,174.41728044271497,0,-52.478633880615234,11.995116233825684,-26.689132690429688
0.00422194367274642,0.23822970688343048,9.572784423828125,0.0004928051185493561,0.008512742409573244,-5.7005565367755386e-05,1.8801727294921875,2019-08-06 15:03:53:103,-128.46820630578546,174.5001415867312,0,-52.478633880615234,11.995116233825684,-26.689132690429688
0.023379940539598465,0.2621771991252899,9.635047912597656,-3.9957173202045016e-05,0.009844647527370716,-0.0003233867214026093,1.8899686336517334,2019-08-06 15:03:53:113,-129.50147649885028,174.57898716477993,0,-52.478633880615234,11.995116233825684,-26.689132690429688
0.011406192556023598,0.2837299406528473,9.579968452453613,-0.002703768575067792,0.011709315940643939,0.0026068058446253144,1.9000132083892822,2019-08-06 15:03:53:123,-130.51668668047986,174.65500368524513,0,-52.478633880615234,11.995116233825684,-26.689132690429688
0.02816944010555744,0.30528268218040466,9.613494873046875,-0.0003063383292368989,0.00718083625147847,-0.0003233867214026093,1.9100396633148193,2019-08-06 15:03:53:133,-131.5070378937966,174.72569901671184,0,-52.478633880615234,11.995116233825684,-26.689132690429688
-0.0029623054433614016,0.25259819626808167,9.577573776245117,0.0004928051185493561,0.009045504664751694,-0.001655292456876604,1.9199693202972412,2019-08-06 15:03:53:143,-125.28229487411036,174.80069498799023,0,-52.478633880615234,11.995116233825684,-26.689132690429688
0.02098519168794155,0.2909142076969147,9.59194278717041,-0.0003063383292368989,0.01570503337463096,0.00020937558253977584,1.9302661418914795,2019-08-06 15:03:53:153,-126.38322205644026,174.87011435796083,0,-52.478633880615234,11.995116233825684,-26.689132690429688
0.02098519168794155,0.31246694922447205,9.642231941223145,0.004488522389989922,0.015971413982071532,0.00047575672638364575,1.9400067329406738,2019-08-06 15:03:53:163,-127.46179895895871,174.93313550782227,0,-52.478633880615234,11.995116233825684,-26.689132690429688
0.03535369038581848,0.3148616850376129,9.630258560180664,-3.9957173202045016e-05,0.011442934292906064,-0.002987198094822727,1.9500141143798828,2019-08-06 15:03:53:173,-128.51478615697127,174.99704283582915,0,-52.478633880615234,11.995116233825684,-26.689132690429688
0.025774691253900528,0.27415093779563904,9.682943344116211,-0.0008391006169246387,0.012508459843560263,-0.0024544358396442778,1.9605910778045654,2019-08-06 15:03:53:183,-129.54886888051843,175.06516493848224,0,-52.478633880615234,11.995116233825684,-26.689132690429688
0.052116937935352325,0.2693614363670349,9.615889549255371,-0.0005727194893354142,0.014905889471714633,-0.002987198094822727,1.9699857234954834,2019-08-06 15:03:53:193,-130.55954381934177,175.13207262269069,0,-52.92844772338867,11.545299530029297,-25.039804458618164
0.02816944010555744,0.2430191934108734,9.594337463378906,-0.0011054818095324445,0.012774840451000838,0.0010085190140713856,1.9799814224243164,2019-08-06 15:03:53:203,-131.55215845922146,175.20103243479375,0,-52.92844772338867,11.545299530029297,-25.039804458618164
0.02098519168794155,0.23822970688343048,9.656600952148438,-0.002703768575067792,0.006914455123889247,-0.0024544358396442778,1.9900269508361816,2019-08-06 15:03:53:213,-132.522525186859,175.2702726943383,0,-52.92844772338867,11.545299530029297,-25.039804458618164
0.0473274365067482,0.27175620198249817,9.613494873046875,-0.005101198723370813,0.011442934292906064,0.00020937558253977584,2.000023365020752,2019-08-06 15:03:53:223,-133.47285625033592,175.33534618185115,0,-52.92844772338867,11.545299530029297,-25.039804458618164
0.00901144277304411,0.2885194420814514,9.63265323638916,0.0012919485988449018,0.010910172037727614,0.00020937558253977584,2.0099923610687256,2019-08-06 15:03:53:233,-134.40843416381313,175.39360361153254,0,-52.92844772338867,11.545299530029297,-25.039804458618164
0.00901144277304411,0.2549929618835449,9.642231941223145,0.0026238542367910244,0.009844647527370716,-0.008048440039166644,2.0200088024139404,2019-08-06 15:03:53:243,-135.3247313749505,175.4539586584149,0,-52.92844772338867,11.545299530029297,-25.039804458618164
0.044932689517736435,0.25259819626808167,9.630258560180664,-0.0005727194893354142,0.013307602706179285,-5.7005565367755386e-05,2.0299580097198486,2019-08-06 15:03:53:253,-136.2203244411097,175.5151493720614,0,-52.92844772338867,11.545299530029297,-25.039804458618164
0.0018271940061822534,0.25978243350982666,9.599126815795898,-0.0003063383292368989,0.010111029175108591,0.0007421378864821609,2.0399856567382812,2019-08-06 15:03:53:263,-137.10139285247698,175.57401437204538,0,-52.92844772338867,11.545299530029297,-25.039804458618164
-0.0029623054433614016,0.2645719349384308,9.647021293640137,0.0002264239747054862,0.009844647527370716,0.00047575672638364575,2.0499846935272217,2019-08-06 15:03:53:273,-130.7652440948277,175.6309878184685,0,-52.92844772338867,11.545299530029297,-25.039804458618164
0.02816944010555744,0.24062444269657135,9.649415969848633,0.0012919485988449018,0.011442934292906064,0.001541281334268416,2.0600123405456543,2019-08-06 15:03:53:283,-131.75303691869377,175.68907121433602,0,-52.92844772338867,11.545299530029297,-25.039804458618164
0.02816944010555744,0.25259819626808167,9.682943344116211,0.0023574731092018,0.011709315940643939,0.0026068058446253144,2.069988965988159,2019-08-06 15:03:53:293,-132.72120190997873,175.74408253293777,0,-52.92844772338867,11.545299530029297,-25.039804458618164
0.023379940539598465,0.26696670055389404,9.682943344116211,-0.0008391006169246387,0.013840364961357736,0.00020937558253977584,2.0799765586853027,2019-08-06 15:03:53:303,-133.67177271183579,175.79808561930378,0,-52.92844772338867,11.545299530029297,-25.039804458618164
0.016195692121982574,0.22625595331192017,9.649415969848633,-3.9957173202045016e-05,0.008512742409573244,-0.0003233867214026093,2.08998703956604,2019-08-06 15:03:53:313,-134.60119884436352,175.85528228192229,0,-52.92844772338867,11.545299530029297,-25.039804458618164
0.04253793880343437,0.3028879463672638,9.615889549255371,-0.0003063383292368989,0.010910172037727614,0.0012749002066791914,2.099989414215088,2019-08-06 15:03:53:323,-135.5102331999421,175.9022657733506,0,-53.07838821411133,10.795604705810547,-26.689132690429688
-0.010146554559469223,0.25978243350982666,9.577573776245117,0.004488522389989922,0.01064379143028704,0.00020937558253977584,2.1100046634674072,2019-08-06 15:03:53:333,-129.2072281152686,175.95062208143744,0,-53.07838821411133,10.795604705810547,-26.689132690429688
0.00901144277304411,0.2502034604549408,9.608705520629883,-0.002171006319889343,0.011442934292906064,-5.7005565367755386e-05,2.119983196258545,2019-08-06 15:03:53:343,-130.2284202650256,176.00299400167796,0,-53.07838821411133,10.795604705810547,-26.689132690429688
0.023379940539598465,0.2837299406528473,9.601521492004395,-0.0019046251923001184,0.006914455123889247,0.0023404247170360896,2.1299784183502197,2019-08-06 15:03:53:353,-131.22494213478743,176.0501505064474,0,-53.07838821411133,10.795604705810547,-26.689132690429688
0.018590440973639488,0.2885194420814514,9.654206275939941,0.0034229976195586987,0.011442934292906064,0.0012749002066791914,2.1399919986724854,2019-08-06 15:03:53:363,-132.20467060163932,176.09298696629503,0,-53.07838821411133,10.795604705810547,-26.689132690429688
0.037748441100120544,0.21428219974040985,9.627863883972168,-3.9957173202045016e-05,0.006914455123889247,0.001541281334268416,2.14998722076416,2019-08-06 15:03:53:373,-133.15996496695888,176.14564983369328,0,-53.07838821411133,10.795604705810547,-26.689132690429688
0.006616693455725908,0.23583495616912842,9.663784980773926,-0.002171006319889343,0.009844647527370716,-0.004052722605179625,2.1599843502044678,2019-08-06 15:03:53:383,-134.10150724062467,176.195996135914,0,-53.07838821411133,10.795604705810547,-26.689132690429688
0.059301186352968216,0.2430191934108734,9.635047912597656,0.0007591862786478714,0.010111029175108591,0.0026068058446253144,2.169987678527832,2019-08-06 15:03:53:393,-135.01810359444923,176.24275315541573,0,-53.07838821411133,10.795604705810547,-26.689132690429688
0.02098519168794155,0.26696670055389404,9.599126815795898,0.0026238542367910244,0.011176553685465489,0.003672330354982212,2.1799850463867188,2019-08-06 15:03:53:403,-135.9215103438033,176.2845637013054,0,-53.07838821411133,10.795604705810547,-26.689132690429688
-0.005357054993510246,0.2645719349384308,9.639837265014648,0.0007591862786478714,0.006914455123889247,-0.001122530201698155,2.1899962425231934,2019-08-06 15:03:53:413,-129.60760374961876,176.32700312314438,0,-53.07838821411133,10.795604705810547,-26.689132690429688
0.02098519168794155,0.2621771991252899,9.579968452453613,-0.0008391006169246387,0.007979980154394795,-0.0005897678815011245,2.1999855041503906,2019-08-06 15:03:53:423,-130.61741745455325,176.36958099898345,0,-53.07838821411133,10.795604705810547,-26.689132690429688
-0.0029623054433614016,0.2693614363670349,9.635047912597656,0.0026238542367910244,0.011709315940643939,0.0020740435894468653,2.209991216659546,2019-08-06 15:03:53:433,-124.41199993919165,176.40868789248367,0,-53.07838821411133,10.795604705810547,-26.689132690429688
-0.019725553691387177,0.2573876976966858,9.587152481079102,0.0015583297264341264,0.011709315940643939,0.003405949227392988,2.2199809551239014,2019-08-06 15:03:53:443,-118.33268567515758,176.44888285570198,0,-53.07838821411133,10.795604705810547,-26.689132690429688
0.016195692121982574,0.2621771991252899,9.611100196838379,0.0026238542367910244,0.012508459843560263,-0.0021880547120550534,2.229987382888794,2019-08-06 15:03:53:453,-119.5711289755912,176.48717975693216,0,-53.07838821411133,10.795604705810547,-26.689132690429688
-0.0029623054433614016,0.26696670055389404,9.587152481079102,-3.9957173202045016e-05,0.011176553685465489,0.0020740435894468653,2.2399911880493164,2019-08-06 15:03:53:463,-113.58633847674344,176.52555734362832,0,-53.07838821411133,10.795604705810547,-26.689132690429688
0.02098519168794155,0.26696670055389404,9.651811599731445,0.0023574731092018,0.009578266919930143,0.0026068058446253144,2.2499802112579346,2019-08-06 15:03:53:473,-114.91749251531482,176.56203627188773,0,-53.07838821411133,10.795604705810547,-26.689132690429688
0.013800942339003086,0.2502034604549408,9.63265323638916,-0.0019046251923001184,0.014639508864274061,0.005803379635770335,2.259981870651245,2019-08-06 15:03:53:483,-116.22572231264756,176.60210726200842,0,-53.07838821411133,10.795604705810547,-26.689132690429688
0.00422194367274642,0.23822970688343048,9.670969009399414,-0.0008391006169246387,0.009578266919930143,0.0018076624618576407,2.269981861114502,2019-08-06 15:03:53:493,-117.50608578595396,176.6423140788702,0,-53.07838821411133,10.795604705810547,-26.689132690429688
0.06409068405628204,0.2573876976966858,9.62067985534668,-0.004834817595781589,0.011176553685465489,0.005004236253002661,2.279996395111084,2019-08-06 15:03:53:503,-118.75461510634814,176.68153644494086,0,-53.07838821411133,10.795604705810547,-26.689132690429688
0.018590440973639488,0.27894043922424316,9.635047912597656,-0.005101198723370813,0.009578266919930143,0.0028731869722145387,2.2899787425994873,2019-08-06 15:03:53:513,-119.98268049849668,176.71759929327558,0,-53.07838821411133,10.795604705810547,-26.689132690429688
-0.012541304342448711,0.2885194420814514,9.682943344116211,0.0010255674062370958,0.0074472173790676955,0.007668047528894907,2.2999870777130127,2019-08-06 15:03:53:523,-113.98869616021425,176.74853660661435,0,-53.07838821411133,10.795604705810547,-26.689132690429688
0.0018271940061822534,0.2765457034111023,9.63265323638916,-0.002970149702657017,0.007979980154394795,0.00020937558253977584,2.3099818229675293,2019-08-06 15:03:53:533,-115.31318326461643,176.78234345499152,0,-53.07838821411133,10.795604705810547,-26.689132690429688
-0.0029623054433614016,0.2765457034111023,9.656600952148438,0.0007591862786478714,0.009311885272192268,0.003672330354982212,2.31998610496521,2019-08-06 15:03:53:543,-109.41250197570068,176.81346236170228,0,-53.07838821411133,10.795604705810547,-26.689132690429688
0.04253793880343437,0.29809844493865967,9.656600952148438,-0.0011054818095324445,0.01064379143028704,0.001541281334268416,2.3299925327301025,2019-08-06 15:03:53:553,-110.82518445402555,176.84245115403962,0,-53.07838821411133,10.795604705810547,-26.689132690429688
0.030564190819859505,0.2645719349384308,9.685338020324707,0.0026238542367910244,0.01357398435391716,-5.7005565367755386e-05,2.339986562728882,2019-08-06 15:03:53:563,-112.21268181459497,176.87283481546993,0,-53.07838821411133,10.795604705810547,-26.689132690429688
0.044932689517736435,0.30528268218040466,9.615889549255371,0.0020910919816125757,0.013307602706179285,0.0007421378864821609,2.3499796390533447,2019-08-06 15:03:53:573,-113.57054066254088,176.89783678138204,0,-52.628570556640625,11.845176696777344,-26.239316940307617
0.016195692121982574,0.2645719349384308,9.58236312866211,0.001824710854023351,0.009844647527370716,-0.0005897678815011245,2.359984874725342,2019-08-06 15:03:53:583,-114.90272372493722,176.92722389785143,0,-52.628570556640625,11.845176696777344,-26.239316940307617
0.025774691253900528,0.31246694922447205,9.630258560180664,-0.002970149702657017,0.009844647527370716,-0.000856149009090349,2.369981527328491,2019-08-06 15:03:53:593,-116.20712820330714,176.95317883276522,0,-52.628570556640625,11.845176696777344,-26.239316940307617
0.006616693455725908,0.27894043922424316,9.62067985534668,-0.002703768575067792,0.012774840451000838,-0.004851865987947299,2.3799962997436523,2019-08-06 15:03:53:603,-117.48938117933996,176.98242047475415,0,-52.628570556640625,11.845176696777344,-26.239316940307617
0.00422194367274642,0.2957036793231964,9.596732139587402,0.0004928051185493561,0.010910172037727614,0.003672330354982212,2.3899881839752197,2019-08-06 15:03:53:613,-118.74521050177061,177.00719770268563,0,-52.628570556640625,11.845176696777344,-26.239316940307617
0.025774691253900528,0.2502034604549408,9.627863883972168,0.00555404690034682,0.009311885272192268,-0.0013889113292873795,2.3999829292297363,2019-08-06 15:03:53:623,-119.97246443936027,177.03416409491325,0,-52.628570556640625,11.845176696777344,-26.239316940307617
0.023379940539598465,0.2693614363670349,9.670969009399414,0.0004928051185493561,0.0074472173790676955,-0.0032535792224119516,2.4099819660186768,2019-08-06 15:03:53:633,-121.17442606048633,177.0612956742694,0,-52.628570556640625,11.845176696777344,-26.239316940307617
0.023379940539598465,0.27175620198249817,9.630258560180664,-0.0005727194893354142,0.007713599026805571,-0.0013889113292873795,2.4199953079223633,2019-08-06 15:03:53:643,-122.35249249258021,177.08806376589484,0,-52.628570556640625,11.845176696777344,-26.239316940307617
0.030564190819859505,0.2549929618835449,9.663784980773926,0.0007591862786478714,0.008779123017013819,0.0020740435894468653,2.4299817085266113,2019-08-06 15:03:53:653,-123.50674116562558,177.1156471602966,0,-52.628570556640625,11.845176696777344,-26.239316940307617
0.04014318808913231,0.2645719349384308,9.589548110961914,-0.003236530830246241,0.0074472173790676955,0.001541281334268416,2.4399831295013428,2019-08-06 15:03:53:663,-124.63599160420296,177.1435444317505,0,-52.628570556640625,11.845176696777344,-26.239316940307617
0.016195692121982574,0.21907170116901398,9.60391616821289,0.0015583297264341264,0.012242078195822388,-5.7005565367755386e-05,2.4499802589416504,2019-08-06 15:03:53:673,-125.7482112809628,177.17366423140504,0,-52.628570556640625,11.845176696777344,-26.239316940307617
0.02098519168794155,0.2645719349384308,9.63265323638916,0.004754903517579147,0.009844647527370716,0.003938711482571438,2.4599838256835938,2019-08-06 15:03:53:683,-126.83628035565852,177.19605413979158,0,-52.628570556640625,11.845176696777344,-26.239316940307617
0.011406192556023598,0.2621771991252899,9.642231941223145,0.0004928051185493561,0.007979980154394795,0.0012749002066791914,2.4699950218200684,2019-08-06 15:03:53:693,-127.90268496322163,177.22070568426994,0,-52.628570556640625,11.845176696777344,-26.239316940307617
0.025774691253900528,0.2909142076969147,9.567995071411133,-0.0011054818095324445,0.012774840451000838,-0.0019216735844658289,2.4799888134002686,2019-08-06 15:03:53:703,-128.94871295516703,177.24208116051895,0,-52.628570556640625,11.845176696777344,-26.239316940307617
0.030564190819859505,0.23583495616912842,9.596732139587402,0.0012919485988449018,0.01410674660909561,0.0018076624618576407,2.4899814128875732,2019-08-06 15:03:53:713,-129.9740041916813,177.2683600033583,0,-52.628570556640625,11.845176696777344,-26.239316940307617
0.016195692121982574,0.23344020545482635,9.59194278717041,0.0023574731092018,0.012508459843560263,0.00020937558253977584,2.499983549118042,2019-08-06 15:03:53:723,-130.97961425100218,177.29378602824835,0,-52.628570556640625,11.845176696777344,-26.239316940307617
0.00901144277304411,0.2549929618835449,9.627863883972168,0.0026238542367910244,0.006648073996300022,0.0023404247170360896,2.509981393814087,2019-08-06 15:03:53:733,-131.96268149756096,177.31609497402818,0,-52.628570556640625,11.845176696777344,-26.239316940307617
0.023379940539598465,0.2909142076969147,9.589548110961914,0.0010255674062370958,0.011176553685465489,0.0028731869722145387,2.519993305206299,2019-08-06 15:03:53:743,-132.9269171514027,177.3344440186902,0,-52.628570556640625,11.845176696777344,-26.239316940307617
0.06888018548488617,0.2573876976966858,9.627863883972168,-3.9957173202045016e-05,0.006115311741121573,0.0023404247170360896,2.5300748348236084,2019-08-06 15:03:53:753,-133.86364251119855,177.35715057493834,0,-52.628570556640625,11.845176696777344,-26.239316940307617
0.02816944010555744,0.27894043922424316,9.625469207763672,-0.0019046251923001184,0.009311885272192268,0.00020937558253977584,2.5399889945983887,2019-08-06 15:03:53:763,-134.7881998169117,177.3778691589925,0,-52.628570556640625,11.845176696777344,-26.239316940307617
0.02816944010555744,0.2645719349384308,9.64462661743164,0.0012919485988449018,0.007979980154394795,0.005803379635770335,2.550001621246338,2019-08-06 15:03:53:773,-135.6935753150591,177.39815849364587,0,-52.628570556640625,11.845176696777344,-26.239316940307617
-0.012541304342448711,0.24780869483947754,9.58236312866211,-0.0005727194893354142,0.013307602706179285,0.0007421378864821609,2.5599617958068848,2019-08-06 15:03:53:783,-129.38864601360478,177.42088780035283,0,-52.628570556640625,11.845176696777344,-26.239316940307617
0.037748441100120544,0.2957036793231964,9.627863883972168,0.001824710854023351,0.009311885272192268,-0.0013889113292873795,2.569977283477783,2019-08-06 15:03:53:793,-130.40161697735388,177.43626007114273,0,-52.628570556640625,11.845176696777344,-26.239316940307617
0.05690643563866615,0.3076774477958679,9.627863883972168,0.0002264239747054862,0.016504176237249982,0.003672330354982212,2.5799803733825684,2019-08-06 15:03:53:803,-131.3960816059056,177.45080015117898,0,-52.628570556640625,11.845176696777344,-26.239316940307617
0.011406192556023598,0.27894043922424316,9.647021293640137,0.0010255674062370958,0.010111029175108591,0.0007421378864821609,2.5899744033813477,2019-08-06 15:03:53:813,-132.37247903649092,177.46808409514622,0,-52.628570556640625,11.845176696777344,-26.239316940307617
0.025774691253900528,0.2645719349384308,9.615889549255371,-0.003236530830246241,0.010910172037727614,0.00553699850818111,2.599980354309082,2019-08-06 15:03:53:823,-133.32808761219613,177.4890199915011,0,-51.728939056396484,11.245421409606934,-25.63956069946289
-0.007751804776489735,0.31246694922447205,9.599126815795898,-0.004035674213013915,0.010111029175108591,-0.0024544358396442778,2.6099798679351807,2019-08-06 15:03:53:833,-127.06812830044984,177.50421728614853,0,-51.728939056396484,11.245421409606934,-25.63956069946289
0.02816944010555744,0.2573876976966858,9.59194278717041,0.001824710854023351,0.011709315940643939,-0.001655292456876604,2.619985818862915,2019-08-06 15:03:53:843,-128.12997911797424,177.5223659343042,0,-51.728939056396484,11.245421409606934,-25.63956069946289
0.02098519168794155,0.26696670055389404,9.59194278717041,0.0012919485988449018,0.014905889471714633,0.00553699850818111,2.629981517791748,2019-08-06 15:03:53:853,-129.17323854955748,177.53930816121385,0,-51.728939056396484,11.245421409606934,-25.63956069946289
0.013800942339003086,0.2813352048397064,9.625469207763672,0.004488522389989922,0.013041222098738713,0.0012749002066791914,2.639997959136963,2019-08-06 15:03:53:863,-130.19546544036416,177.55251402987028,0,-51.728939056396484,11.245421409606934,-25.63956069946289
0.00422194367274642,0.23822970688343048,9.618284225463867,0.0015583297264341264,0.01064379143028704,-0.001122530201698155,2.6499838829040527,2019-08-06 15:03:53:873,-131.19702119398127,177.57221326373025,0,-51.728939056396484,11.245421409606934,-25.63956069946289
0.02816944010555744,0.28612470626831055,9.635047912597656,0.004754903517579147,0.01064379143028704,0.00047575672638364575,2.6599817276000977,2019-08-06 15:03:53:883,-132.17570571787877,177.584080314176,0,-51.728939056396484,11.245421409606934,-25.63956069946289
0.025774691253900528,0.23822970688343048,9.637442588806152,-0.0003063383292368989,0.008779123017013819,0.0018076624618576407,2.669987916946411,2019-08-06 15:03:53:893,-133.1340594533882,177.6042504930721,0,-51.728939056396484,11.245421409606934,-25.63956069946289
0.037748441100120544,0.27894043922424316,9.639837265014648,0.0015583297264341264,0.011975696548084513,0.006602523018538008,2.6799795627593994,2019-08-06 15:03:53:903,-134.07360973956958,177.61814199999586,0,-51.728939056396484,11.245421409606934,-25.63956069946289
0.03535369038581848,0.2837299406528473,9.63265323638916,-0.002171006319889343,0.012774840451000838,-0.0021880547120550534,2.6899750232696533,2019-08-06 15:03:53:913,-134.99510163233757,177.6332544196576,0,-51.728939056396484,11.245421409606934,-25.63956069946289
-0.026909802109003067,0.26696670055389404,9.625469207763672,-0.0003063383292368989,0.013840364961357736,-0.000856149009090349,2.6999785900115967,2019-08-06 15:03:53:923,-128.7061773309484,177.6489870647728,0,-51.728939056396484,11.245421409606934,-25.63956069946289
-0.012541304342448711,0.25978243350982666,9.618284225463867,0.0020910919816125757,0.011176553685465489,0.0007421378864821609,2.709987163543701,2019-08-06 15:03:53:933,-122.5398289457338,177.66388939861733,0,-51.728939056396484,11.245421409606934,-25.63956069946289
0.013800942339003086,0.2909142076969147,9.630258560180664,0.0031566164919694735,0.012242078195822388,0.0031395680998037635,2.719987630844116,2019-08-06 15:03:53:943,-123.69426440933893,177.67423339818654,0,-51.728939056396484,11.245421409606934,-25.63956069946289
-0.02212030254304409,0.27894043922424316,9.54165267944336,-0.0008391006169246387,0.010111029175108591,-0.000856149009090349,2.729983329772949,2019-08-06 15:03:53:953,-117.62871056645491,177.68772955164337,0,-51.728939056396484,11.245421409606934,-25.63956069946289
0.016195692121982574,0.2430191934108734,9.60391616821289,-0.0005727194893354142,0.011442934292906064,0.0028731869722145387,2.7399826049804688,2019-08-06 15:03:53:963,-118.88062865325956,177.70530625418272,0,-51.728939056396484,11.245421409606934,-25.63956069946289
0.02816944010555744,0.26696670055389404,9.58236312866211,0.0026238542367910244,0.012774840451000838,0.005803379635770335,2.749983310699463,2019-08-06 15:03:53:973,-120.10682098358662,177.71780953564317,0,-51.728939056396484,11.245421409606934,-25.63956069946289
-0.0029623054433614016,0.2765457034111023,9.618284225463867,0.0002264239747054862,0.015172271119452508,-0.000856149009090349,2.7599825859069824,2019-08-06 15:03:53:983,-114.11355608300396,177.7303878321077,0,-51.728939056396484,11.245421409606934,-25.63956069946289
0.013800942339003086,0.2430191934108734,9.680547714233398,-0.002171006319889343,0.013840364961357736,-5.7005565367755386e-05,2.7699875831604004,2019-08-06 15:03:53:993,-115.43742653296903,177.74823882857388,0,-51.728939056396484,11.245421409606934,-25.63956069946289
0.011406192556023598,0.26696670055389404,9.618284225463867,-0.005367579850960038,0.01064379143028704,-0.0024544358396442778,2.7799856662750244,2019-08-06 15:03:54:003,-116.73329440600321,177.7644893029983,0,-51.728939056396484,11.245421409606934,-25.63956069946289
-0.010146554559469223,0.25259819626808167,9.623074531555176,-3.9957173202045016e-05,0.011709315940643939,-0.00778205891157742,2.7899794578552246,2019-08-06 15:03:54:013,-110.80640745209743,177.77914945457042,0,-51.728939056396484,11.245421409606934,-25.63956069946289
0.023379940539598465,0.30049318075180054,9.656600952148438,-0.003502911957835466,0.013041222098738713,0.0007421378864821609,2.799980878829956,2019-08-06 15:03:54:023,-112.19482856041206,177.78988663698644,0,-51.728939056396484,11.245421409606934,-25.63956069946289
0.030564190819859505,0.25259819626808167,9.611100196838379,0.0004928051185493561,0.01410674660909561,0.003405949227392988,2.809987783432007,2019-08-06 15:03:54:033,-113.55521427164054,177.80370206979566,0,-51.728939056396484,11.245421409606934,-25.63956069946289
-0.017330802977085114,0.2621771991252899,9.615889549255371,0.001824710854023351,0.013041222098738713,0.0010085190140713856,2.8199775218963623,2019-08-06 15:03:54:043,-107.69349039211909,177.81536886049827,0,-51.728939056396484,11.245421409606934,-25.63956069946289
0.04014318808913231,0.25978243350982666,9.651811599731445,0.0010255674062370958,0.007979980154394795,0.00020937558253977584,2.8299813270568848,2019-08-06 15:03:54:053,-109.13933704703639,177.8276500701075,0,-51.728939056396484,11.245421409606934,-25.63956069946289
-0.005357054993510246,0.25259819626808167,9.627863883972168,0.0010255674062370958,0.010910172037727614,0.00047575672638364575,2.8399887084960938,2019-08-06 15:03:54:063,-103.36331847539559,177.84046325720752,0,-51.728939056396484,11.245421409606934,-25.63956069946289
0.02816944010555744,0.28612470626831055,9.635047912597656,-0.0016382440647108938,0.013041222098738713,0.001541281334268416,2.849977493286133,2019-08-06 15:03:54:073,-104.9000162833531,177.85055344435747,0,-53.52820587158203,10.34578800201416,-25.63956069946289
0.0473274365067482,0.2885194420814514,9.658995628356934,0.0010255674062370958,0.010111029175108591,0.0007421378864821609,2.859990119934082,2019-08-06 15:03:54:083,-106.40208570872441,177.858746847857,0,-53.52820587158203,10.34578800201416,-25.63956069946289
0.00422194367274642,0.2885194420814514,9.639837265014648,-0.0008391006169246387,0.012508459843560263,0.003405949227392988,2.869981288909912,2019-08-06 15:03:54:093,-107.88055940054161,177.86775573615262,0,-53.52820587158203,10.34578800201416,-25.63956069946289
0.023379940539598465,0.2502034604549408,9.635047912597656,-0.0013718629371216693,0.010377409782549165,0.003938711482571438,2.879979133605957,2019-08-06 15:03:54:103,-109.32599324032282,177.88142024087014,0,-53.52820587158203,10.34578800201416,-25.63956069946289
0.037748441100120544,0.2573876976966858,9.66139030456543,-0.0008391006169246387,0.010910172037727614,-0.002987198094822727,2.889984607696533,2019-08-06 15:03:54:113,-110.74112554152683,177.89374229603018,0,-53.52820587158203,10.34578800201416,-25.63956069946289
-0.03169930353760719,0.27894043922424316,9.59194278717041,-0.0005727194893354142,0.014373127216536186,0.0007421378864821609,2.8999743461608887,2019-08-06 15:03:54:123,-104.93815223076363,177.90287405954712,0,-53.52820587158203,10.34578800201416,-25.63956069946289
0.05451168864965439,0.2549929618835449,9.658995628356934,-0.0005727194893354142,0.014905889471714633,0.0028731869722145387,2.909986972808838,2019-08-06 15:03:54:133,-106.44130234881834,177.91489395547052,0,-53.52820587158203,10.34578800201416,-25.63956069946289
0.025774691253900528,0.2621771991252899,9.589548110961914,-0.0011054818095324445,0.008512742409573244,0.0026068058446253144,2.919985771179199,2019-08-06 15:03:54:143,-107.9141756477388,177.9258953234653,0,-53.52820587158203,10.34578800201416,-25.63956069946289
0.06409068405628204,0.26696670055389404,9.625469207763672,-0.0011054818095324445,0.012242078195822388,0.00047575672638364575,2.929981231689453,2019-08-06 15:03:54:153,-109.3551330182681,177.93622352535192,0,-53.52820587158203,10.34578800201416,-25.63956069946289
0.00901144277304411,0.30049318075180054,9.649415969848633,0.0007591862786478714,0.007713599026805571,-0.0005897678815011245,2.939985513687134,2019-08-06 15:03:54:163,-110.77129323504285,177.9413990762613,0,-53.52820587158203,10.34578800201416,-25.63956069946289
0.06409068405628204,0.3076774477958679,9.64462661743164,0.0007591862786478714,0.01064379143028704,0.0018076624618576407,2.9499902725219727,2019-08-06 15:03:54:173,-112.1542319375562,177.94560064946506,0,-53.52820587158203,10.34578800201416,-25.63956069946289
0.04014318808913231,0.25978243350982666,9.627863883972168,0.0010255674062370958,0.012508459843560263,-0.0003233867214026093,2.959984302520752,2019-08-06 15:03:54:183,-113.51338874425754,177.95520112556287,0,-53.52820587158203,10.34578800201416,-25.63956069946289
0.03295893967151642,0.24062444269657135,9.635047912597656,-0.0013718629371216693,0.01410674660909561,0.0023404247170360896,2.969980239868164,2019-08-06 15:03:54:193,-114.84711881283334,177.96825508865416,0,-53.52820587158203,10.34578800201416,-25.63956069946289
0.023379940539598465,0.2549929618835449,9.606310844421387,-0.004568436468192365,0.013307602706179285,0.00047575672638364575,2.9799840450286865,2019-08-06 15:03:54:203,-116.15486254475036,177.9810457280096,0,-53.52820587158203,10.34578800201416,-25.63956069946289
0.044932689517736435,0.2909142076969147,9.611100196838379,0.0004928051185493561,0.012242078195822388,-0.000856149009090349,2.9899790287017822,2019-08-06 15:03:54:213,-117.43327854465323,177.98647360960672,0,-53.52820587158203,10.34578800201416,-25.63956069946289
0.06888018548488617,0.27175620198249817,9.618284225463867,-0.002171006319889343,0.012508459843560263,-0.000856149009090349,2.999985694885254,2019-08-06 15:03:54:223,-118.68343494255191,177.99559573644163,0,-53.52820587158203,10.34578800201416,-25.63956069946289
0.02816944010555744,0.26696670055389404,9.635047912597656,-0.0005727194893354142,0.010111029175108591,0.0010085190140713856,3.009981155395508,2019-08-06 15:03:54:233,-119.91209075709082,178.00426249291166,0,-53.52820587158203,10.34578800201416,-25.63956069946289
0.08564343303442001,0.2502034604549408,9.656600952148438,0.0026238542367910244,0.009578266919930143,-0.003519960350001176,3.0199811458587646,2019-08-06 15:03:54:243,-121.10906437576044,178.01301981205705,0,-53.52820587158203,10.34578800201416,-25.63956069946289
0.0473274365067482,0.2549929618835449,9.630258560180664,-0.004568436468192365,0.010910172037727614,-0.0003233867214026093,3.029982566833496,2019-08-06 15:03:54:253,-122.28737850449144,178.02499013202723,0,-53.52820587158203,10.34578800201416,-25.63956069946289
-0.0029623054433614016,0.25978243350982666,9.678153038024902,0.0004928051185493561,0.010111029175108591,0.00047575672638364575,3.039973735809326,2019-08-06 15:03:54:263,-116.24765399363172,178.0334624104947,0,-53.52820587158203,10.34578800201416,-25.63956069946289
-0.005357054993510246,0.26696670055389404,9.682943344116211,-0.0005727194893354142,0.008512742409573244,0.003405949227392988,3.0499889850616455,2019-08-06 15:03:54:273,-110.32812206979959,178.0415294016311,0,-53.52820587158203,10.34578800201416,-25.63956069946289
0.00901144277304411,0.2430191934108734,9.63265323638916,-0.0003063383292368989,0.012508459843560263,-0.0003233867214026093,3.0599770545959473,2019-08-06 15:03:54:283,-111.72750271713903,178.05196680244924,0,-53.52820587158203,10.34578800201416,-25.63956069946289
0.04014318808913231,0.2549929618835449,9.663784980773926,0.0023574731092018,0.006648073996300022,0.0007421378864821609,3.0699777603149414,2019-08-06 15:03:54:293,-113.09192572547079,178.05937402710433,0,-53.52820587158203,10.34578800201416,-25.63956069946289
0.00901144277304411,0.2549929618835449,9.66139030456543,0.0012919485988449018,0.01357398435391716,0.003405949227392988,3.079984188079834,2019-08-06 15:03:54:303,-114.43664505732418,178.06722353570748,0,-53.52820587158203,10.34578800201416,-25.63956069946289
0.018590440973639488,0.27894043922424316,9.651811599731445,-0.0013718629371216693,0.009578266919930143,-5.7005565367755386e-05,3.0899758338928223,2019-08-06 15:03:54:313,-115.75107869140736,178.07354060949675,0,-53.52820587158203,10.34578800201416,-25.63956069946289
0.013800942339003086,0.26696670055389404,9.596732139587402,0.0007591862786478714,0.009844647527370716,0.00020937558253977584,3.0999855995178223,2019-08-06 15:03:54:323,-117.03994234600262,178.0797736644332,0,-53.07838821411133,11.69523811340332,-27.288888931274414
0.018590440973639488,0.2813352048397064,9.613494873046875,-0.0024373874474785677,0.01064379143028704,0.0012749002066791914,3.109978675842285,2019-08-06 15:03:54:333,-118.30289988290461,178.0860206256355,0,-53.07838821411133,11.69523811340332,-27.288888931274414
-0.0005675556603819132,0.2693614363670349,9.64462661743164,-0.0005727194893354142,0.008779123017013819,-0.001655292456876604,3.1199820041656494,2019-08-06 15:03:54:343,-112.34184042505454,178.09262633895852,0,-53.07838821411133,11.69523811340332,-27.288888931274414
0.006616693455725908,0.2621771991252899,9.618284225463867,-0.0024373874474785677,0.008512742409573244,0.0031395680998037635,3.1299846172332764,2019-08-06 15:03:54:353,-113.69899645078966,178.10091488585496,0,-53.07838821411133,11.69523811340332,-27.288888931274414
0.02098519168794155,0.2909142076969147,9.611100196838379,-0.0016382440647108938,0.010377409782549165,-0.001655292456876604,3.139984607696533,2019-08-06 15:03:54:363,-115.02834139194607,178.10514182582799,0,-53.07838821411133,11.69523811340332,-27.288888931274414
0.018590440973639488,0.2765457034111023,9.62067985534668,-0.005367579850960038,0.010377409782549165,-0.0024544358396442778,3.1499829292297363,2019-08-06 15:03:54:373,-116.33138618981626,178.1131221843573,0,-53.07838821411133,11.69523811340332,-27.288888931274414
0.02816944010555744,0.2573876976966858,9.639837265014648,0.0007591862786478714,0.013307602706179285,-0.004851865987947299,3.1599786281585693,2019-08-06 15:03:54:383,-117.60887887895554,178.11984448287353,0,-53.07838821411133,11.69523811340332,-27.288888931274414
-0.0029623054433614016,0.3028879463672638,9.546442031860352,0.003955759874737148,0.009578266919930143,-0.003519960350001176,3.1699845790863037,2019-08-06 15:03:54:393,-111.66243826867202,178.11887988825256,0,-53.07838821411133,11.69523811340332,-27.288888931274414
0.023379940539598465,0.30049318075180054,9.601521492004395,0.0007591862786478714,0.010910172037727614,-0.001655292456876604,3.1799821853637695,2019-08-06 15:03:54:403,-113.0325237565676,178.12022476503907,0,-53.07838821411133,11.69523811340332,-27.288888931274414
0.023379940539598465,0.2693614363670349,9.58236312866211,0.0034229976195586987,0.015172271119452508,-0.002987198094822727,3.18998646736145,2019-08-06 15:03:54:413,-114.37760023308991,178.1236940867819,0,-53.07838821411133,11.69523811340332,-27.288888931274414
0.037748441100120544,0.2813352048397064,9.639837265014648,-3.9957173202045016e-05,0.013041222098738713,-0.0019216735844658289,3.199979782104492,2019-08-06 15:03:54:423,-115.69287871709585,178.12780897918952,0,-53.07838821411133,11.69523811340332,-27.288888931274414
0.013800942339003086,0.2813352048397064,9.64462661743164,0.0007591862786478714,0.010377409782549165,0.0010085190140713856,3.2099781036376953,2019-08-06 15:03:54:433,-116.98320732369625,178.13140953548637,0,-53.07838821411133,11.69523811340332,-27.288888931274414
0.05451168864965439,0.2549929618835449,9.594337463378906,0.002890235364380249,0.012508459843560263,-0.0019216735844658289,3.2199816703796387,2019-08-06 15:03:54:443,-118.24405854170921,178.13670956367758,0,-53.07838821411133,11.69523811340332,-27.288888931274414
-0.0029623054433614016,0.2837299406528473,9.551231384277344,0.0012919485988449018,0.013307602706179285,-0.0027208169672335025,3.2299773693084717,2019-08-06 15:03:54:453,-112.28700176247186,178.13921956900543,0,-53.07838821411133,11.69523811340332,-27.288888931274414
0.025774691253900528,0.2813352048397064,9.584757804870605,-0.0019046251923001184,0.011176553685465489,-0.0021880547120550534,3.2400901317596436,2019-08-06 15:03:54:463,-113.64452660000478,178.14389101588094,0,-53.07838821411133,11.69523811340332,-27.288888931274414
0.00901144277304411,0.3028879463672638,9.58236312866211,0.0015583297264341264,0.013307602706179285,0.0023404247170360896,3.2504265308380127,2019-08-06 15:03:54:473,-114.97828199171845,178.14389968658895,0,-53.07838821411133,11.69523811340332,-27.288888931274414
0.030564190819859505,0.30528268218040466,9.663784980773926,0.002890235364380249,0.014373127216536186,-0.0003233867214026093,3.260589599609375,2019-08-06 15:03:54:483,-116.28329420881357,178.14318448655482,0,-53.07838821411133,11.69523811340332,-27.288888931274414
0.030564190819859505,0.2837299406528473,9.66139030456543,-0.002171006319889343,0.011709315940643939,0.0007421378864821609,3.2702457904815674,2019-08-06 15:03:54:493,-117.5603519059287,178.1478550077721,0,-53.07838821411133,11.69523811340332,-27.288888931274414
0.013800942339003086,0.2909142076969147,9.611100196838379,0.0002264239747054862,0.011975696548084513,-0.004851865987947299,3.2804388999938965,2019-08-06 15:03:54:503,-118.81435359606313,178.15009368248562,0,-53.07838821411133,11.69523811340332,-27.288888931274414
0.02098519168794155,0.2693614363670349,9.615889549255371,0.004488522389989922,0.012508459843560263,0.0010085190140713856,3.2904324531555176,2019-08-06 15:03:54:513,-120.04258469982555,178.15248200323947,0,-53.07838821411133,11.69523811340332,-27.288888931274414
0.011406192556023598,0.30528268218040466,9.642231941223145,0.0015583297264341264,0.008512742409573244,-0.0053846282431257485,3.3000192642211914,2019-08-06 15:03:54:523,-121.24495984917901,178.15232480202926,0,-53.07838821411133,11.69523811340332,-27.288888931274414
0.00422194367274642,0.3028879463672638,9.647021293640137,0.0031566164919694735,0.010377409782549165,-0.0032535792224119516,3.310023069381714,2019-08-06 15:03:54:533,-122.4253882699027,178.15153864934223,0,-53.07838821411133,11.69523811340332,-27.288888931274414
0.016195692121982574,0.2765457034111023,9.611100196838379,0.0031566164919694735,0.005316168358353898,-0.004851865987947299,3.3200156688690186,2019-08-06 15:03:54:543,-123.57793233296087,178.1537737599528,0,-53.07838821411133,11.69523811340332,-27.288888931274414
0.0018271940061822534,0.2693614363670349,9.651811599731445,0.001824710854023351,0.011176553685465489,0.0007421378864821609,3.3300371170043945,2019-08-06 15:03:54:553,-124.71244583160947,178.15769975787333,0,-53.07838821411133,11.69523811340332,-27.288888931274414
-0.0005675556603819132,0.2573876976966858,9.66139030456543,0.0004928051185493561,0.009045504664751694,-0.0053846282431257485,3.340012550354004,2019-08-06 15:03:54:563,-118.6233307925307,178.16374878130367,0,-53.07838821411133,11.69523811340332,-27.288888931274414
-0.010146554559469223,0.2909142076969147,9.570389747619629,-0.0013718629371216693,0.014905889471714633,-0.0019216735844658289,3.3500258922576904,2019-08-06 15:03:54:573,-112.6604598825518,178.1664230912399,0,-52.478633880615234,11.69523811340332,-25.789499282836914
0.0018271940061822534,0.27894043922424316,9.654206275939941,0.001824710854023351,0.011709315940643939,-0.001655292456876604,3.3600192070007324,2019-08-06 15:03:54:583,-114.01360417386599,178.168970838289,0,-52.478633880615234,11.69523811340332,-25.789499282836914
0.025774691253900528,0.27894043922424316,9.60391616821289,-3.9957173202045016e-05,0.011975696548084513,-0.003519960350001176,3.3700168132781982,2019-08-06 15:03:54:593,-115.33697945287783,178.17234072089474,0,-52.478633880615234,11.69523811340332,-25.789499282836914
0.00422194367274642,0.2502034604549408,9.649415969848633,-3.9957173202045016e-05,0.010910172037727614,0.0026068058446253144,3.3800389766693115,2019-08-06 15:03:54:603,-116.63587811143279,178.17921015728484,0,-52.478633880615234,11.69523811340332,-25.789499282836914
0.00901144277304411,0.27894043922424316,9.611100196838379,0.0010255674062370958,0.009045504664751694,0.00020937558253977584,3.390007972717285,2019-08-06 15:03:54:613,-117.90714942162579,178.1818036104309,0,-52.478633880615234,11.69523811340332,-25.789499282836914
-0.0005675556603819132,0.2957036793231964,9.670969009399414,0.004488522389989922,0.010377409782549165,0.0023404247170360896,3.4000184535980225,2019-08-06 15:03:54:623,-111.95490669158603,178.18061750605247,0,-52.478633880615234,11.69523811340332,-25.789499282836914
0.016195692121982574,0.2645719349384308,9.618284225463867,-3.9957173202045016e-05,0.009844647527370716,-0.003786341477590401,3.4100167751312256,2019-08-06 15:03:54:633,-113.31940584463058,178.18551462101715,0,-52.478633880615234,11.69523811340332,-25.789499282836914
0.00422194367274642,0.29330894351005554,9.587152481079102,0.0004928051185493561,0.012508459843560263,0.0020740435894468653,3.4200363159179688,2019-08-06 15:03:54:643,-114.65955030264503,178.1864799165363,0,-52.478633880615234,11.69523811340332,-25.789499282836914
-0.02930455282330513,0.27894043922424316,9.651811599731445,0.002890235364380249,0.013041222098738713,-0.005118247115536523,3.4300148487091064,2019-08-06 15:03:54:653,-108.77714539068646,178.18802282766916,0,-52.478633880615234,11.69523811340332,-25.789499282836914
0.013800942339003086,0.24780869483947754,9.635047912597656,0.0004928051185493561,0.011975696548084513,0.003405949227392988,3.44002366065979,2019-08-06 15:03:54:663,-110.20669137298641,178.19451952834817,0,-52.478633880615234,11.69523811340332,-25.789499282836914
-0.005357054993510246,0.25978243350982666,9.682943344116211,0.003955759874737148,0.010111029175108591,0.0018076624618576407,3.450019598007202,2019-08-06 15:03:54:673,-104.40886654192968,178.19767263845668,0,-52.478633880615234,11.69523811340332,-25.789499282836914
0.030564190819859505,0.2693614363670349,9.699706077575684,-0.0013718629371216693,0.008512742409573244,-0.0021880547120550534,3.4600205421447754,2019-08-06 15:03:54:683,-105.92185873832315,178.20267558730708,0,-52.478633880615234,11.69523811340332,-25.789499282836914
0.04972218722105026,0.23583495616912842,9.642231941223145,0.001824710854023351,0.013840364961357736,-0.003519960350001176,3.470038652420044,2019-08-06 15:03:54:693,-107.40529788255498,178.2095738071048,0,-52.478633880615234,11.69523811340332,-25.789499282836914
0.044932689517736435,0.2621771991252899,9.589548110961914,0.0007591862786478714,0.013840364961357736,-0.0013889113292873795,3.480013370513916,2019-08-06 15:03:54:703,-108.85957437235983,178.2136357217834,0,-52.478633880615234,11.69523811340332,-25.789499282836914
0.03535369038581848,0.2957036793231964,9.675758361816406,-0.0013718629371216693,0.0074472173790676955,0.00553699850818111,3.4900217056274414,2019-08-06 15:03:54:713,-110.28238099709556,178.21512418419812,0,-52.478633880615234,11.69523811340332,-25.789499282836914
0.0018271940061822534,0.27415093779563904,9.579968452453613,-0.004035674213013915,0.009844647527370716,0.004737855125413436,3.5000181198120117,2019-08-06 15:03:54:723,-111.68204058992248,178.22030307715963,0,-52.478633880615234,11.69523811340332,-25.789499282836914
0.006616693455725908,0.31965118646621704,9.627863883972168,-0.0003063383292368989,0.010910172037727614,0.0012749002066791914,3.510087251663208,2019-08-06 15:03:54:733,-113.05378065167179,178.2180390586004,0,-52.478633880615234,11.69523811340332,-25.789499282836914
0.00901144277304411,0.26696670055389404,9.625469207763672,-0.0011054818095324445,0.009578266919930143,0.0028731869722145387,3.5200273990631104,2019-08-06 15:03:54:743,-114.39697821744369,178.22252095235277,0,-52.478633880615234,11.69523811340332,-25.789499282836914
0.023379940539598465,0.2885194420814514,9.601521492004395,0.0015583297264341264,0.010111029175108591,0.004737855125413436,3.5300192832946777,2019-08-06 15:03:54:753,-115.71192104755069,178.2227725878838,0,-52.478633880615234,11.69523811340332,-25.789499282836914
0.011406192556023598,0.2837299406528473,9.611100196838379,-0.002970149702657017,0.007713599026805571,0.001541281334268416,3.5400211811065674,2019-08-06 15:03:54:763,-117.0006546830857,178.22616635781506,0,-52.478633880615234,11.69523811340332,-25.789499282836914
-0.007751804776489735,0.3076774477958679,9.694916725158691,0.0010255674062370958,0.011176553685465489,0.0026068058446253144,3.550018072128296,2019-08-06 15:03:54:773,-111.06783150231915,178.22471283036506,0,-52.478633880615234,11.69523811340332,-25.789499282836914
0.013800942339003086,0.2573876976966858,9.649415969848633,0.0002264239747054862,0.011442934292906064,-5.7005565367755386e-05,3.560037136077881,2019-08-06 15:03:54:783,-112.45127338461958,178.22953238614969,0,-52.478633880615234,11.69523811340332,-25.789499282836914
0.013800942339003086,0.2502034604549408,9.642231941223145,-0.002970149702657017,0.010111029175108591,-0.0019216735844658289,3.570011615753174,2019-08-06 15:03:54:793,-113.80627060758447,178.23687685955076,0,-52.478633880615234,11.69523811340332,-25.789499282836914
0.023379940539598465,0.2909142076969147,9.551231384277344,-0.0005727194893354142,0.010377409782549165,-5.7005565367755386e-05,3.580014944076538,2019-08-06 15:03:54:803,-115.13316901735404,178.23756916450557,0,-52.478633880615234,11.69523811340332,-25.789499282836914
0.013800942339003086,0.24062444269657135,9.627863883972168,-0.0008391006169246387,0.011442934292906064,-0.001655292456876604,3.590022087097168,2019-08-06 15:03:54:813,-116.4352928211721,178.24465593044164,0,-52.478633880615234,11.69523811340332,-25.789499282836914
0.0018271940061822534,0.27415093779563904,9.654206275939941,0.0002264239747054862,0.013307602706179285,0.00047575672638364575,3.6000137329101562,2019-08-06 15:03:54:823,-117.71383604254083,178.24710390639405,0,-52.32869338989258,12.145054817199707,-25.939437866210938
-0.005357054993510246,0.24780869483947754,9.584757804870605,-0.0024373874474785677,0.011975696548084513,0.001541281334268416,3.6100354194641113,2019-08-06 15:03:54:833,-111.76693870993601,178.2539129610591,0,-52.32869338989258,12.145054817199707,-25.939437866210938
0.00901144277304411,0.2693614363670349,9.601521492004395,-0.0013718629371216693,0.009311885272192268,0.0018076624618576407,3.620016574859619,2019-08-06 15:03:54:843,-113.13574320255859,178.25746442108743,0,-52.32869338989258,12.145054817199707,-25.939437866210938
0.023379940539598465,0.26696670055389404,9.613494873046875,0.0004928051185493561,0.009844647527370716,-0.003519960350001176,3.630039691925049,2019-08-06 15:03:54:853,-114.4757820214424,178.26022389017632,0,-52.32869338989258,12.145054817199707,-25.939437866210938
-0.024515053257346153,0.28612470626831055,9.625469207763672,0.0020910919816125757,0.005848930613532348,-0.001122530201698155,3.640023946762085,2019-08-06 15:03:54:863,-108.59246389626591,178.2597938937277,0,-52.32869338989258,12.145054817199707,-25.939437866210938
0.0018271940061822534,0.3220459520816803,9.651811599731445,-0.002171006319889343,0.011709315940643939,-5.7005565367755386e-05,3.650026798248291,2019-08-06 15:03:54:873,-110.02697432368083,178.25759651255615,0,-52.32869338989258,12.145054817199707,-25.939437866210938
0.023379940539598465,0.2430191934108734,9.639837265014648,-0.0013718629371216693,0.010910172037727614,0.0010085190140713856,3.660040855407715,2019-08-06 15:03:54:883,-111.42979025912315,178.26433368107192,0,-52.32869338989258,12.145054817199707,-25.939437866210938
0.013800942339003086,0.2573876976966858,9.615889549255371,0.0012919485988449018,0.010111029175108591,0.004205092610160662,3.6700222492218018,2019-08-06 15:03:54:893,-112.80521657685564,178.26765762684195,0,-52.32869338989258,12.145054817199707,-25.939437866210938
0.013800942339003086,0.23583495616912842,9.656600952148438,-0.002171006319889343,0.01064379143028704,-5.7005565367755386e-05,3.6800241470336914,2019-08-06 15:03:54:903,-114.15345214474537,178.27554356236274,0,-52.32869338989258,12.145054817199707,-25.939437866210938
0.02098519168794155,0.2430191934108734,9.601521492004395,-0.003502911957835466,0.013840364961357736,0.0028731869722145387,3.69002366065979,2019-08-06 15:03:54:913,-115.47564954815016,178.2830019841581,0,-52.32869338989258,12.145054817199707,-25.939437866210938
0.025774691253900528,0.28612470626831055,9.663784980773926,0.001824710854023351,0.011709315940643939,0.003938711482571438,3.7000410556793213,2019-08-06 15:03:54:923,-116.76966644609055,178.28239730553787,0,-52.32869338989258,12.145054817199707,-25.939437866210938
0.023379940539598465,0.30528268218040466,9.651811599731445,0.0034229976195586987,0.009045504664751694,-0.0027208169672335025,3.7100207805633545,2019-08-06 15:03:54:933,-118.03656606959365,178.27859850624392,0,-52.32869338989258,12.145054817199707,-25.939437866210938
-0.017330802977085114,0.28612470626831055,9.678153038024902,0.0004928051185493561,0.013840364961357736,-0.0019216735844658289,3.7200233936309814,2019-08-06 15:03:54:943,-112.08566012975861,178.27888179567287,0,-52.32869338989258,12.145054817199707,-25.939437866210938
-0.0005675556603819132,0.3028879463672638,9.615889549255371,0.003689378747147923,0.016237795629809405,0.0007421378864821609,3.730024576187134,2019-08-06 15:03:54:953,-106.25313314052889,178.27514942130298,0,-52.32869338989258,12.145054817199707,-25.939437866210938
0.02816944010555744,0.25978243350982666,9.599126815795898,-0.0003063383292368989,0.013840364961357736,0.0031395680998037635,3.740023612976074,2019-08-06 15:03:54:963,-107.73247829982354,178.27881392818173,0,-52.32869338989258,12.145054817199707,-25.939437866210938
0.011406192556023598,0.30528268218040466,9.649415969848633,0.0031566164919694735,0.012508459843560263,0.0012749002066791914,3.7500369548797607,2019-08-06 15:03:54:973,-109.18350704685506,178.27522111802293,0,-52.32869338989258,12.145054817199707,-25.939437866210938
0.03295893967151642,0.3076774477958679,9.577573776245117,0.0002264239747054862,0.011442934292906064,-0.001122530201698155,3.7600209712982178,2019-08-06 15:03:54:983,-110.60230844810596,178.27279013181513,0,-52.32869338989258,12.145054817199707,-25.939437866210938
0.05451168864965439,0.25259819626808167,9.623074531555176,0.0010255674062370958,0.013307602706179285,-0.001655292456876604,3.770024538040161,2019-08-06 15:03:54:993,-111.9912459633499,178.27668578474612,0,-52.32869338989258,12.145054817199707,-25.939437866210938
0.018590440973639488,0.23344020545482635,9.567995071411133,0.0015583297264341264,0.011975696548084513,0.00020937558253977584,3.780021905899048,2019-08-06 15:03:55:003,-113.35591712104124,178.28232476492514,0,-52.32869338989258,12.145054817199707,-25.939437866210938
0.006616693455725908,0.23583495616912842,9.596732139587402,0.0002264239747054862,0.010377409782549165,-5.7005565367755386e-05,3.790020704269409,2019-08-06 15:03:55:013,-114.69383490149227,178.28839650472656,0,-52.32869338989258,12.145054817199707,-25.939437866210938
0.05690643563866615,0.25259819626808167,9.589548110961914,-0.002171006319889343,0.00718083625147847,-0.000856149009090349,3.800018548965454,2019-08-06 15:03:55:023,-115.99718933510698,178.29366975550178,0,-52.32869338989258,12.145054817199707,-25.939437866210938
0.03295893967151642,0.2693614363670349,9.60391616821289,0.0010255674062370958,0.016504176237249982,-0.001655292456876604,3.8100461959838867,2019-08-06 15:03:55:033,-117.28260567764222,178.29508779478726,0,-52.32869338989258,12.145054817199707,-25.939437866210938
0.0664854347705841,0.24780869483947754,9.623074531555176,0.0023574731092018,0.012242078195822388,0.00020937558253977584,3.8200204372406006,2019-08-06 15:03:55:043,-118.53589280926658,178.29836319480282,0,-52.32869338989258,12.145054817199707,-25.939437866210938
0.0473274365067482,0.21667695045471191,9.627863883972168,0.002890235364380249,0.011442934292906064,0.00020937558253977584,3.8300561904907227,2019-08-06 15:03:55:053,-119.7659902155986,178.30498256463548,0,-52.32869338989258,12.145054817199707,-25.939437866210938
-0.0149360541254282,0.27415093779563904,9.706890106201172,0.0007591862786478714,0.009578266919930143,0.00047575672638364575,3.840019702911377,2019-08-06 15:03:55:063,-113.77779219772142,178.30610278339145,0,-52.32869338989258,12.145054817199707,-25.939437866210938
0.05690643563866615,0.26696670055389404,9.663784980773926,0.0020910919816125757,0.012774840451000838,-0.0005897678815011245,3.850023031234741,2019-08-06 15:03:55:073,-115.10266400398898,178.30715777256242,0,-52.77851104736328,12.894749641418457,-25.789499282836914
0.030564190819859505,0.27175620198249817,9.55362606048584,0.0031566164919694735,0.016237795629809405,-0.0005897678815011245,3.86004376411438,2019-08-06 15:03:55:083,-116.4060810989869,178.30665132792456,0,-52.77851104736328,12.894749641418457,-25.789499282836914
0.059301186352968216,0.2909142076969147,9.596732139587402,-0.002970149702657017,0.010910172037727614,0.004737855125413436,3.870030403137207,2019-08-06 15:03:55:093,-117.67699646080617,178.30745729238822,0,-52.77851104736328,12.894749641418457,-25.789499282836914
0.00422194367274642,0.2645719349384308,9.615889549255371,0.0015583297264341264,0.009311885272192268,0.004471473997824211,3.880021095275879,2019-08-06 15:03:55:103,-118.92817715116159,178.30891315009163,0,-52.77851104736328,12.894749641418457,-25.789499282836914
0.03535369038581848,0.2645719349384308,9.647021293640137,-0.0005727194893354142,0.009578266919930143,0.001541281334268416,3.8900249004364014,2019-08-06 15:03:55:113,-120.15079439053304,178.31163744904228,0,-52.77851104736328,12.894749641418457,-25.789499282836914
0.0018271940061822534,0.2957036793231964,9.656600952148438,0.0007591862786478714,0.007713599026805571,-0.0005897678815011245,3.900021553039551,2019-08-06 15:03:55:123,-121.35189140144355,178.30989938494994,0,-52.77851104736328,12.894749641418457,-25.789499282836914
0.03535369038581848,0.2310454547405243,9.630258560180664,0.0015583297264341264,0.006381692868710797,0.005270617380591885,3.910041332244873,2019-08-06 15:03:55:133,-122.52423721522358,178.31533757402823,0,-52.77851104736328,12.894749641418457,-25.789499282836914
0.04014318808913231,0.2885194420814514,9.66139030456543,-0.0019046251923001184,0.011709315940643939,0.003405949227392988,3.9200191497802734,2019-08-06 15:03:55:143,-123.6755513863492,178.31588742539392,0,-52.77851104736328,12.894749641418457,-25.789499282836914
0.03295893967151642,0.2573876976966858,9.63265323638916,0.001824710854023351,0.009311885272192268,0.00020937558253977584,3.930025339126587,2019-08-06 15:03:55:153,-124.80335137366137,178.3179325084662,0,-52.77851104736328,12.894749641418457,-25.789499282836914
0.011406192556023598,0.26696670055389404,9.611100196838379,-0.0005727194893354142,0.013041222098738713,-5.7005565367755386e-05,3.94002366065979,2019-08-06 15:03:55:163,-125.91324580472491,178.3200735695283,0,-52.77851104736328,12.894749641418457,-25.789499282836914
0.04972218722105026,0.2549929618835449,9.618284225463867,-0.0024373874474785677,0.014639508864274061,-0.000856149009090349,3.95003604888916,2019-08-06 15:03:55:173,-126.9972873226382,178.3246698163373,0,-52.77851104736328,12.894749641418457,-25.789499282836914
0.02098519168794155,0.2621771991252899,9.649415969848633,0.0034229976195586987,0.00718083625147847,0.001541281334268416,3.960022211074829,2019-08-06 15:03:55:183,-128.058875935758,178.3251298977817,0,-52.77851104736328,12.894749641418457,-25.789499282836914
0.006616693455725908,0.2645719349384308,9.680547714233398,0.003955759874737148,0.00718083625147847,0.003938711482571438,3.9700238704681396,2019-08-06 15:03:55:193,-129.10094787808737,178.3250953947886,0,-52.77851104736328,12.894749641418457,-25.789499282836914
0.03535369038581848,0.2837299406528473,9.615889549255371,-3.9957173202045016e-05,0.010910172037727614,0.0012749002066791914,3.9800264835357666,2019-08-06 15:03:55:203,-130.12084352440144,178.32481393307614,0,-52.77851104736328,12.894749641418457,-25.789499282836914
-0.03169930353760719,0.2885194420814514,9.601521492004395,0.006885952538292944,0.01810246300278533,0.0028731869722145387,3.9900341033935547,2019-08-06 15:03:55:213,-123.93238211976072,178.3200245997216,0,-52.77851104736328,12.894749641418457,-25.789499282836914
0.030564190819859505,0.2957036793231964,9.606310844421387,0.0023574731092018,0.011709315940643939,-5.7005565367755386e-05,4.000035047531128,2019-08-06 15:03:55:223,-125.05666394060864,178.31703756128084,0,-52.77851104736328,12.894749641418457,-25.789499282836914
0.018590440973639488,0.29809844493865967,9.587152481079102,-0.0005727194893354142,0.011709315940643939,-0.004585484860358075,4.010020017623901,2019-08-06 15:03:55:233,-126.1598735035819,178.31539881934862,0,-52.77851104736328,12.894749641418457,-25.789499282836914
0.018590440973639488,0.26696670055389404,9.613494873046875,-0.004035674213013915,0.008512742409573244,-0.005118247115536523,4.020025014877319,2019-08-06 15:03:55:243,-127.23924236275782,178.31954410751607,0,-52.77851104736328,12.894749641418457,-25.789499282836914
0.025774691253900528,0.2573876976966858,9.584757804870605,0.005021284645168371,0.01410674660909561,0.0028731869722145387,4.030023097991943,2019-08-06 15:03:55:253,-128.2992954038491,178.3195694637832,0,-52.77851104736328,12.894749641418457,-25.789499282836914
0.0473274365067482,0.27415093779563904,9.651811599731445,0.0010255674062370958,0.017036938492428433,-0.004851865987947299,4.040020227432251,2019-08-06 15:03:55:263,-129.33725404176732,178.32006244318094,0,-52.77851104736328,12.894749641418457,-25.789499282836914
-0.007751804776489735,0.25259819626808167,9.654206275939941,0.002890235364380249,0.010910172037727614,0.0007421378864821609,4.050020694732666,2019-08-06 15:03:55:273,-123.1575554019148,178.3220627008126,0,-52.77851104736328,12.894749641418457,-25.789499282836914
0.03295893967151642,0.29809844493865967,9.611100196838379,-0.0016382440647108938,0.009844647527370716,-0.002987198094822727,4.060035705566406,2019-08-06 15:03:55:283,-124.29601072319441,178.3210123049942,0,-52.77851104736328,12.894749641418457,-25.789499282836914
-0.0149360541254282,0.2837299406528473,9.625469207763672,-0.0013718629371216693,0.011975696548084513,0.005270617380591885,4.070021867752075,2019-08-06 15:03:55:293,-118.21858368225108,178.3215929182023,0,-52.77851104736328,12.894749641418457,-25.789499282836914
0.00901144277304411,0.2693614363670349,9.615889549255371,0.0026238542367910244,0.014905889471714633,0.0007421378864821609,4.080023288726807,2019-08-06 15:03:55:303,-119.46150895058503,178.32159642872543,0,-52.77851104736328,12.894749641418457,-25.789499282836914
-0.02212030254304409,0.2621771991252899,9.635047912597656,-0.0024373874474785677,0.015172271119452508,0.0007421378864821609,4.090023994445801,2019-08-06 15:03:55:313,-113.48342938974274,178.32535961826227,0,-52.77851104736328,12.894749641418457,-25.789499282836914
0.030564190819859505,0.28612470626831055,9.601521492004395,0.0023574731092018,0.013041222098738713,0.00020937558253977584,4.100048542022705,2019-08-06 15:03:55:323,-114.81745366459971,178.3233873525447,0,-52.92844772338867,12.744811058044434,-27.13895034790039
0.04253793880343437,0.26696670055389404,9.635047912597656,-0.0037692930854246903,0.010111029175108591,-0.0024544358396442778,4.110036849975586,2019-08-06 15:03:55:333,-116.12171619288506,178.32729081983175,0,-52.92844772338867,12.744811058044434,-27.13895034790039
0.018590440973639488,0.25978243350982666,9.594337463378906,0.0004928051185493561,0.011176553685465489,-5.7005565367755386e-05,4.120117902755737,2019-08-06 15:03:55:343,-117.40338797701685,178.32944608511116,0,-52.92844772338867,12.744811058044434,-27.13895034790039
-0.019725553691387177,0.27415093779563904,9.635047912597656,-0.0019046251923001184,0.017303320140166306,-0.005118247115536523,4.130009651184082,2019-08-06 15:03:55:353,-111.46727682964915,178.3313185044203,0,-52.92844772338867,12.744811058044434,-27.13895034790039
0.030564190819859505,0.2430191934108734,9.63265323638916,0.00555404690034682,0.013041222098738713,0.0007421378864821609,4.140029430389404,2019-08-06 15:03:55:363,-112.84163245305137,178.33266356174238,0,-52.92844772338867,12.744811058044434,-27.13895034790039
0.02816944010555744,0.27175620198249817,9.606310844421387,0.0010255674062370958,0.009045504664751694,-0.0005897678815011245,4.1500244140625,2019-08-06 15:03:55:373,-114.18651603411597,178.33302617146563,0,-52.92844772338867,12.744811058044434,-27.13895034790039
0.023379940539598465,0.2549929618835449,9.66139030456543,0.001824710854023351,0.01064379143028704,0.001541281334268416,4.16003942489624,2019-08-06 15:03:55:383,-115.50599812271987,178.3351024202189,0,-52.92844772338867,12.744811058044434,-27.13895034790039
0.044932689517736435,0.2957036793231964,9.639837265014648,0.0010255674062370958,0.009045504664751694,-0.0021880547120550534,4.170027732849121,2019-08-06 15:03:55:393,-116.79561001912928,178.33268505014075,0,-52.92844772338867,12.744811058044434,-27.13895034790039
0.006616693455725908,0.30049318075180054,9.647021293640137,-0.0011054818095324445,0.010111029175108591,0.003405949227392988,4.180020570755005,2019-08-06 15:03:55:403,-118.06458512190578,178.3309692676125,0,-52.92844772338867,12.744811058044434,-27.13895034790039
0.02098519168794155,0.29809844493865967,9.64462661743164,-0.002703768575067792,0.007979980154394795,0.00047575672638364575,4.190023183822632,2019-08-06 15:03:55:413,-119.30528201002733,178.33046147809785,0,-52.92844772338867,12.744811058044434,-27.13895034790039
0.018590440973639488,0.27175620198249817,9.718864440917969,-0.0005727194893354142,0.012774840451000838,-0.002987198094822727,4.200042009353638,2019-08-06 15:03:55:423,-120.52417100111066,178.33214100683847,0,-52.92844772338867,12.744811058044434,-27.13895034790039
0.00901144277304411,0.25259819626808167,9.625469207763672,0.006885952538292944,0.009311885272192268,0.0007421378864821609,4.210021734237671,2019-08-06 15:03:55:433,-121.71783277572047,178.33157456682446,0,-52.92844772338867,12.744811058044434,-27.13895034790039
0.00422194367274642,0.29330894351005554,9.678153038024902,0.0007591862786478714,0.013307602706179285,0.0020740435894468653,4.2200257778167725,2019-08-06 15:03:55:443,-122.89045145464615,178.32979879371385,0,-52.92844772338867,12.744811058044434,-27.13895034790039
0.016195692121982574,0.27415093779563904,9.613494873046875,0.0004928051185493561,0.007713599026805571,-0.001122530201698155,4.230023145675659,2019-08-06 15:03:55:453,-124.03504195810781,178.33025661427843,0,-52.92844772338867,12.744811058044434,-27.13895034790039
0.0018271940061822534,0.30049318075180054,9.615889549255371,0.0002264239747054862,0.010377409782549165,0.0010085190140713856,4.240048408508301,2019-08-06 15:03:55:463,-125.15996499600782,178.32772621282012,0,-52.92844772338867,12.744811058044434,-27.13895034790039
0.030564190819859505,0.26696670055389404,9.64462661743164,0.0010255674062370958,0.006914455123889247,0.0007421378864821609,4.250037908554077,2019-08-06 15:03:55:473,-126.25701263846898,178.3288851841709,0,-52.92844772338867,12.744811058044434,-27.13895034790039
0.016195692121982574,0.2765457034111023,9.62067985534668,-0.0016382440647108938,0.00718083625147847,0.0020740435894468653,4.26002311706543,2019-08-06 15:03:55:483,-127.33396939048363,178.33029580380804,0,-52.92844772338867,12.744811058044434,-27.13895034790039
0.025774691253900528,0.2693614363670349,9.630258560180664,0.0015583297264341264,0.01064379143028704,0.0026068058446253144,4.270023822784424,2019-08-06 15:03:55:493,-128.3901999458872,178.3307715519912,0,-52.92844772338867,12.744811058044434,-27.13895034790039
0.02098519168794155,0.24780869483947754,9.635047912597656,0.0012919485988449018,0.013041222098738713,0.005004236253002661,4.280019521713257,2019-08-06 15:03:55:503,-129.42721961888915,178.3339651160535,0,-52.92844772338867,12.744811058044434,-27.13895034790039
0.016195692121982574,0.23344020545482635,9.64462661743164,0.0002264239747054862,0.011176553685465489,0.0012749002066791914,4.2900261878967285,2019-08-06 15:03:55:513,-130.4430307582932,178.33942806810498,0,-52.92844772338867,12.744811058044434,-27.13895034790039
0.018590440973639488,0.2837299406528473,9.62067985534668,0.0010255674062370958,0.012508459843560263,0.0007421378864821609,4.300023555755615,2019-08-06 15:03:55:523,-131.438977479892,178.33827862889055,0,-52.92844772338867,12.744811058044434,-27.13895034790039
0.025774691253900528,0.29809844493865967,9.59194278717041,-0.0005727194893354142,0.012242078195822388,-0.0019216735844658289,4.310040235519409,2019-08-06 15:03:55:533,-132.41400410197312,178.33623386238892,0,-52.92844772338867,12.744811058044434,-27.13895034790039
-0.0149360541254282,0.2645719349384308,9.635047912597656,0.0002264239747054862,0.011709315940643939,0.003938711482571438,4.32002329826355,2019-08-06 15:03:55:543,-126.1740640225308,178.3379240974316,0,-52.92844772338867,12.744811058044434,-27.13895034790039
0.018590440973639488,0.2573876976966858,9.647021293640137,-0.0019046251923001184,0.00718083625147847,0.006868904146127233,4.330139875411987,2019-08-06 15:03:55:553,-127.25245352456251,178.34168113673016,0,-52.92844772338867,12.744811058044434,-27.13895034790039
0.04253793880343437,0.2118874490261078,9.651811599731445,-0.0005727194893354142,0.01570503337463096,-0.000856149009090349,4.3400092124938965,2019-08-06 15:03:55:563,-128.3110572828899,178.35001250259853,0,-52.92844772338867,12.744811058044434,-27.13895034790039
-0.0005675556603819132,0.30528268218040466,9.611100196838379,0.0007591862786478714,0.010111029175108591,-0.0013889113292873795,4.350026607513428,2019-08-06 15:03:55:573,-122.15059101080341,178.34619911301388,0,-52.92844772338867,11.545299530029297,-26.239316940307617
-0.026909802109003067,0.2837299406528473,9.587152481079102,0.0026238542367910244,0.010910172037727614,0.005803379635770335,4.360021114349365,2019-08-06 15:03:55:583,-116.11691828926122,178.34389939292686,0,-52.92844772338867,11.545299530029297,-26.239316940307617
-0.017330802977085114,0.2310454547405243,9.62067985534668,-3.9957173202045016e-05,0.011709315940643939,0.0031395680998037635,4.370038270950317,2019-08-06 15:03:55:593,-110.20323023175233,178.3495294302835,0,-52.92844772338867,11.545299530029297,-26.239316940307617
0.00901144277304411,0.26696670055389404,9.584757804870605,0.001824710854023351,0.009045504664751694,0.001541281334268416,4.380020380020142,2019-08-06 15:03:55:603,-111.6031582068015,178.3496068733112,0,-52.92844772338867,11.545299530029297,-26.239316940307617
0.02098519168794155,0.26696670055389404,9.649415969848633,-0.0019046251923001184,0.01064379143028704,0.004205092610160662,4.390021562576294,2019-08-06 15:03:55:613,-112.97458013305827,178.35198878384028,0,-52.92844772338867,11.545299530029297,-26.239316940307617
0.0018271940061822534,0.25259819626808167,9.687732696533203,-0.0003063383292368989,0.009311885272192268,0.0020740435894468653,4.400023698806763,2019-08-06 15:03:55:623,-114.320102128216,178.35524918860963,0,-52.92844772338867,11.545299530029297,-26.239316940307617
0.02098519168794155,0.27175620198249817,9.577573776245117,-0.004302055340603139,0.00824636128198402,0.0012749002066791914,4.410021543502808,2019-08-06 15:03:55:633,-115.6358186242274,178.35805354092497,0,-52.92844772338867,11.545299530029297,-26.239316940307617
-0.0005675556603819132,0.27175620198249817,9.575179100036621,0.0012919485988449018,0.013307602706179285,0.0028731869722145387,4.42003870010376,2019-08-06 15:03:55:643,-109.7306551948916,178.35765193157647,0,-52.92844772338867,11.545299530029297,-26.239316940307617
-0.007751804776489735,0.2837299406528473,9.618284225463867,0.0010255674062370958,0.01064379143028704,0.003938711482571438,4.4300243854522705,2019-08-06 15:03:55:653,-103.94293355463012,178.356130277826,0,-52.92844772338867,11.545299530029297,-26.239316940307617
0.0473274365067482,0.27894043922424316,9.630258560180664,0.0020910919816125757,0.010111029175108591,0.0028731869722145387,4.440019845962524,2019-08-06 15:03:55:663,-105.46411813444033,178.35465189244675,0,-52.92844772338867,11.545299530029297,-26.239316940307617
0.02816944010555744,0.27894043922424316,9.599126815795898,0.0010255674062370958,0.010910172037727614,0.004737855125413436,4.450026273727417,2019-08-06 15:03:55:673,-106.95760298074093,178.35369290675746,0,-52.92844772338867,11.545299530029297,-26.239316940307617
0.037748441100120544,0.24780869483947754,9.627863883972168,-0.0005727194893354142,0.0074472173790676955,0.00047575672638364575,4.460023641586304,2019-08-06 15:03:55:683,-108.41813859810541,178.35745267878423,0,-52.92844772338867,11.545299530029297,-26.239316940307617
0.06169593706727028,0.2885194420814514,9.613494873046875,0.0004928051185493561,0.007979980154394795,-0.000856149009090349,4.470040798187256,2019-08-06 15:03:55:693,-109.84691029026285,178.35564563364505,0,-52.92844772338867,11.545299530029297,-26.239316940307617
0.0018271940061822534,0.2573876976966858,9.613494873046875,0.0004928051185493561,0.010910172037727614,0.0018076624618576407,4.480024099349976,2019-08-06 15:03:55:703,-111.25587010237241,178.3575835357346,0,-52.92844772338867,11.545299530029297,-26.239316940307617
0.025774691253900528,0.27175620198249817,9.639837265014648,-0.0008391006169246387,0.010377409782549165,-0.0024544358396442778,4.490022420883179,2019-08-06 15:03:55:713,-112.63351471829715,178.3586070406155,0,-52.92844772338867,11.545299530029297,-26.239316940307617
0.016195692121982574,0.27175620198249817,9.647021293640137,0.0002264239747054862,0.007979980154394795,0.0020740435894468653,4.500025272369385,2019-08-06 15:03:55:723,-113.9834026559212,178.35903586529398,0,-52.92844772338867,11.545299530029297,-26.239316940307617
-0.0005675556603819132,0.2813352048397064,9.642231941223145,0.0004928051185493561,0.012242078195822388,-5.7005565367755386e-05,4.51003623008728,2019-08-06 15:03:55:733,-108.11068349553007,178.3581527872514,0,-52.92844772338867,11.545299530029297,-26.239316940307617
0.018590440973639488,0.28612470626831055,9.663784980773926,0.0026238542367910244,0.010111029175108591,0.0028731869722145387,4.520022630691528,2019-08-06 15:03:55:743,-109.55193501298916,178.35560016047967,0,-52.92844772338867,11.545299530029297,-26.239316940307617
