ACCELEROMETER X (m/s²),ACCELEROMETER Y (m/s²),ACCELEROMETER Z (m/s²),GYROSCOPE X (rad/s),GYROSCOPE Y (rad/s),GYROSCOPE Z (rad/s),Time since start in ms ,YYYY-MO-DD HH-MI-SS_SSS,Pitch (Deg),Roll (Deg),Heading (Deg),MagX,MagY,MagZ
-0.11551553755998611,-0.19282524287700653,9.615889549255371,0.0004928051185493561,0.012508459843560263,0.005803379635770335,0.0,2019-08-06 14:28:36:507,3.586234795261342,-3.5770242949637066,0,-50.52942657470703,44.53186798095703,-28.33846092224121
-0.14425253868103027,-0.2335359901189804,9.687732696533203,-0.0013718629371216693,0.01570503337463096,0.003938711482571438,0.010009527206420898,2019-08-06 14:28:36:517,7.088621660721508,-7.077094269146049,0,-50.52942657470703,44.53186798095703,-28.33846092224121
-0.1035417914390564,-0.2335359901189804,9.675758361816406,-0.0005727194893354142,0.019167987513142228,0.003672330354982212,0.020000696182250977,2019-08-06 14:28:36:527,10.52383378078479,-10.507578413363255,0,-50.52942657470703,44.53186798095703,-28.33846092224121
-0.18017378449440002,-0.21198324859142303,9.623074531555176,-0.0016382440647108938,0.018901606905701654,0.00047575672638364575,0.03000664710998535,2019-08-06 14:28:36:537,13.881284977372099,-13.871267545337517,0,-50.52942657470703,44.53186798095703,-28.33846092224121
-0.13227878510951996,-0.2215622365474701,9.589548110961914,0.0004928051185493561,0.013840364961357736,0.0031395680998037635,0.04004716873168945,2019-08-06 14:28:36:547,17.18005061703,-17.167648865558974,0,-50.52942657470703,44.53186798095703,-28.33846092224121
-0.09156804531812668,-0.21677273511886597,9.570389747619629,-0.0003063383292368989,0.011709315940643939,0.0012749002066791914,0.04999661445617676,2019-08-06 14:28:36:557,20.418944465017237,-20.39817379051219,0,-50.52942657470703,44.53186798095703,-28.33846092224121
-0.1035417914390564,-0.22874648869037628,9.637442588806152,-3.9957173202045016e-05,0.013840364961357736,0.006069760763359559,0.059999704360961914,2019-08-06 14:28:36:567,23.590480928741208,-23.562994458422956,0,-50.52942657470703,44.53186798095703,-28.33846092224121
-0.12509453296661377,-0.21198324859142303,9.656600952148438,-0.005367579850960038,0.01410674660909561,-0.0013889113292873795,0.07000041007995605,2019-08-06 14:28:36:577,26.695906124872245,-26.66356918505258,0,-50.52942657470703,44.53186798095703,-28.33846092224121
-0.11312079429626465,-0.2407202422618866,9.594337463378906,-0.0037692930854246903,0.0226309437322481,0.0012749002066791914,0.08000659942626953,2019-08-06 14:28:36:587,29.735762749837313,-29.699435248117975,0,-50.52942657470703,44.53186798095703,-28.33846092224121
-0.07959429919719696,-0.20240424573421478,9.601521492004395,-0.0019046251923001184,0.014373127216536186,-0.0019216735844658289,0.08999776840209961,2019-08-06 14:28:36:597,32.72348498405056,-32.68022522178085,0,-50.52942657470703,44.53186798095703,-28.33846092224121
-0.13946303725242615,-0.20958849787712097,9.656600952148438,0.0012919485988449018,0.016237795629809405,0.00020937558253977584,0.09999990463256836,2019-08-06 14:28:36:607,35.64334738849562,-35.60247905845417,0,-50.52942657470703,44.53186798095703,-28.33846092224121
-0.13227878510951996,-0.20000949501991272,9.596732139587402,-0.0011054818095324445,0.019167987513142228,0.004737855125413436,0.10999917984008789,2019-08-06 14:28:36:617,38.50392442855287,-38.4659297482439,0,-52.02881622314453,46.03125762939453,-29.83785057067871
-0.1490420401096344,-0.23114123940467834,9.575179100036621,0.001824710854023351,0.015438651726893083,0.0026068058446253144,0.12000823020935059,2019-08-06 14:28:36:627,41.30733405274834,-41.26998005099158,0,-52.02881622314453,46.03125762939453,-29.83785057067871
-0.11072604358196259,-0.27664148807525635,9.630258560180664,-0.002171006319889343,0.015971413982071532,0.0018076624618576407,0.13000154495239258,2019-08-06 14:28:36:637,44.059050600477434,-44.01045340772274,0,-52.02881622314453,46.03125762939453,-29.83785057067871
-0.12748928368091583,-0.22635173797607422,9.62067985534668,-0.0011054818095324445,0.013041222098738713,0.0028731869722145387,0.14000153541564941,2019-08-06 14:28:36:647,46.755362654717246,-46.70266791555244,0,-52.02881622314453,46.03125762939453,-29.83785057067871
-0.10833129286766052,-0.21916748583316803,9.680547714233398,-0.0008391006169246387,0.011442934292906064,0.0031395680998037635,0.14999794960021973,2019-08-06 14:28:36:657,49.401009547373725,-49.342204488166026,0,-52.02881622314453,46.03125762939453,-29.83785057067871
-0.1753842830657959,-0.21916748583316803,9.704495429992676,0.0007591862786478714,0.01410674660909561,0.0012749002066791914,0.1600034236907959,2019-08-06 14:28:36:667,51.98435682101663,-51.929911817562775,0,-52.02881622314453,46.03125762939453,-29.83785057067871
-0.15143679082393646,-0.20000949501991272,9.64462661743164,-0.0005727194893354142,0.0183688436102259,0.003672330354982212,0.17001843452453613,2019-08-06 14:28:36:677,54.51634880609502,-54.46723101723066,0,-52.02881622314453,46.03125762939453,-29.83785057067871
-0.13467353582382202,-0.22395698726177216,9.639837265014648,0.001824710854023351,0.015438651726893083,-0.0005897678815011245,0.18033552169799805,2019-08-06 14:28:36:687,57.00107017722437,-56.95232582495735,0,-52.02881622314453,46.03125762939453,-29.83785057067871
-0.15383154153823853,-0.2143779993057251,9.735627174377441,-0.002703768575067792,0.01756970178790418,0.0020740435894468653,0.19002437591552734,2019-08-06 14:28:36:697,59.43338539094489,-59.386579459045805,0,-52.02881622314453,46.03125762939453,-29.83785057067871
-0.1418577879667282,-0.28382572531700134,9.608705520629883,0.0012919485988449018,0.01357398435391716,0.0018076624618576407,0.1999964714050293,2019-08-06 14:28:36:707,61.82020072178616,-61.7657326065899,0,-52.02881622314453,46.03125762939453,-29.83785057067871
-0.1226997897028923,-0.22635173797607422,9.613494873046875,-0.003236530830246241,0.015172271119452508,0.003672330354982212,0.21000432968139648,2019-08-06 14:28:36:717,64.16064594820723,-64.10162338178822,0,-52.02881622314453,46.03125762939453,-29.83785057067871
-0.11551553755998611,-0.22395698726177216,9.625469207763672,-0.005101198723370813,0.019167987513142228,0.0028731869722145387,0.22000741958618164,2019-08-06 14:28:36:727,66.4529153983725,-66.3900683623415,0,-52.02881622314453,46.03125762939453,-29.83785057067871
-0.12509453296661377,-0.2526939809322357,9.67336368560791,-0.0005727194893354142,0.017836082395344753,0.006602523018538008,0.2299962043762207,2019-08-06 14:28:36:737,68.69903539852159,-68.6320182185512,0,-52.02881622314453,46.03125762939453,-29.83785057067871
-0.14664728939533234,-0.23114123940467834,9.630258560180664,-0.006699486009054812,0.012774840451000838,-0.0032535792224119516,0.23999738693237305,2019-08-06 14:28:36:747,70.90043240499368,-70.82811717356441,0,-52.02881622314453,46.03125762939453,-29.83785057067871
-0.1298840343952179,-0.24311499297618866,9.666179656982422,-0.002171006319889343,0.012242078195822388,0.0018076624618576407,0.24999737739562988,2019-08-06 14:28:36:757,73.06015316199031,-72.98152085833124,0,-52.02881622314453,46.03125762939453,-29.83785057067871
-0.13227878510951996,-0.22395698726177216,9.647021293640137,0.0023574731092018,0.010910172037727614,0.004737855125413436,0.260007381439209,2019-08-06 14:28:36:767,75.17710625261145,-75.09661766561683,0,-52.02881622314453,46.03125762939453,-29.83785057067871
-0.14425253868103027,-0.21916748583316803,9.599126815795898,-0.002703768575067792,0.015172271119452508,-0.0005897678815011245,0.26999926567077637,2019-08-06 14:28:36:777,77.24783268333933,-77.16700935567718,0,-52.02881622314453,46.03125762939453,-29.83785057067871
-0.16341052949428558,-0.22635173797607422,9.685338020324707,-0.0013718629371216693,0.017036938492428433,-0.0005897678815011245,0.2800021171569824,2019-08-06 14:28:36:787,79.27397508888446,-79.19612283898677,0,-52.02881622314453,46.03125762939453,-29.83785057067871
-0.1418577879667282,-0.24790449440479279,9.635047912597656,-0.0016382440647108938,0.014905889471714633,0.0010085190140713856,0.29000163078308105,2019-08-06 14:28:36:797,81.26325614494512,-81.1818032795051,0,-52.02881622314453,46.03125762939453,-29.83785057067871
-0.1298840343952179,-0.20240424573421478,9.608705520629883,0.0020910919816125757,0.01410674660909561,-0.000856149009090349,0.3000011444091797,2019-08-06 14:28:36:807,83.21458171347602,-83.13520653347585,0,-52.02881622314453,46.03125762939453,-29.83785057067871
-0.13706828653812408,-0.24311499297618866,9.62067985534668,0.0010255674062370958,0.013840364961357736,0.0010085190140713856,0.3100247383117676,2019-08-06 14:28:36:817,85.1261753494921,-85.04412844146384,0,-52.02881622314453,46.03125762939453,-29.83785057067871
-0.15862104296684265,-0.21198324859142303,9.567995071411133,-0.002171006319889343,0.017836082395344753,-0.0024544358396442778,0.32000184059143066,2019-08-06 14:28:36:827,86.9946642520744,-86.91664552262856,0,-52.02881622314453,46.03125762939453,-29.83785057067871
-0.13706828653812408,-0.2215622365474701,9.654206275939941,-0.0024373874474785677,0.017036938492428433,-0.0021880547120550534,0.330000638961792,2019-08-06 14:28:36:837,88.82893753557462,-88.7506502530897,0,-52.02881622314453,46.03125762939453,-29.83785057067871
-0.15143679082393646,-0.21198324859142303,9.625469207763672,-0.002171006319889343,0.014639508864274061,-0.0013889113292873795,0.3399999141693115,2019-08-06 14:28:36:847,90.62611219891477,-90.54918571578591,0,-52.02881622314453,46.03125762939453,-29.83785057067871
-0.12030503898859024,-0.22395698726177216,9.637442588806152,-0.0016382440647108938,0.013840364961357736,0.0020740435894468653,0.34999895095825195,2019-08-06 14:28:36:857,92.39151553576802,-92.3106579743135,0,-52.02881622314453,46.03125762939453,-29.83785057067871
-0.1562262922525406,-0.21916748583316803,9.606310844421387,0.0002264239747054862,0.012242078195822388,0.0031395680998037635,0.36000561714172363,2019-08-06 14:28:36:867,94.1181724860813,-94.03843256607661,0,-50.979244232177734,44.981685638427734,-27.88864517211914
-0.10114704072475433,-0.23832549154758453,9.596732139587402,-0.002970149702657017,0.014639508864274061,-0.0021880547120550534,0.37000155448913574,2019-08-06 14:28:36:877,95.81551510887918,-95.727545008251,0,-50.979244232177734,44.981685638427734,-27.88864517211914
-0.11072604358196259,-0.2215622365474701,9.642231941223145,-0.0037692930854246903,0.014373127216536186,0.0010085190140713856,0.38000035285949707,2019-08-06 14:28:36:887,97.47797680442233,-97.38455133367015,0,-50.979244232177734,44.981685638427734,-27.88864517211914
-0.11791028827428818,-0.28861522674560547,9.625469207763672,-0.0005727194893354142,0.012508459843560263,-0.0061837716258934215,0.39000463485717773,2019-08-06 14:28:36:897,99.10735421730938,-99.00218913270803,0,-50.979244232177734,44.981685638427734,-27.88864517211914
-0.10114704072475433,-0.21198324859142303,9.675758361816406,-0.002171006319889343,0.012242078195822388,-0.001122530201698155,0.4000082015991211,2019-08-06 14:28:36:907,100.70635220093894,-100.59582439750075,0,-50.979244232177734,44.981685638427734,-27.88864517211914
-0.08917329460382462,-0.22395698726177216,9.601521492004395,0.0010255674062370958,0.0194343681205828,-0.006450152753482647,0.4100000858306885,2019-08-06 14:28:36:917,102.27067935663409,-102.15775948269906,0,-50.979244232177734,44.981685638427734,-27.88864517211914
-0.10593654215335846,-0.24311499297618866,9.599126815795898,-0.004035674213013915,0.015172271119452508,-0.00431910373276885,0.4199981689453125,2019-08-06 14:28:36:927,103.80410231280467,-103.68332255044221,0,-50.979244232177734,44.981685638427734,-27.88864517211914
-0.12509453296661377,-0.22874648869037628,9.637442588806152,-0.0016382440647108938,0.009311885272192268,0.0026068058446253144,0.42999958992004395,2019-08-06 14:28:36:937,105.3079177007567,-105.18154268346072,0,-50.979244232177734,44.981685638427734,-27.88864517211914
-0.12748928368091583,-0.2335359901189804,9.64462661743164,-0.003236530830246241,0.013840364961357736,-0.0013889113292873795,0.4400031566619873,2019-08-06 14:28:36:947,106.77883861345816,-106.64835197594334,0,-50.979244232177734,44.981685638427734,-27.88864517211914
-0.12509453296661377,-0.2215622365474701,9.627863883972168,-0.0005727194893354142,0.01357398435391716,0.0007421378864821609,0.45000505447387695,2019-08-06 14:28:36:957,108.22075061345932,-108.08869744400603,0,-50.979244232177734,44.981685638427734,-27.88864517211914
-0.11791028827428818,-0.21677273511886597,9.635047912597656,-0.0024373874474785677,0.016237795629809405,-0.0053846282431257485,0.45999979972839355,2019-08-06 14:28:36:967,109.63320028474932,-109.4997787566225,0,-50.979244232177734,44.981685638427734,-27.88864517211914
-0.13946303725242615,-0.2742467224597931,9.594337463378906,-0.0019046251923001184,0.01570503337463096,-5.7005565367755386e-05,0.4700005054473877,2019-08-06 14:28:36:977,111.01506147597804,-110.87596746648283,0,-50.979244232177734,44.981685638427734,-27.88864517211914
-0.12509453296661377,-0.23593074083328247,9.599126815795898,0.0015583297264341264,0.01570503337463096,-5.7005565367755386e-05,0.4799990653991699,2019-08-06 14:28:36:987,112.37101058851673,-112.23116394101574,0,-50.979244232177734,44.981685638427734,-27.88864517211914
-0.12509453296661377,-0.24550974369049072,9.615889549255371,-0.005633960978549262,0.016237795629809405,-0.0021880547120550534,0.49000072479248047,2019-08-06 14:28:36:997,113.69956481869677,-113.55412588891967,0,-50.979244232177734,44.981685638427734,-27.88864517211914
-0.13467353582382202,-0.2143779993057251,9.625469207763672,0.0015583297264341264,0.01357398435391716,0.0020740435894468653,0.5000057220458984,2019-08-06 14:28:37:007,115.00191605271249,-114.85840124875868,0,-50.979244232177734,44.981685638427734,-27.88864517211914
-0.1298840343952179,-0.25748348236083984,9.642231941223145,-3.9957173202045016e-05,0.013041222098738713,-0.001655292456876604,0.5099983215332031,2019-08-06 14:28:37:017,116.27912559607392,-116.13061786344055,0,-50.979244232177734,44.981685638427734,-27.88864517211914
-0.1298840343952179,-0.17845675349235535,9.635047912597656,-3.9957173202045016e-05,0.013041222098738713,0.00047575672638364575,0.5199995040893555,2019-08-06 14:28:37:027,117.53077315639888,-117.38676127417631,0,-50.979244232177734,44.981685638427734,-27.88864517211914
-0.15383154153823853,-0.18564099073410034,9.62067985534668,-0.002703768575067792,0.014373127216536186,-5.7005565367755386e-05,0.5300004482269287,2019-08-06 14:28:37:037,118.75376518366947,-118.61539885750936,0,-50.979244232177734,44.981685638427734,-27.88864517211914
-0.1418577879667282,-0.21916748583316803,9.66139030456543,0.0026238542367910244,0.01410674660909561,-5.7005565367755386e-05,0.5400052070617676,2019-08-06 14:28:37:047,119.95394097003569,-119.81857437133233,0,-50.979244232177734,44.981685638427734,-27.88864517211914
-0.13227878510951996,-0.21677273511886597,9.656600952148438,-0.0003063383292368989,0.016770557884987856,0.00020937558253977584,0.5500013828277588,2019-08-06 14:28:37:057,121.1297530200188,-120.99631158651347,0,-50.979244232177734,44.981685638427734,-27.88864517211914
-0.11312079429626465,-0.2071937471628189,9.656600952148438,-0.0011054818095324445,0.013041222098738713,0.001541281334268416,0.5600001811981201,2019-08-06 14:28:37:067,122.28641316982025,-122.15118150614128,0,-50.979244232177734,44.981685638427734,-27.88864517211914
-0.15143679082393646,-0.20479899644851685,9.615889549255371,-3.9957173202045016e-05,0.01410674660909561,0.00553699850818111,0.5699987411499023,2019-08-06 14:28:37:077,123.4147200543963,-123.28373344839463,0,-50.979244232177734,44.981685638427734,-27.88864517211914
-0.1490420401096344,-0.20240424573421478,9.647021293640137,0.001824710854023351,0.01756970178790418,-0.004052722605179625,0.5800037384033203,2019-08-06 14:28:37:087,124.51885289945737,-124.39504492509082,0,-50.979244232177734,44.981685638427734,-27.88864517211914
-0.1298840343952179,-0.23593074083328247,9.615889549255371,-0.0011054818095324445,0.015172271119452508,-0.0005897678815011245,0.5900061130523682,2019-08-06 14:28:37:097,125.6044774043212,-125.47841317057329,0,-50.979244232177734,44.981685638427734,-27.88864517211914
-0.12748928368091583,-0.18564099073410034,9.613494873046875,-0.002970149702657017,0.013041222098738713,-0.0005897678815011245,0.6000020503997803,2019-08-06 14:28:37:107,126.66987254323222,-126.54505244447049,0,-50.979244232177734,44.981685638427734,-27.88864517211914
-0.12030503898859024,-0.23832549154758453,9.594337463378906,0.0031566164919694735,0.008512742409573244,-0.0003233867214026093,0.6100015640258789,2019-08-06 14:28:37:117,127.71732735292757,-127.58746479775532,0,-51.42905807495117,42.43272399902344,-28.938217163085938
-0.08917329460382462,-0.19043049216270447,9.60391616821289,-0.0003063383292368989,0.01570503337463096,0.0010085190140713856,0.619997501373291,2019-08-06 14:28:37:127,128.74352640176593,-128.61282484357523,0,-51.42905807495117,42.43272399902344,-28.938217163085938
-0.13467353582382202,-0.2598782479763031,9.627863883972168,-0.005367579850960038,0.014373127216536186,0.0020740435894468653,0.6300005912780762,2019-08-06 14:28:37:137,129.74455498856614,-129.60663013105315,0,-51.42905807495117,42.43272399902344,-28.938217163085938
-0.11312079429626465,-0.21198324859142303,9.572784423828125,-0.002703768575067792,0.014905889471714633,0.0010085190140713856,0.640007495880127,2019-08-06 14:28:37:147,130.7277479146245,-130.5876068894034,0,-51.42905807495117,42.43272399902344,-28.938217163085938
-0.09156804531812668,-0.2407202422618866,9.647021293640137,-0.0037692930854246903,0.016504176237249982,-0.0003233867214026093,0.65000319480896,2019-08-06 14:28:37:157,131.69305334141333,-131.54515133293583,0,-51.42905807495117,42.43272399902344,-28.938217163085938
-0.12030503898859024,-0.22635173797607422,9.639837265014648,-0.006699486009054812,0.012242078195822388,-0.0003233867214026093,0.6600003242492676,2019-08-06 14:28:37:167,132.6380200688219,-132.48358548556544,0,-51.42905807495117,42.43272399902344,-28.938217163085938
-0.13227878510951996,-0.22395698726177216,9.62067985534668,0.0002264239747054862,0.015172271119452508,-0.0003233867214026093,0.6700005531311035,2019-08-06 14:28:37:177,133.56098557883743,-133.40737029916323,0,-51.42905807495117,42.43272399902344,-28.938217163085938
-0.1226997897028923,-0.26227298378944397,9.639837265014648,-0.002171006319889343,0.01410674660909561,-5.7005565367755386e-05,0.6800055503845215,2019-08-06 14:28:37:187,134.467256095452,-134.30683380122443,0,-51.42905807495117,42.43272399902344,-28.938217163085938
-0.1418577879667282,-0.22874648869037628,9.637442588806152,-0.002970149702657017,0.012774840451000838,-0.001655292456876604,0.6899983882904053,2019-08-06 14:28:37:197,135.353877034082,-135.19183717118298,0,-51.42905807495117,42.43272399902344,-28.938217163085938
-0.12030503898859024,-0.17606200277805328,9.587152481079102,-0.0011054818095324445,0.011176553685465489,0.0012749002066791914,0.6999998092651367,2019-08-06 14:28:37:207,136.22614413645937,-136.06633796186514,0,-51.42905807495117,42.43272399902344,-28.938217163085938
-0.13706828653812408,-0.23114123940467834,9.63265323638916,0.0002264239747054862,0.012774840451000838,0.0018076624618576407,0.709996223449707,2019-08-06 14:28:37:217,137.0781460116245,-136.91764664379875,0,-51.42905807495117,42.43272399902344,-28.938217163085938
-0.12509453296661377,-0.2143779993057251,9.649415969848633,-0.002703768575067792,0.013041222098738713,-0.003786341477590401,0.7200007438659668,2019-08-06 14:28:37:227,137.91440239409343,-137.75232060817257,0,-51.42905807495117,42.43272399902344,-28.938217163085938
-0.1035417914390564,-0.1880357414484024,9.611100196838379,-0.002171006319889343,0.013041222098738713,-0.000856149009090349,0.730004072189331,2019-08-06 14:28:37:237,138.73644464145386,-138.57363844232432,0,-51.42905807495117,42.43272399902344,-28.938217163085938
-0.11791028827428818,-0.2143779993057251,9.611100196838379,-0.002171006319889343,0.0194343681205828,-0.0003233867214026093,0.7399983406066895,2019-08-06 14:28:37:247,139.5367520883352,-139.37539165819229,0,-51.42905807495117,42.43272399902344,-28.938217163085938
-0.13227878510951996,-0.19282524287700653,9.682943344116211,0.0023574731092018,0.018901606905701654,0.003938711482571438,0.7500009536743164,2019-08-06 14:28:37:257,140.31974765616758,-140.16639124699836,0,-51.42905807495117,42.43272399902344,-28.938217163085938
-0.15862104296684265,-0.19043049216270447,9.611100196838379,0.0002264239747054862,0.011442934292906064,-0.0027208169672335025,0.7599985599517822,2019-08-06 14:28:37:267,141.0880186410698,-140.94048878599096,0,-51.42905807495117,42.43272399902344,-28.938217163085938
-0.09875229001045227,-0.27664148807525635,9.687732696533203,0.0031566164919694735,0.013840364961357736,-5.7005565367755386e-05,0.7700004577636719,2019-08-06 14:28:37:277,141.84680491553925,-141.6907380733751,0,-51.42905807495117,42.43272399902344,-28.938217163085938
-0.12030503898859024,-0.25029924511909485,9.649415969848633,-0.0016382440647108938,0.016504176237249982,-0.0024544358396442778,0.7800083160400391,2019-08-06 14:28:37:287,142.58630838770057,-142.42628511516358,0,-51.42905807495117,42.43272399902344,-28.938217163085938
-0.08198904246091843,-0.20479899644851685,9.697311401367188,-0.002703768575067792,0.01570503337463096,-5.7005565367755386e-05,0.790001630783081,2019-08-06 14:28:37:297,143.31608147879905,-143.15204509656874,0,-51.42905807495117,42.43272399902344,-28.938217163085938
-0.08677854388952255,-0.2598782479763031,9.575179100036621,-0.0013718629371216693,0.01570503337463096,-0.001122530201698155,0.7999999523162842,2019-08-06 14:28:37:307,144.03055798190272,-143.8571405649653,0,-51.42905807495117,42.43272399902344,-28.938217163085938
-0.11072604358196259,-0.2335359901189804,9.67336368560791,-0.002970149702657017,0.01810246300278533,0.0020740435894468653,0.8100016117095947,2019-08-06 14:28:37:317,144.72666449072705,-144.55067022587056,0,-51.42905807495117,42.43272399902344,-28.938217163085938
-0.10833129286766052,-0.22635173797607422,9.64462661743164,-0.002171006319889343,0.01810246300278533,0.001541281334268416,0.8200042247772217,2019-08-06 14:28:37:327,145.40909331563523,-145.2315486916845,0,-51.42905807495117,42.43272399902344,-28.938217163085938
-0.11551553755998611,-0.22874648869037628,9.663784980773926,-0.002970149702657017,0.011176553685465489,-0.001122530201698155,0.829998254776001,2019-08-06 14:28:37:337,146.08094258772482,-145.8981316635012,0,-51.42905807495117,42.43272399902344,-28.938217163085938
-0.08198904246091843,-0.19761474430561066,9.642231941223145,-0.004035674213013915,0.01570503337463096,-0.0005897678815011245,0.8399980068206787,2019-08-06 14:28:37:347,146.7407619783315,-146.55442114085886,0,-51.42905807495117,42.43272399902344,-28.938217163085938
-0.13227878510951996,-0.2215622365474701,9.615889549255371,-0.004302055340603139,0.01357398435391716,-0.002987198094822727,0.8499999046325684,2019-08-06 14:28:37:357,147.3825609870677,-147.19451799033902,0,-51.42905807495117,42.43272399902344,-28.938217163085938
-0.11791028827428818,-0.2215622365474701,9.64462661743164,-0.0019046251923001184,0.015971413982071532,-0.000856149009090349,0.8599987030029297,2019-08-06 14:28:37:367,148.0119342357902,-147.82323827314823,0,-52.02881622314453,43.93211364746094,-28.038583755493164
-0.13946303725242615,-0.22395698726177216,9.601521492004395,0.0031566164919694735,0.020233512023499125,-0.0013889113292873795,0.8700060844421387,2019-08-06 14:28:37:377,148.623682710039,-148.44182343765846,0,-52.02881622314453,43.93211364746094,-28.038583755493164
-0.13467353582382202,-0.18324624001979828,9.596732139587402,0.001824710854023351,0.016770557884987856,0.003672330354982212,0.8800005912780762,2019-08-06 14:28:37:387,149.2257176954361,-149.05213278049848,0,-52.02881622314453,43.93211364746094,-28.038583755493164
-0.09396279603242874,-0.24550974369049072,9.606310844421387,-0.003236530830246241,0.010377409782549165,0.00020937558253977584,0.8900001049041748,2019-08-06 14:28:37:397,149.8241684666252,-149.6399929646696,0,-52.02881622314453,43.93211364746094,-28.038583755493164
-0.10833129286766052,-0.25029924511909485,9.608705520629883,-0.005367579850960038,0.014639508864274061,-0.001122530201698155,0.9000012874603271,2019-08-06 14:28:37:407,150.40654522832202,-150.21433540649875,0,-52.02881622314453,43.93211364746094,-28.038583755493164
-0.13227878510951996,-0.2335359901189804,9.579968452453613,-3.9957173202045016e-05,0.015172271119452508,0.00047575672638364575,0.9099986553192139,2019-08-06 14:28:37:417,150.9740757292914,-150.78209720562916,0,-52.02881622314453,43.93211364746094,-28.038583755493164
-0.1418577879667282,-0.24790449440479279,9.613494873046875,0.0015583297264341264,0.014905889471714633,0.0018076624618576407,0.92000412940979,2019-08-06 14:28:37:427,151.52931196704824,-151.3377874073626,0,-52.02881622314453,43.93211364746094,-28.038583755493164
-0.14664728939533234,-0.255088746547699,9.611100196838379,0.0010255674062370958,0.016770557884987856,-0.005651009370714973,0.930375337600708,2019-08-06 14:28:37:437,152.07147637143106,-151.88122221892837,0,-52.02881622314453,43.93211364746094,-28.038583755493164
-0.1562262922525406,-0.21198324859142303,9.642231941223145,-0.003502911957835466,0.01357398435391716,0.0028731869722145387,0.9399991035461426,2019-08-06 14:28:37:447,152.60414698860376,-152.4165161434757,0,-52.02881622314453,43.93211364746094,-28.038583755493164
-0.1226997897028923,-0.25748348236083984,9.658995628356934,-3.9957173202045016e-05,0.013041222098738713,-0.0013889113292873795,0.9499988555908203,2019-08-06 14:28:37:457,153.13018563307722,-152.93762351468928,0,-52.02881622314453,43.93211364746094,-28.038583755493164
-0.13946303725242615,-0.23593074083328247,9.56320571899414,-0.0013718629371216693,0.019167987513142228,-0.005917390498304197,0.9600033760070801,2019-08-06 14:28:37:467,153.64010421724544,-153.4498356192898,0,-52.02881622314453,43.93211364746094,-28.038583755493164
-0.0963575467467308,-0.1952199935913086,9.66139030456543,-0.0024373874474785677,0.019167987513142228,0.0010085190140713856,0.9700100421905518,2019-08-06 14:28:37:477,154.1451037881692,-153.95631795469245,0,-52.02881622314453,43.93211364746094,-28.038583755493164
-0.10114704072475433,-0.20479899644851685,9.623074531555176,-0.003236530830246241,0.015172271119452508,0.0007421378864821609,0.9799916744232178,2019-08-06 14:28:37:487,154.6416540059356,-154.4509938450031,0,-52.02881622314453,43.93211364746094,-28.038583755493164
-0.09396279603242874,-0.23832549154758453,9.639837265014648,0.001824710854023351,0.013307602706179285,0.0007421378864821609,0.9900000095367432,2019-08-06 14:28:37:497,155.13017321876475,-154.9346747179898,0,-52.02881622314453,43.93211364746094,-28.038583755493164
-0.13946303725242615,-0.255088746547699,9.627863883972168,-0.0024373874474785677,0.01570503337463096,0.0028731869722145387,1.0000004768371582,2019-08-06 14:28:37:507,155.60215315282238,-155.4042588169616,0,-52.02881622314453,43.93211364746094,-28.038583755493164
-0.13227878510951996,-0.2598782479763031,9.599126815795898,-0.004035674213013915,0.012242078195822388,-0.004851865987947299,1.010007381439209,2019-08-06 14:28:37:517,156.0674413796083,-155.86289012408525,0,-52.02881622314453,43.93211364746094,-28.038583755493164
-0.13946303725242615,-0.20000949501991272,9.577573776245117,0.0004928051185493561,0.012774840451000838,-0.004052722605179625,1.0200026035308838,2019-08-06 14:28:37:527,156.522237949148,-156.32198209905408,0,-52.02881622314453,43.93211364746094,-28.038583755493164
-0.13946303725242615,-0.26945722103118896,9.606310844421387,-0.002970149702657017,0.013041222098738713,-0.0013889113292873795,1.0300042629241943,2019-08-06 14:28:37:537,156.96783427774477,-156.7617399150173,0,-52.02881622314453,43.93211364746094,-28.038583755493164
-0.14425253868103027,-0.2215622365474701,9.687732696533203,-0.0011054818095324445,0.018901606905701654,0.0007421378864821609,1.040001630783081,2019-08-06 14:28:37:547,157.4008054768471,-157.19968158363784,0,-52.02881622314453,43.93211364746094,-28.038583755493164
-0.13946303725242615,-0.20958849787712097,9.587152481079102,-0.0005727194893354142,0.011709315940643939,0.0010085190140713856,1.0500125885009766,2019-08-06 14:28:37:557,157.82953909126272,-157.63031869823516,0,-52.02881622314453,43.93211364746094,-28.038583755493164
-0.11791028827428818,-0.21916748583316803,9.618284225463867,-0.0011054818095324445,0.014639508864274061,0.00047575672638364575,1.0600054264068604,2019-08-06 14:28:37:567,158.25068708758744,-158.05098510066966,0,-52.02881622314453,43.93211364746094,-28.038583755493164
-0.11312079429626465,-0.20479899644851685,9.606310844421387,-0.0008391006169246387,0.012774840451000838,0.0031395680998037635,1.0699994564056396,2019-08-06 14:28:37:577,158.6650112667383,-158.46506820662037,0,-52.02881622314453,43.93211364746094,-28.038583755493164
-0.12030503898859024,-0.2335359901189804,9.654206275939941,0.0015583297264341264,0.012774840451000838,0.0028731869722145387,1.0799996852874756,2019-08-06 14:28:37:587,159.07025883484033,-158.8689274814738,0,-52.02881622314453,43.93211364746094,-28.038583755493164
-0.1418577879667282,-0.24550974369049072,9.67336368560791,0.0002264239747054862,0.014373127216536186,0.005803379635770335,1.0899991989135742,2019-08-06 14:28:37:597,159.46398015929458,-159.26259899377615,0,-52.02881622314453,43.93211364746094,-28.038583755493164
-0.11072604358196259,-0.24790449440479279,9.685338020324707,-0.0019046251923001184,0.01357398435391716,0.004737855125413436,1.0999999046325684,2019-08-06 14:28:37:607,159.85397832252053,-159.64695320903851,0,-52.02881622314453,43.93211364746094,-28.038583755493164
-0.0771995484828949,-0.2071937471628189,9.630258560180664,-0.002970149702657017,0.015438651726893083,0.00553699850818111,1.1100053787231445,2019-08-06 14:28:37:617,160.23903936207856,-160.02769507660264,0,-51.878875732421875,43.78217315673828,-28.788278579711914
-0.1298840343952179,-0.20240424573421478,9.551231384277344,0.0010255674062370958,0.011176553685465489,0.0031395680998037635,1.1200013160705566,2019-08-06 14:28:37:627,160.6124035383175,-160.40343684055938,0,-51.878875732421875,43.78217315673828,-28.788278579711914
-0.16580528020858765,-0.18324624001979828,9.623074531555176,-3.9957173202045016e-05,0.012242078195822388,0.003938711482571438,1.1300032138824463,2019-08-06 14:28:37:637,160.97353811562334,-160.77352734065173,0,-51.878875732421875,43.78217315673828,-28.788278579711914
-0.12030503898859024,-0.24311499297618866,9.651811599731445,0.0007591862786478714,0.012242078195822388,-0.0005897678815011245,1.1400039196014404,2019-08-06 14:28:37:647,161.33291042876112,-161.12962527322523,0,-51.878875732421875,43.78217315673828,-28.788278579711914
-0.16580528020858765,-0.2215622365474701,9.635047912597656,-0.0005727194893354142,0.01410674660909561,0.0020740435894468653,1.1500043869018555,2019-08-06 14:28:37:657,161.6786133223935,-161.48036497316772,0,-51.878875732421875,43.78217315673828,-28.788278579711914
-0.15862104296684265,-0.22395698726177216,9.668574333190918,0.0010255674062370958,0.01570503337463096,0.0023404247170360896,1.160003900527954,2019-08-06 14:28:37:667,162.0174251133431,-161.82479495288615,0,-51.878875732421875,43.78217315673828,-28.788278579711914
-0.08917329460382462,-0.2646677494049072,9.668574333190918,-0.0013718629371216693,0.018901606905701654,0.0031395680998037635,1.1699981689453125,2019-08-06 14:28:37:677,162.35590098377347,-162.15616871123387,0,-51.878875732421875,43.78217315673828,-28.788278579711914
-0.10833129286766052,-0.22395698726177216,9.637442588806152,-0.0024373874474785677,0.014639508864274061,0.0020740435894468653,1.179999828338623,2019-08-06 14:28:37:687,162.68768122147992,-162.4850522762246,0,-51.878875732421875,43.78217315673828,-28.788278579711914
-0.12030503898859024,-0.22395698726177216,9.627863883972168,-0.006699486009054812,0.013307602706179285,0.0007421378864821609,1.1900012493133545,2019-08-06 14:28:37:697,163.0121362835305,-162.80493822118328,0,-51.878875732421875,43.78217315673828,-28.788278579711914
-0.11551553755998611,-0.22395698726177216,9.551231384277344,-0.0037692930854246903,0.014905889471714633,-0.0032535792224119516,1.2000763416290283,2019-08-06 14:28:37:707,163.32960269083713,-163.119842639173,0,-51.878875732421875,43.78217315673828,-28.788278579711914
-0.12030503898859024,-0.18564099073410034,9.654206275939941,-0.002171006319889343,0.01410674660909561,-5.7005565367755386e-05,1.2100226879119873,2019-08-06 14:28:37:717,163.64085322981484,-163.43420118346816,0,-51.878875732421875,43.78217315673828,-28.788278579711914
-0.13227878510951996,-0.2526939809322357,9.606310844421387,-3.9957173202045016e-05,0.014905889471714633,0.005004236253002661,1.2200374603271484,2019-08-06 14:28:37:727,163.94387591785605,-163.73535833393413,0,-51.878875732421875,43.78217315673828,-28.788278579711914
-0.06522579491138458,-0.23832549154758453,9.630258560180664,-0.0003063383292368989,0.018901606905701654,-0.0003233867214026093,1.2300307750701904,2019-08-06 14:28:37:737,164.24663109415235,-164.0321264353699,0,-51.878875732421875,43.78217315673828,-28.788278579711914
-0.12509453296661377,-0.21198324859142303,9.567995071411133,0.0004928051185493561,0.011442934292906064,0.006336141890948784,1.2400352954864502,2019-08-06 14:28:37:747,164.5402892216767,-164.32637661696722,0,-51.878875732421875,43.78217315673828,-28.788278579711914
-0.13467353582382202,-0.255088746547699,9.627863883972168,0.0063531902831144935,0.014639508864274061,0.0018076624618576407,1.2500545978546143,2019-08-06 14:28:37:757,164.82521960618018,-164.61306952509617,0,-51.878875732421875,43.78217315673828,-28.788278579711914
-0.11551553755998611,-0.255088746547699,9.630258560180664,0.0002264239747054862,0.015438651726893083,-0.0024544358396442778,1.2600340843200684,2019-08-06 14:28:37:767,165.10631954678246,-164.89058880185266,0,-51.878875732421875,43.78217315673828,-28.788278579711914
-0.1035417914390564,-0.25029924511909485,9.630258560180664,-0.0011054818095324445,0.017303320140166306,0.003405949227392988,1.2700355052947998,2019-08-06 14:28:37:777,165.3821559018939,-165.16237951856215,0,-51.878875732421875,43.78217315673828,-28.788278579711914
-0.12030503898859024,-0.2407202422618866,9.599126815795898,-0.0005727194893354142,0.021032655926415452,0.0028731869722145387,1.2800405025482178,2019-08-06 14:28:37:787,165.64833616387597,-165.43007973173263,0,-51.878875732421875,43.78217315673828,-28.788278579711914
-0.12509453296661377,-0.20240424573421478,9.62067985534668,0.001824710854023351,0.014639508864274061,0.004737855125413436,1.2900371551513672,2019-08-06 14:28:37:797,165.9122530043212,-165.6983976285226,0,-51.878875732421875,43.78217315673828,-28.788278579711914
-0.16341052949428558,-0.20000949501991272,9.625469207763672,-0.0011054818095324445,0.01570503337463096,0.004205092610160662,1.3000555038452148,2019-08-06 14:28:37:807,166.16572119486398,-165.96000003389133,0,-51.878875732421875,43.78217315673828,-28.788278579711914
-0.1226997897028923,-0.22635173797607422,9.570389747619629,-0.0011054818095324445,0.014905889471714633,-0.004851865987947299,1.310107707977295,2019-08-06 14:28:37:817,166.41930272314164,-166.21307877507357,0,-51.878875732421875,43.78217315673828,-28.788278579711914
-0.11551553755998611,-0.23593074083328247,9.608705520629883,0.001824710854023351,0.013307602706179285,0.006069760763359559,1.3200221061706543,2019-08-06 14:28:37:827,166.66973293583942,-166.461702011401,0,-51.878875732421875,43.78217315673828,-28.788278579711914
-0.13467353582382202,-0.21916748583316803,9.625469207763672,-0.003236530830246241,0.013840364961357736,-0.001655292456876604,1.3300395011901855,2019-08-06 14:28:37:837,166.91252152568546,-166.7045600415958,0,-51.878875732421875,43.78217315673828,-28.788278579711914
-0.09156804531812668,-0.2335359901189804,9.694916725158691,-0.0019046251923001184,0.012774840451000838,0.005270617380591885,1.3400342464447021,2019-08-06 14:28:37:847,167.15627901034568,-166.94180190907932,0,-51.878875732421875,43.78217315673828,-28.788278579711914
-0.15383154153823853,-0.2335359901189804,9.639837265014648,0.0010255674062370958,0.01570503337463096,0.0031395680998037635,1.350052833557129,2019-08-06 14:28:37:857,167.38603383218464,-167.17578712034842,0,-51.878875732421875,43.78217315673828,-28.788278579711914
-0.1682000309228897,-0.22395698726177216,9.608705520629883,0.0007591862786478714,0.014373127216536186,0.005803379635770335,1.3600258827209473,2019-08-06 14:28:37:867,167.61020725374422,-167.4059926699802,0,-50.229549407958984,43.03247833251953,-27.438827514648438
-0.14425253868103027,-0.24790449440479279,9.589548110961914,-0.0013718629371216693,0.015971413982071532,-0.0019216735844658289,1.3700370788574219,2019-08-06 14:28:37:877,167.83178879512718,-167.6274845798039,0,-50.229549407958984,43.03247833251953,-27.438827514648438
-0.16101577877998352,-0.20240424573421478,9.567995071411133,-0.002703768575067792,0.01410674660909561,0.003405949227392988,1.3800287246704102,2019-08-06 14:28:37:887,168.04795640442802,-167.84918056607358,0,-50.229549407958984,43.03247833251953,-27.438827514648438
-0.16341052949428558,-0.20000949501991272,9.601521492004395,0.0002264239747054862,0.015971413982071532,0.00553699850818111,1.3900532722473145,2019-08-06 14:28:37:897,168.25850661351245,-168.06845726380232,0,-50.229549407958984,43.03247833251953,-27.438827514648438
-0.13227878510951996,-0.22395698726177216,9.599126815795898,-0.0016382440647108938,0.011709315940643939,-0.000856149009090349,1.4000287055969238,2019-08-06 14:28:37:907,168.4709878145226,-168.27944002800368,0,-50.229549407958984,43.03247833251953,-27.438827514648438
-0.12748928368091583,-0.23114123940467834,9.62067985534668,-0.0013718629371216693,0.013041222098738713,0.003672330354982212,1.4100368022918701,2019-08-06 14:28:37:917,168.67905518858922,-168.48555445311118,0,-50.229549407958984,43.03247833251953,-27.438827514648438
-0.0963575467467308,-0.22395698726177216,9.584757804870605,0.0010255674062370958,0.01410674660909561,-0.0003233867214026093,1.4200339317321777,2019-08-06 14:28:37:927,168.88603570188187,-168.68964851643477,0,-50.229549407958984,43.03247833251953,-27.438827514648438
-0.11312079429626465,-0.2215622365474701,9.647021293640137,-0.0011054818095324445,0.017836082395344753,-0.0003233867214026093,1.4300358295440674,2019-08-06 14:28:37:937,169.08486178186868,-168.88892119145078,0,-50.229549407958984,43.03247833251953,-27.438827514648438
-0.1490420401096344,-0.24550974369049072,9.627863883972168,-0.0008391006169246387,0.015971413982071532,-0.004052722605179625,1.4400503635406494,2019-08-06 14:28:37:947,169.2764459062729,-169.08145650600176,0,-50.229549407958984,43.03247833251953,-27.438827514648438
-0.1226997897028923,-0.19043049216270447,9.62067985534668,0.0002264239747054862,0.014639508864274061,-5.7005565367755386e-05,1.4501588344573975,2019-08-06 14:28:37:957,169.46799382617485,-169.27727674835108,0,-50.229549407958984,43.03247833251953,-27.438827514648438
-0.11312079429626465,-0.20958849787712097,9.623074531555176,-0.0003063383292368989,0.016504176237249982,0.0010085190140713856,1.4600193500518799,2019-08-06 14:28:37:967,169.65602633605985,-169.46660775367042,0,-50.229549407958984,43.03247833251953,-27.438827514648438
-0.12748928368091583,-0.25029924511909485,9.62067985534668,-0.003236530830246241,0.01863522629826108,0.0031395680998037635,1.4700398445129395,2019-08-06 14:28:37:977,169.83723639816338,-169.64564824053465,0,-50.229549407958984,43.03247833251953,-27.438827514648438
-0.17059478163719177,-0.2407202422618866,9.630258560180664,-0.0011054818095324445,0.01570503337463096,-0.006716534401220521,1.4800338745117188,2019-08-06 14:28:37:987,170.0113814326812,-169.82347730345802,0,-50.229549407958984,43.03247833251953,-27.438827514648438
-0.1490420401096344,-0.24550974369049072,9.608705520629883,0.0002264239747054862,0.014905889471714633,0.0031395680998037635,1.4900519847869873,2019-08-06 14:28:37:997,170.1849959702822,-169.99786247739567,0,-50.229549407958984,43.03247833251953,-27.438827514648438
-0.12030503898859024,-0.25748348236083984,9.589548110961914,-0.0011054818095324445,0.01357398435391716,0.0026068058446253144,1.5000076293945312,2019-08-06 14:28:38:007,170.3593328300036,-170.1665263200765,0,-50.229549407958984,43.03247833251953,-27.438827514648438
-0.1418577879667282,-0.22874648869037628,9.584757804870605,-0.0005727194893354142,0.015438651726893083,-0.004052722605179625,1.5100433826446533,2019-08-06 14:28:38:017,170.52648768202022,-170.33553023109727,0,-50.229549407958984,43.03247833251953,-27.438827514648438
-0.08198904246091843,-0.22635173797607422,9.649415969848633,-0.0008391006169246387,0.014905889471714633,0.0026068058446253144,1.5200328826904297,2019-08-06 14:28:38:027,170.6978607121951,-170.50147351427475,0,-50.229549407958984,43.03247833251953,-27.438827514648438
-0.08917329460382462,-0.2407202422618866,9.682943344116211,-0.002171006319889343,0.01357398435391716,-0.002987198094822727,1.5300559997558594,2019-08-06 14:28:38:037,170.86571130332086,-170.66174034517886,0,-50.229549407958984,43.03247833251953,-27.438827514648438
-0.13706828653812408,-0.22395698726177216,9.637442588806152,-0.002171006319889343,0.017836082395344753,-0.0019216735844658289,1.5400300025939941,2019-08-06 14:28:38:047,171.02211152015008,-170.8206654463327,0,-50.229549407958984,43.03247833251953,-27.438827514648438
-0.13706828653812408,-0.21916748583316803,9.658995628356934,0.0002264239747054862,0.01410674660909561,0.003405949227392988,1.5500330924987793,2019-08-06 14:28:38:057,171.17748562553317,-170.97838237131583,0,-50.229549407958984,43.03247833251953,-27.438827514648438
-0.11312079429626465,-0.2215622365474701,9.649415969848633,0.0010255674062370958,0.014639508864274061,0.003938711482571438,1.5600354671478271,2019-08-06 14:28:38:067,171.33228086157584,-171.13308373289314,0,-50.229549407958984,43.03247833251953,-27.438827514648438
-0.12030503898859024,-0.2407202422618866,9.642231941223145,0.0010255674062370958,0.013840364961357736,0.0028731869722145387,1.5700368881225586,2019-08-06 14:28:38:077,171.48356607639613,-171.28239592485514,0,-50.229549407958984,43.03247833251953,-27.438827514648438
-0.10593654215335846,-0.2407202422618866,9.651811599731445,-0.002171006319889343,0.01570503337463096,0.003672330354982212,1.5800509452819824,2019-08-06 14:28:38:087,171.63248714621682,-171.42695358224185,0,-50.229549407958984,43.03247833251953,-27.438827514648438
-0.14425253868103027,-0.2407202422618866,9.589548110961914,-0.0016382440647108938,0.014639508864274061,0.00047575672638364575,1.5900356769561768,2019-08-06 14:28:38:097,171.77439354393726,-171.56873690280725,0,-50.229549407958984,43.03247833251953,-27.438827514648438
-0.1298840343952179,-0.22635173797607422,9.658995628356934,0.0010255674062370958,0.01357398435391716,0.0020740435894468653,1.6000335216522217,2019-08-06 14:28:38:107,171.91587740067862,-171.7110890872291,0,-50.229549407958984,43.03247833251953,-27.438827514648438
-0.13227878510951996,-0.22635173797607422,9.572784423828125,0.002890235364380249,0.016237795629809405,0.00047575672638364575,1.6100308895111084,2019-08-06 14:28:38:117,172.05261125306816,-171.85139922637575,0,-51.27912139892578,44.381927490234375,-27.58876609802246
-0.08198904246091843,-0.23593074083328247,9.577573776245117,-0.003236530830246241,0.014639508864274061,-0.01071225131505889,1.620032787322998,2019-08-06 14:28:38:127,172.19352800631188,-171.98433119659043,0,-51.27912139892578,44.381927490234375,-27.58876609802246
-0.11551553755998611,-0.25748348236083984,9.589548110961914,-0.002703768575067792,0.014373127216536186,-0.0021880547120550534,1.630051612854004,2019-08-06 14:28:38:137,172.3277687490875,-172.11236261776526,0,-51.27912139892578,44.381927490234375,-27.58876609802246
-0.13467353582382202,-0.21198324859142303,9.618284225463867,-0.002703768575067792,0.016770557884987856,-0.001655292456876604,1.640028476715088,2019-08-06 14:28:38:147,172.4557746536208,-172.2433492689937,0,-51.27912139892578,44.381927490234375,-27.58876609802246
-0.1035417914390564,-0.19761474430561066,9.575179100036621,-0.0008391006169246387,0.01357398435391716,-0.003519960350001176,1.6500413417816162,2019-08-06 14:28:38:157,172.58663663518564,-172.37436421150787,0,-51.27912139892578,44.381927490234375,-27.58876609802246
-0.08438379317522049,-0.24311499297618866,9.613494873046875,-0.0019046251923001184,0.016504176237249982,0.0010085190140713856,1.6600284576416016,2019-08-06 14:28:38:167,172.71559059407164,-172.49683605754143,0,-51.27912139892578,44.381927490234375,-27.58876609802246
-0.1226997897028923,-0.18324624001979828,9.611100196838379,0.002890235364380249,0.014373127216536186,0.001541281334268416,1.6700544357299805,2019-08-06 14:28:38:177,172.83855882680336,-172.62668091600244,0,-51.27912139892578,44.381927490234375,-27.58876609802246
-0.14425253868103027,-0.2407202422618866,9.654206275939941,0.0002264239747054862,0.014905889471714633,0.003672330354982212,1.6800336837768555,2019-08-06 14:28:38:187,172.95631445814712,-172.7457075617937,0,-51.27912139892578,44.381927490234375,-27.58876609802246
-0.09875229001045227,-0.2407202422618866,9.606310844421387,-0.004568436468192365,0.014905889471714633,-0.0003233867214026093,1.6900317668914795,2019-08-06 14:28:38:197,173.07704060919488,-172.85951975379447,0,-51.27912139892578,44.381927490234375,-27.58876609802246
-0.08917329460382462,-0.23832549154758453,9.66139030456543,-3.9957173202045016e-05,0.011975696548084513,-0.001655292456876604,1.7000377178192139,2019-08-06 14:28:38:207,173.19819511620616,-172.97404539494377,0,-51.27912139892578,44.381927490234375,-27.58876609802246
-0.11072604358196259,-0.1880357414484024,9.623074531555176,0.0007591862786478714,0.015438651726893083,0.001541281334268416,1.7100329399108887,2019-08-06 14:28:38:217,173.3123818998199,-173.09260212090902,0,-51.27912139892578,44.381927490234375,-27.58876609802246
-0.09875229001045227,-0.23832549154758453,9.651811599731445,-0.002703768575067792,0.01863522629826108,0.0018076624618576407,1.720050573348999,2019-08-06 14:28:38:227,173.4239281564877,-173.20093968848656,0,-51.27912139892578,44.381927490234375,-27.58876609802246
-0.0963575467467308,-0.255088746547699,9.596732139587402,-0.0003063383292368989,0.01064379143028704,-5.7005565367755386e-05,1.7300324440002441,2019-08-06 14:28:38:237,173.53797858905554,-173.30629702389874,0,-51.27912139892578,44.381927490234375,-27.58876609802246
-0.13467353582382202,-0.2335359901189804,9.558416366577148,-0.0016382440647108938,0.019167987513142228,-0.0021880547120550534,1.7400333881378174,2019-08-06 14:28:38:247,173.64031086535812,-173.41125911325798,0,-51.27912139892578,44.381927490234375,-27.58876609802246
-0.0963575467467308,-0.23114123940467834,9.601521492004395,-0.0061667232337277115,0.012242078195822388,-0.0027208169672335025,1.7500369548797607,2019-08-06 14:28:38:257,173.74912865982589,-173.51198933536762,0,-51.27912139892578,44.381927490234375,-27.58876609802246
-0.11312079429626465,-0.23832549154758453,9.584757804870605,-0.0005727194893354142,0.0183688436102259,0.0007421378864821609,1.760028600692749,2019-08-06 14:28:38:267,173.85031697733731,-173.61294085652253,0,-51.27912139892578,44.381927490234375,-27.58876609802246
-0.08917329460382462,-0.21198324859142303,9.589548110961914,-0.002970149702657017,0.017036938492428433,0.001541281334268416,1.7700533866882324,2019-08-06 14:28:38:277,173.95306513687842,-173.71368308016892,0,-51.27912139892578,44.381927490234375,-27.58876609802246
-0.0771995484828949,-0.22635173797607422,9.67336368560791,0.0002264239747054862,0.017036938492428433,-0.0053846282431257485,1.7800235748291016,2019-08-06 14:28:38:287,174.0553211994147,-173.81272723274733,0,-51.27912139892578,44.381927490234375,-27.58876609802246
-0.11791028827428818,-0.20958849787712097,9.613494873046875,0.0012919485988449018,0.012508459843560263,-5.7005565367755386e-05,1.7900371551513672,2019-08-06 14:28:38:297,174.1531277118941,-173.91222039206772,0,-51.27912139892578,44.381927490234375,-27.58876609802246
-0.13467353582382202,-0.19282524287700653,9.637442588806152,-0.005101198723370813,0.017303320140166306,0.0007421378864821609,1.800034523010254,2019-08-06 14:28:38:307,174.24433995233028,-174.00818808579345,0,-51.27912139892578,44.381927490234375,-27.58876609802246
-0.11791028827428818,-0.2071937471628189,9.615889549255371,0.0004928051185493561,0.014373127216536186,0.003405949227392988,1.8100507259368896,2019-08-06 14:28:38:317,174.33731904269032,-174.1036142378235,0,-51.27912139892578,44.381927490234375,-27.58876609802246
-0.11312079429626465,-0.2143779993057251,9.675758361816406,-0.0024373874474785677,0.01410674660909561,0.004205092610160662,1.820014238357544,2019-08-06 14:28:38:327,174.4292841774598,-174.19479337975682,0,-51.27912139892578,44.381927490234375,-27.58876609802246
-0.10833129286766052,-0.22635173797607422,9.627863883972168,-0.003502911957835466,0.009045504664751694,0.0023404247170360896,1.8299987316131592,2019-08-06 14:28:38:337,174.52273420353808,-174.2819980899167,0,-51.27912139892578,44.381927490234375,-27.58876609802246
-0.09396279603242874,-0.21677273511886597,9.654206275939941,-0.0005727194893354142,0.016504176237249982,-0.001122530201698155,1.8400187492370605,2019-08-06 14:28:38:347,174.61184124135897,-174.3703101711474,0,-51.27912139892578,44.381927490234375,-27.58876609802246
-0.10833129286766052,-0.20958849787712097,9.647021293640137,-0.0008391006169246387,0.009045504664751694,0.00047575672638364575,1.8500168323516846,2019-08-06 14:28:38:357,174.70165882531035,-174.45754097710935,0,-51.27912139892578,44.381927490234375,-27.58876609802246
-0.13946303725242615,-0.25748348236083984,9.594337463378906,0.0020910919816125757,0.012242078195822388,0.0018076624618576407,1.8600244522094727,2019-08-06 14:28:38:367,174.78409067485464,-174.53881961109175,0,-50.07960891723633,44.981685638427734,-29.08815574645996
-0.13227878510951996,-0.2071937471628189,9.627863883972168,-0.004035674213013915,0.01357398435391716,-0.0005897678815011245,1.8700177669525146,2019-08-06 14:28:38:377,174.8650492531361,-174.62112215863436,0,-50.07960891723633,44.981685638427734,-29.08815574645996
-0.16341052949428558,-0.1952199935913086,9.584757804870605,-0.0008391006169246387,0.016504176237249982,0.0007421378864821609,1.8800170421600342,2019-08-06 14:28:38:387,174.93894704567398,-174.7048920950307,0,-50.07960891723633,44.981685638427734,-29.08815574645996
-0.1226997897028923,-0.22874648869037628,9.666179656982422,0.0026238542367910244,0.014373127216536186,0.0020740435894468653,1.8900187015533447,2019-08-06 14:28:38:397,175.01755112233468,-174.78515518918593,0,-50.07960891723633,44.981685638427734,-29.08815574645996
-0.16580528020858765,-0.22395698726177216,9.663784980773926,0.0015583297264341264,0.015971413982071532,-0.002987198094822727,1.9000177383422852,2019-08-06 14:28:38:407,175.0885740503165,-174.863775305884,0,-50.07960891723633,44.981685638427734,-29.08815574645996
-0.1490420401096344,-0.21677273511886597,9.615889549255371,0.0010255674062370958,0.013307602706179285,-5.7005565367755386e-05,1.9100341796875,2019-08-06 14:28:38:417,175.1615583198541,-174.9412483937655,0,-50.07960891723633,44.981685638427734,-29.08815574645996
-0.11312079429626465,-0.21916748583316803,9.60391616821289,0.0007591862786478714,0.013840364961357736,0.0018076624618576407,1.9200079441070557,2019-08-06 14:28:38:427,175.23707952589953,-175.0167026038696,0,-50.07960891723633,44.981685638427734,-29.08815574645996
-0.1226997897028923,-0.22874648869037628,9.635047912597656,-0.0019046251923001184,0.012774840451000838,-0.0013889113292873795,1.930009126663208,2019-08-06 14:28:38:437,175.31057188807856,-175.0880988113621,0,-50.07960891723633,44.981685638427734,-29.08815574645996
-0.10114704072475433,-0.2335359901189804,9.694916725158691,-0.0008391006169246387,0.013041222098738713,0.006069760763359559,1.9400110244750977,2019-08-06 14:28:38:447,175.38508153155553,-175.15826754266743,0,-50.07960891723633,44.981685638427734,-29.08815574645996
-0.08198904246091843,-0.20958849787712097,9.639837265014648,-0.002970149702657017,0.011442934292906064,0.0007421378864821609,1.9500267505645752,2019-08-06 14:28:38:457,175.46119856280896,-175.2285213623154,0,-50.07960891723633,44.981685638427734,-29.08815574645996
-0.12509453296661377,-0.2407202422618866,9.666179656982422,-0.0005727194893354142,0.016237795629809405,0.0010085190140713856,1.9600138664245605,2019-08-06 14:28:38:467,175.5280398389776,-175.29509852986132,0,-50.07960891723633,44.981685638427734,-29.08815574645996
-0.1298840343952179,-0.21916748583316803,9.611100196838379,-0.0003063383292368989,0.01570503337463096,0.00047575672638364575,1.9700076580047607,2019-08-06 14:28:38:477,175.59318124600816,-175.36289820841057,0,-50.07960891723633,44.981685638427734,-29.08815574645996
-0.1873580366373062,-0.1952199935913086,9.627863883972168,0.0012919485988449018,0.01410674660909561,0.005270617380591885,1.9800114631652832,2019-08-06 14:28:38:487,175.6510970080264,-175.4331339009245,0,-50.07960891723633,44.981685638427734,-29.08815574645996
-0.10114704072475433,-0.255088746547699,9.611100196838379,-0.002970149702657017,0.016770557884987856,-0.0027208169672335025,1.9900095462799072,2019-08-06 14:28:38:497,175.71660107820514,-175.4923971363871,0,-50.07960891723633,44.981685638427734,-29.08815574645996
-0.13706828653812408,-0.21677273511886597,9.618284225463867,-0.0019046251923001184,0.014373127216536186,0.0026068058446253144,2.000025987625122,2019-08-06 14:28:38:507,175.77785618277426,-175.55565621171277,0,-50.07960891723633,44.981685638427734,-29.08815574645996
-0.12748928368091583,-0.20958849787712097,9.615889549255371,-0.0005727194893354142,0.014639508864274061,-0.0005897678815011245,2.010152816772461,2019-08-06 14:28:38:517,175.838782864749,-175.61924493767825,0,-50.07960891723633,44.981685638427734,-29.08815574645996
-0.1298840343952179,-0.20958849787712097,9.606310844421387,0.0031566164919694735,0.013840364961357736,-0.0019216735844658289,2.0199992656707764,2019-08-06 14:28:38:527,175.8988625558435,-175.68360787601156,0,-50.07960891723633,44.981685638427734,-29.08815574645996
-0.13706828653812408,-0.19761474430561066,9.649415969848633,-0.005367579850960038,0.013041222098738713,0.0018076624618576407,2.0300137996673584,2019-08-06 14:28:38:537,175.95727559527933,-175.74345300683822,0,-50.07960891723633,44.981685638427734,-29.08815574645996
-0.11551553755998611,-0.255088746547699,9.594337463378906,0.0002264239747054862,0.016504176237249982,-0.0013889113292873795,2.0400099754333496,2019-08-06 14:28:38:547,176.01507043181957,-175.79825126367174,0,-50.07960891723633,44.981685638427734,-29.08815574645996
-0.15143679082393646,-0.21198324859142303,9.615889549255371,0.0002264239747054862,0.011176553685465489,-0.0005897678815011245,2.0500214099884033,2019-08-06 14:28:38:557,176.0704411539525,-175.85715578763165,0,-50.07960891723633,44.981685638427734,-29.08815574645996
-0.10593654215335846,-0.2335359901189804,9.62067985534668,0.0020910919816125757,0.015971413982071532,0.0028731869722145387,2.060014486312866,2019-08-06 14:28:38:567,176.12745306066387,-175.91337508116467,0,-50.07960891723633,44.981685638427734,-29.08815574645996
-0.15143679082393646,-0.22635173797607422,9.668574333190918,0.0012919485988449018,0.01410674660909561,-0.0019216735844658289,2.07000994682312,2019-08-06 14:28:38:577,176.179039915298,-175.96901045903272,0,-50.07960891723633,44.981685638427734,-29.08815574645996
-0.11072604358196259,-0.24790449440479279,9.6901273727417,-0.0024373874474785677,0.015971413982071532,-0.007515677783988195,2.0800092220306396,2019-08-06 14:28:38:587,176.23339839188387,-176.01895196160262,0,-50.07960891723633,44.981685638427734,-29.08815574645996
-0.12748928368091583,-0.20479899644851685,9.654206275939941,0.0004928051185493561,0.01570503337463096,-0.0027208169672335025,2.090024948120117,2019-08-06 14:28:38:597,176.2847666139094,-176.0745448923217,0,-50.07960891723633,44.981685638427734,-29.08815574645996
-0.10833129286766052,-0.25029924511909485,9.630258560180664,-0.002703768575067792,0.011975696548084513,-0.003519960350001176,2.100020408630371,2019-08-06 14:28:38:607,176.33946007483053,-176.12175982874982,0,-50.07960891723633,44.981685638427734,-29.08815574645996
-0.14664728939533234,-0.2143779993057251,9.651811599731445,0.0015583297264341264,0.011975696548084513,-0.0019216735844658289,2.110036849975586,2019-08-06 14:28:38:617,176.3885260557479,-176.17475313251262,0,-52.17875289916992,44.381927490234375,-27.58876609802246
-0.0963575467467308,-0.20240424573421478,9.577573776245117,0.0034229976195586987,0.014373127216536186,0.00020937558253977584,2.120009183883667,2019-08-06 14:28:38:627,176.44117899325656,-176.2289615659339,0,-52.17875289916992,44.381927490234375,-27.58876609802246
-0.11072604358196259,-0.22635173797607422,9.678153038024902,-0.003502911957835466,0.01863522629826108,0.003405949227392988,2.130009412765503,2019-08-06 14:28:38:637,176.48878187330016,-176.27561972764255,0,-52.17875289916992,44.381927490234375,-27.58876609802246
-0.11791028827428818,-0.25748348236083984,9.606310844421387,0.0004928051185493561,0.013840364961357736,0.0031395680998037635,2.140019416809082,2019-08-06 14:28:38:647,176.53716256383277,-176.31967703604025,0,-52.17875289916992,44.381927490234375,-27.58876609802246
-0.11791028827428818,-0.2335359901189804,9.613494873046875,0.0023574731092018,0.013041222098738713,0.00020937558253977584,2.1500110626220703,2019-08-06 14:28:38:657,176.58504875931976,-176.36677440702928,0,-52.17875289916992,44.381927490234375,-27.58876609802246
-0.10593654215335846,-0.2335359901189804,9.596732139587402,-0.003502911957835466,0.017303320140166306,-0.0024544358396442778,2.160010814666748,2019-08-06 14:28:38:667,176.63098319890977,-176.4095917921693,0,-52.17875289916992,44.381927490234375,-27.58876609802246
-0.04846255108714104,-0.26227298378944397,9.611100196838379,-0.003502911957835466,0.012508459843560263,0.0018076624618576407,2.170013904571533,2019-08-06 14:28:38:677,176.68555982066823,-176.44816985245285,0,-52.17875289916992,44.381927490234375,-27.58876609802246
-0.13946303725242615,-0.22395698726177216,9.606310844421387,0.0004928051185493561,0.01357398435391716,0.00020937558253977584,2.180011034011841,2019-08-06 14:28:38:687,176.727593969541,-176.49277258985362,0,-52.17875289916992,44.381927490234375,-27.58876609802246
-0.13706828653812408,-0.24311499297618866,9.63265323638916,-0.0008391006169246387,0.013840364961357736,-0.001122530201698155,2.190021514892578,2019-08-06 14:28:38:697,176.76895784030143,-176.5335302866861,0,-52.17875289916992,44.381927490234375,-27.58876609802246
-0.11551553755998611,-0.21677273511886597,9.6901273727417,-0.003236530830246241,0.010377409782549165,-5.7005565367755386e-05,2.2001256942749023,2019-08-06 14:28:38:707,176.81403132068755,-176.57539304155054,0,-52.17875289916992,44.381927490234375,-27.58876609802246
-0.1226997897028923,-0.2670624852180481,9.694916725158691,0.0002264239747054862,0.010111029175108591,0.004471473997824211,2.2100026607513428,2019-08-06 14:28:38:717,176.85764117271393,-176.61245259737848,0,-52.17875289916992,44.381927490234375,-27.58876609802246
-0.1298840343952179,-0.21916748583316803,9.663784980773926,0.0012919485988449018,0.012774840451000838,0.006336141890948784,2.2200119495391846,2019-08-06 14:28:38:727,176.89790812479498,-176.6549455841325,0,-52.17875289916992,44.381927490234375,-27.58876609802246
-0.13706828653812408,-0.2335359901189804,9.567995071411133,-0.0008391006169246387,0.010111029175108591,0.0018076624618576407,2.2300102710723877,2019-08-06 14:28:38:737,176.93785865885528,-176.6934115983898,0,-52.17875289916992,44.381927490234375,-27.58876609802246
-0.1418577879667282,-0.2143779993057251,9.570389747619629,-0.0003063383292368989,0.012508459843560263,0.001541281334268416,2.240018606185913,2019-08-06 14:28:38:747,176.97508797616058,-176.7337068452625,0,-52.17875289916992,44.381927490234375,-27.58876609802246
-0.13946303725242615,-0.24311499297618866,9.627863883972168,-0.002171006319889343,0.017303320140166306,-0.0027208169672335025,2.2500085830688477,2019-08-06 14:28:38:757,177.00928232955923,-176.76888533171964,0,-52.17875289916992,44.381927490234375,-27.58876609802246
-0.1035417914390564,-0.20479899644851685,9.647021293640137,-0.0011054818095324445,0.01357398435391716,0.004205092610160662,2.260010242462158,2019-08-06 14:28:38:767,177.0491749676403,-176.80856352418346,0,-52.17875289916992,44.381927490234375,-27.58876609802246
-0.12509453296661377,-0.2215622365474701,9.589548110961914,-0.003236530830246241,0.015438651726893083,0.0026068058446253144,2.270010232925415,2019-08-06 14:28:38:777,177.08457520766294,-176.84410378822926,0,-52.17875289916992,44.381927490234375,-27.58876609802246
-0.12748928368091583,-0.23593074083328247,9.611100196838379,0.0002264239747054862,0.014639508864274061,0.0031395680998037635,2.2800216674804688,2019-08-06 14:28:38:787,177.11945479478968,-176.87922501051628,0,-52.17875289916992,44.381927490234375,-27.58876609802246
-0.1298840343952179,-0.22395698726177216,9.611100196838379,-0.004302055340603139,0.013840364961357736,0.00020937558253977584,2.2900097370147705,2019-08-06 14:28:38:797,177.15381870825354,-176.9125306039002,0,-52.17875289916992,44.381927490234375,-27.58876609802246
-0.1298840343952179,-0.24790449440479279,9.608705520629883,0.0004928051185493561,0.0194343681205828,0.006336141890948784,2.300001382827759,2019-08-06 14:28:38:807,177.1843503044354,-176.94499841788303,0,-52.17875289916992,44.381927490234375,-27.58876609802246
-0.13227878510951996,-0.21198324859142303,9.608705520629883,0.0010255674062370958,0.01410674660909561,-0.000856149009090349,2.3100051879882812,2019-08-06 14:28:38:817,177.216965050301,-176.98139791242323,0,-52.17875289916992,44.381927490234375,-27.58876609802246
-0.12509453296661377,-0.21677273511886597,9.649415969848633,0.001824710854023351,0.01410674660909561,0.007401666401305682,2.3200113773345947,2019-08-06 14:28:38:827,177.24984516903555,-177.0170566620966,0,-52.17875289916992,44.381927490234375,-27.58876609802246
-0.1298840343952179,-0.2335359901189804,9.611100196838379,-0.0005727194893354142,0.012774840451000838,0.003672330354982212,2.330019474029541,2019-08-06 14:28:38:837,177.2821844861951,-177.04855505514715,0,-52.17875289916992,44.381927490234375,-27.58876609802246
-0.10593654215335846,-0.2526939809322357,9.584757804870605,-0.0019046251923001184,0.014639508864274061,0.0012749002066791914,2.340008497238159,2019-08-06 14:28:38:847,177.3156649184574,-177.07631159104199,0,-52.17875289916992,44.381927490234375,-27.58876609802246
-0.10114704072475433,-0.20958849787712097,9.656600952148438,-3.9957173202045016e-05,0.019700750808617978,-0.003786341477590401,2.3500077724456787,2019-08-06 14:28:38:857,177.3462881448986,-177.10989568370962,0,-52.17875289916992,44.381927490234375,-27.58876609802246
-0.10833129286766052,-0.1952199935913086,9.639837265014648,-0.003502911957835466,0.01756970178790418,0.0023404247170360896,2.3600125312805176,2019-08-06 14:28:38:867,177.3766152087002,-177.14252675500214,0,-50.67936325073242,43.78217315673828,-28.788278579711914
-0.09875229001045227,-0.2718519866466522,9.599126815795898,-0.0019046251923001184,0.014905889471714633,0.004471473997824211,2.370014190673828,2019-08-06 14:28:38:877,177.40892353629326,-177.16616237769006,0,-50.67936325073242,43.78217315673828,-28.788278579711914
-0.11072604358196259,-0.22635173797607422,9.627863883972168,0.0020910919816125757,0.014639508864274061,0.00020937558253977584,2.380021810531616,2019-08-06 14:28:38:887,177.43934062179724,-177.19707857818213,0,-50.67936325073242,43.78217315673828,-28.788278579711914
-0.16580528020858765,-0.20479899644851685,9.608705520629883,0.0015583297264341264,0.016237795629809405,-0.0019216735844658289,2.3900105953216553,2019-08-06 14:28:38:897,177.46167488068727,-177.22959079151875,0,-50.67936325073242,43.78217315673828,-28.788278579711914
-0.1298840343952179,-0.2215622365474701,9.630258560180664,-0.0008391006169246387,0.017036938492428433,0.0010085190140713856,2.400010108947754,2019-08-06 14:28:38:907,177.4874215162792,-177.2581685484387,0,-50.67936325073242,43.78217315673828,-28.788278579711914
-0.1035417914390564,-0.19761474430561066,9.642231941223145,0.0002264239747054862,0.016237795629809405,-0.001122530201698155,2.410029411315918,2019-08-06 14:28:38:917,177.51623320168238,-177.28965063964702,0,-50.67936325073242,43.78217315673828,-28.788278579711914
-0.12509453296661377,-0.17606200277805328,9.599126815795898,0.0004928051185493561,0.015172271119452508,-0.0013889113292873795,2.4200198650360107,2019-08-06 14:28:38:927,177.54246488777858,-177.32311866325279,0,-50.67936325073242,43.78217315673828,-28.788278579711914
-0.06762054562568665,-0.20958849787712097,9.630258560180664,0.0010255674062370958,0.017036938492428433,0.00047575672638364575,2.43001389503479,2019-08-06 14:28:38:937,177.57400896867492,-177.35229655981644,0,-50.67936325073242,43.78217315673828,-28.788278579711914
-0.10833129286766052,-0.20479899644851685,9.658995628356934,0.0010255674062370958,0.015438651726893083,-0.0032535792224119516,2.4400086402893066,2019-08-06 14:28:38:947,177.6010129869726,-177.3815330540751,0,-50.67936325073242,43.78217315673828,-28.788278579711914
-0.09396279603242874,-0.20000949501991272,9.60391616821289,-0.005633960978549262,0.013307602706179285,0.0020740435894468653,2.450011968612671,2019-08-06 14:28:38:957,177.63030698806617,-177.40687668827624,0,-50.67936325073242,43.78217315673828,-28.788278579711914
-0.0771995484828949,-0.21198324859142303,9.656600952148438,-0.0003063383292368989,0.015172271119452508,0.001541281334268416,2.460012674331665,2019-08-06 14:28:38:967,177.6600202280144,-177.43341585109295,0,-50.67936325073242,43.78217315673828,-28.788278579711914
-0.10593654215335846,-0.2143779993057251,9.623074531555176,-0.003502911957835466,0.011176553685465489,0.005803379635770335,2.470020294189453,2019-08-06 14:28:38:977,177.68792500933185,-177.45725524749918,0,-50.67936325073242,43.78217315673828,-28.788278579711914
-0.11312079429626465,-0.20958849787712097,9.637442588806152,-0.005633960978549262,0.01357398435391716,0.003938711482571438,2.480010509490967,2019-08-06 14:28:38:987,177.71310247049016,-177.4800331169789,0,-51.27912139892578,44.68180847167969,-28.188522338867188
-0.1490420401096344,-0.2407202422618866,9.575179100036621,0.0012919485988449018,0.012508459843560263,0.00020937558253977584,2.4900147914886475,2019-08-06 14:28:38:997,177.73397867071594,-177.50235591288168,0,-51.27912139892578,44.68180847167969,-28.188522338867188
-0.11791028827428818,-0.22635173797607422,9.618284225463867,-0.0016382440647108938,0.01756970178790418,0.00553699850818111,2.500011920928955,2019-08-06 14:28:39:007,177.7553895207364,-177.5244267774005,0,-51.27912139892578,44.68180847167969,-28.188522338867188
-0.13227878510951996,-0.24550974369049072,9.584757804870605,-0.0019046251923001184,0.012242078195822388,-0.0027208169672335025,2.510035276412964,2019-08-06 14:28:39:017,177.77757804328436,-177.5435205462831,0,-51.27912139892578,44.68180847167969,-28.188522338867188
-0.13467353582382202,-0.22635173797607422,9.560811042785645,-0.0013718629371216693,0.014639508864274061,0.0012749002066791914,2.520019054412842,2019-08-06 14:28:39:027,177.7976794589494,-177.56475665673372,0,-51.27912139892578,44.68180847167969,-28.188522338867188
-0.15143679082393646,-0.20000949501991272,9.647021293640137,0.0031566164919694735,0.01756970178790418,0.00553699850818111,2.530010938644409,2019-08-06 14:28:39:037,177.81388166235405,-177.5914779173188,0,-51.27912139892578,44.68180847167969,-28.188522338867188
-0.17777903378009796,-0.24790449440479279,9.606310844421387,0.0012919485988449018,0.01570503337463096,0.0031395680998037635,2.5400116443634033,2019-08-06 14:28:39:047,177.82758060441878,-177.61080842036452,0,-51.27912139892578,44.68180847167969,-28.188522338867188
-0.12748928368091583,-0.21916748583316803,9.685338020324707,-0.0024373874474785677,0.014639508864274061,0.0012749002066791914,2.550013542175293,2019-08-06 14:28:39:057,177.8477244126552,-177.63129714324774,0,-51.27912139892578,44.68180847167969,-28.188522338867188
-0.15383154153823853,-0.23832549154758453,9.649415969848633,-0.003236530830246241,0.01570503337463096,0.0028731869722145387,2.5600199699401855,2019-08-06 14:28:39:067,177.86367919677642,-177.6485561535142,0,-51.27912139892578,44.68180847167969,-28.188522338867188
-0.14425253868103027,-0.21198324859142303,9.63265323638916,-0.0013718629371216693,0.016237795629809405,0.00047575672638364575,2.5700125694274902,2019-08-06 14:28:39:077,177.8801356337036,-177.6696015102206,0,-51.27912139892578,44.68180847167969,-28.188522338867188
-0.12748928368091583,-0.24311499297618866,9.60391616821289,-0.0019046251923001184,0.016237795629809405,-0.0013889113292873795,2.580009937286377,2019-08-06 14:28:39:087,177.89820700727435,-177.68613862947097,0,-51.27912139892578,44.68180847167969,-28.188522338867188
-0.11072604358196259,-0.21198324859142303,9.639837265014648,-0.005101198723370813,0.016770557884987856,0.00020937558253977584,2.5900089740753174,2019-08-06 14:28:39:097,177.91766537956804,-177.70435680988544,0,-51.27912139892578,44.68180847167969,-28.188522338867188
-0.10114704072475433,-0.2215622365474701,9.637442588806152,0.0023574731092018,0.011442934292906064,0.001541281334268416,2.600011110305786,2019-08-06 14:28:39:107,177.9408593173935,-177.72525402015603,0,-51.27912139892578,44.68180847167969,-28.188522338867188
-0.13227878510951996,-0.21198324859142303,9.613494873046875,0.0002264239747054862,0.012242078195822388,0.0010085190140713856,2.61002254486084,2019-08-06 14:28:39:117,177.9593939034258,-177.74561219944252,0,-50.07960891723633,43.78217315673828,-29.38803482055664
-0.0963575467467308,-0.2526939809322357,9.658995628356934,0.0002264239747054862,0.014373127216536186,0.004205092610160662,2.6200122833251953,2019-08-06 14:28:39:127,177.98071261124534,-177.76085490786875,0,-50.07960891723633,43.78217315673828,-29.38803482055664
-0.11072604358196259,-0.17606200277805328,9.625469207763672,0.003955759874737148,0.012774840451000838,0.0007421378864821609,2.6300103664398193,2019-08-06 14:28:39:137,178.0007452843579,-177.78690062971415,0,-50.07960891723633,43.78217315673828,-29.38803482055664
-0.13467353582382202,-0.21198324859142303,9.627863883972168,-0.0016382440647108938,0.011176553685465489,0.004205092610160662,2.640014171600342,2019-08-06 14:28:39:147,178.01842447092514,-177.80501606569405,0,-50.07960891723633,43.78217315673828,-29.38803482055664
-0.16341052949428558,-0.23114123940467834,9.64462661743164,-3.9957173202045016e-05,0.01410674660909561,-5.7005565367755386e-05,2.650010824203491,2019-08-06 14:28:39:157,178.03072413106798,-177.821435782606,0,-50.07960891723633,43.78217315673828,-29.38803482055664
-0.11791028827428818,-0.21198324859142303,9.639837265014648,-0.002703768575067792,0.01357398435391716,0.0018076624618576407,2.660022258758545,2019-08-06 14:28:39:167,178.04846351838447,-177.83829216187846,0,-50.07960891723633,43.78217315673828,-29.38803482055664
-0.1035417914390564,-0.18324624001979828,9.716469764709473,-0.002171006319889343,0.013840364961357736,-5.7005565367755386e-05,2.6700117588043213,2019-08-06 14:28:39:177,178.0675202830892,-177.8586999275158,0,-50.07960891723633,43.78217315673828,-29.38803482055664
-0.11312079429626465,-0.21677273511886597,9.675758361816406,0.0004928051185493561,0.01863522629826108,0.005004236253002661,2.6800103187561035,2019-08-06 14:28:39:187,178.08231126316798,-177.87613414960387,0,-50.07960891723633,43.78217315673828,-29.38803482055664
-0.11312079429626465,-0.20240424573421478,9.627863883972168,-0.0019046251923001184,0.014905889471714633,0.0026068058446253144,2.6900129318237305,2019-08-06 14:28:39:197,178.09883011180113,-177.89345498538003,0,-50.07960891723633,43.78217315673828,-29.38803482055664
-0.11551553755998611,-0.2670624852180481,9.615889549255371,-0.004834817595781589,0.01064379143028704,0.0031395680998037635,2.7000207901000977,2019-08-06 14:28:39:207,178.11710713394336,-177.90105162831978,0,-50.07960891723633,43.78217315673828,-29.38803482055664
-0.12509453296661377,-0.24311499297618866,9.654206275939941,0.0010255674062370958,0.015438651726893083,0.00047575672638364575,2.710014581680298,2019-08-06 14:28:39:217,178.13125420250392,-177.9147554151944,0,-50.07960891723633,43.78217315673828,-29.38803482055664
-0.12509453296661377,-0.21198324859142303,9.613494873046875,-0.002703768575067792,0.014373127216536186,0.006602523018538008,2.720001459121704,2019-08-06 14:28:39:227,178.1456589599514,-177.92968011429298,0,-50.07960891723633,43.78217315673828,-29.38803482055664
-0.09875229001045227,-0.22874648869037628,9.606310844421387,0.0004928051185493561,0.01570503337463096,0.0031395680998037635,2.7300028800964355,2019-08-06 14:28:39:237,178.16214664531967,-177.94408175320865,0,-51.42905807495117,43.93211364746094,-27.438827514648438
-0.13706828653812408,-0.23832549154758453,9.625469207763672,0.002890235364380249,0.013840364961357736,-0.0005897678815011245,2.740002393722534,2019-08-06 14:28:39:247,178.17481581808414,-177.95845596233093,0,-51.42905807495117,43.93211364746094,-27.438827514648438
-0.10593654215335846,-0.19043049216270447,9.647021293640137,-0.003236530830246241,0.014905889471714633,0.004737855125413436,2.7500102519989014,2019-08-06 14:28:39:257,178.1903601856573,-177.97485087386582,0,-51.42905807495117,43.93211364746094,-27.438827514648438
-0.10114704072475433,-0.21916748583316803,9.608705520629883,-0.0019046251923001184,0.010910172037727614,-0.0003233867214026093,2.7600107192993164,2019-08-06 14:28:39:267,178.20836449447617,-177.98815140390897,0,-51.42905807495117,43.93211364746094,-27.438827514648438
-0.11791028827428818,-0.24311499297618866,9.694916725158691,-0.0003063383292368989,0.013041222098738713,0.0012749002066791914,2.7700135707855225,2019-08-06 14:28:39:277,178.22293646572552,-177.99948673805463,0,-51.42905807495117,43.93211364746094,-27.438827514648438
-0.08438379317522049,-0.26945722103118896,9.647021293640137,-3.9957173202045016e-05,0.012508459843560263,0.005803379635770335,2.780012369155884,2019-08-06 14:28:39:287,178.24143187498018,-178.00747557694334,0,-51.42905807495117,43.93211364746094,-27.438827514648438
-0.13467353582382202,-0.20240424573421478,9.635047912597656,-0.0013718629371216693,0.011176553685465489,0.0007421378864821609,2.7900116443634033,2019-08-06 14:28:39:297,178.25431212163437,-178.0224870188827,0,-51.42905807495117,43.93211364746094,-27.438827514648438
-0.0963575467467308,-0.2071937471628189,9.615889549255371,0.002890235364380249,0.018901606905701654,0.003938711482571438,2.800018548965454,2019-08-06 14:28:39:307,178.26712287998856,-178.03897401824392,0,-51.42905807495117,43.93211364746094,-27.438827514648438
-0.1490420401096344,-0.2071937471628189,9.579968452453613,0.0026238542367910244,0.014905889471714633,0.006336141890948784,2.8099923133850098,2019-08-06 14:28:39:317,178.27560639924675,-178.05488418058073,0,-51.42905807495117,43.93211364746094,-27.438827514648438
-0.1490420401096344,-0.22395698726177216,9.615889549255371,0.0012919485988449018,0.012774840451000838,0.001541281334268416,2.820009469985962,2019-08-06 14:28:39:327,178.2851491458652,-178.06782927099732,0,-51.42905807495117,43.93211364746094,-27.438827514648438
-0.13467353582382202,-0.1952199935913086,9.630258560180664,-0.0019046251923001184,0.011975696548084513,-0.0005897678815011245,2.830010175704956,2019-08-06 14:28:39:337,178.296697436002,-178.0821768942535,0,-51.42905807495117,43.93211364746094,-27.438827514648438
-0.1226997897028923,-0.22635173797607422,9.680547714233398,-0.002703768575067792,0.014373127216536186,0.001541281334268416,2.8400185108184814,2019-08-06 14:28:39:347,178.30816270310572,-178.0922248729607,0,-51.42905807495117,43.93211364746094,-27.438827514648438
-0.1562262922525406,-0.21198324859142303,9.615889549255371,0.0007591862786478714,0.014373127216536186,0.0031395680998037635,2.8500101566314697,2019-08-06 14:28:39:357,178.3153200123815,-178.10554856854432,0,-51.42905807495117,43.93211364746094,-27.438827514648438
-0.14425253868103027,-0.23114123940467834,9.601521492004395,-0.0005727194893354142,0.014639508864274061,0.007401666401305682,2.860027313232422,2019-08-06 14:28:39:367,178.323564590277,-178.11553471033693,0,-51.27912139892578,43.482295989990234,-27.88864517211914
-0.11551553755998611,-0.19043049216270447,9.596732139587402,-0.003236530830246241,0.011442934292906064,0.0012749002066791914,2.870021343231201,2019-08-06 14:28:39:377,178.33687926149616,-178.12867207128411,0,-51.27912139892578,43.482295989990234,-27.88864517211914
-0.1298840343952179,-0.21198324859142303,9.67336368560791,-0.003502911957835466,0.014373127216536186,0.007934428656484131,2.8800315856933594,2019-08-06 14:28:39:387,178.34667766065715,-178.13902202234524,0,-51.27912139892578,43.482295989990234,-27.88864517211914
-0.11551553755998611,-0.22635173797607422,9.611100196838379,-0.0005727194893354142,0.012242078195822388,0.0007421378864821609,2.8900644779205322,2019-08-06 14:28:39:397,178.35907552389193,-178.1489363872658,0,-51.27912139892578,43.482295989990234,-27.88864517211914
-0.12509453296661377,-0.2335359901189804,9.606310844421387,0.0004928051185493561,0.013041222098738713,-0.000856149009090349,2.9001452922821045,2019-08-06 14:28:39:407,178.3695908006216,-178.15838409916302,0,-51.27912139892578,43.482295989990234,-27.88864517211914
-0.14425253868103027,-0.255088746547699,9.658995628356934,-0.0011054818095324445,0.012774840451000838,0.0018076624618576407,2.910003185272217,2019-08-06 14:28:39:417,178.3780154271713,-178.1643485457571,0,-51.27912139892578,43.482295989990234,-27.88864517211914
-0.13467353582382202,-0.23593074083328247,9.606310844421387,-0.0016382440647108938,0.009045504664751694,-0.004851865987947299,2.91998553276062,2019-08-06 14:28:39:427,178.38932118973455,-178.17200532680894,0,-51.27912139892578,43.482295989990234,-27.88864517211914
-0.12748928368091583,-0.19761474430561066,9.611100196838379,-0.002703768575067792,0.015172271119452508,0.00553699850818111,2.929983377456665,2019-08-06 14:28:39:437,178.39781794736493,-178.18348942518426,0,-51.27912139892578,43.482295989990234,-27.88864517211914
-0.1418577879667282,-0.22874648869037628,9.658995628356934,-0.0013718629371216693,0.013840364961357736,0.0020740435894468653,2.939985513687134,2019-08-06 14:28:39:447,178.4052601901931,-178.19191641606506,0,-51.27912139892578,43.482295989990234,-27.88864517211914
-0.11551553755998611,-0.2143779993057251,9.64462661743164,0.0015583297264341264,0.014905889471714633,0.004737855125413436,2.9501044750213623,2019-08-06 14:28:39:457,178.41496158947012,-178.2034966068042,0,-51.27912139892578,43.482295989990234,-27.88864517211914
-0.16341052949428558,-0.2335359901189804,9.64462661743164,0.00555404690034682,0.01570503337463096,0.0020740435894468653,2.959984064102173,2019-08-06 14:28:39:467,178.41853660257377,-178.2147658152143,0,-51.27912139892578,43.482295989990234,-27.88864517211914
-0.10593654215335846,-0.2215622365474701,9.615889549255371,-0.0005727194893354142,0.01810246300278533,0.0023404247170360896,2.9699690341949463,2019-08-06 14:28:39:477,178.42739280212447,-178.22375072998173,0,-51.27912139892578,43.482295989990234,-27.88864517211914
-0.13227878510951996,-0.2143779993057251,9.625469207763672,0.001824710854023351,0.016237795629809405,0.0031395680998037635,2.979984998703003,2019-08-06 14:28:39:487,178.4339660443438,-178.23478436406032,0,-51.878875732421875,44.08205032348633,-27.88864517211914
-0.12509453296661377,-0.21916748583316803,9.596732139587402,-0.002171006319889343,0.01570503337463096,0.0026068058446253144,2.9900221824645996,2019-08-06 14:28:39:497,178.4414992799604,-178.24269957536018,0,-51.878875732421875,44.08205032348633,-27.88864517211914
-0.14425253868103027,-0.24550974369049072,9.658995628356934,-0.0011054818095324445,0.01410674660909561,0.0007421378864821609,3.0000035762786865,2019-08-06 14:28:39:507,178.44765067708983,-178.24810570917697,0,-51.878875732421875,44.08205032348633,-27.88864517211914
-0.12030503898859024,-0.19761474430561066,9.670969009399414,-0.0037692930854246903,0.017036938492428433,0.003405949227392988,3.010005474090576,2019-08-06 14:28:39:517,178.45487539070032,-178.25761457696692,0,-51.878875732421875,44.08205032348633,-27.88864517211914
-0.14425253868103027,-0.24550974369049072,9.575179100036621,-0.0003063383292368989,0.01410674660909561,0.0007421378864821609,3.0200023651123047,2019-08-06 14:28:39:527,178.4605972189016,-178.262915233267,0,-51.878875732421875,44.08205032348633,-27.88864517211914
-0.10833129286766052,-0.24311499297618866,9.635047912597656,-0.004035674213013915,0.013307602706179285,-0.000856149009090349,3.030003786087036,2019-08-06 14:28:39:537,178.47102849667326,-178.2664825608009,0,-51.878875732421875,44.08205032348633,-27.88864517211914
-0.1298840343952179,-0.2407202422618866,9.618284225463867,-0.0016382440647108938,0.01756970178790418,0.0026068058446253144,3.040004014968872,2019-08-06 14:28:39:547,178.4762689856583,-178.27155976272553,0,-51.878875732421875,44.08205032348633,-27.88864517211914
-0.10593654215335846,-0.20479899644851685,9.639837265014648,0.001824710854023351,0.01570503337463096,0.0012749002066791914,3.050011396408081,2019-08-06 14:28:39:557,178.48532626281875,-178.2828125037314,0,-51.878875732421875,44.08205032348633,-27.88864517211914
-0.12509453296661377,-0.25748348236083984,9.642231941223145,-0.0003063383292368989,0.012242078195822388,0.0018076624618576407,3.0599958896636963,2019-08-06 14:28:39:567,178.49389066138193,-178.28639157078274,0,-51.878875732421875,44.08205032348633,-27.88864517211914
-0.13946303725242615,-0.22635173797607422,9.627863883972168,-0.004568436468192365,0.014905889471714633,-0.0027208169672335025,3.070002555847168,2019-08-06 14:28:39:577,178.49903979753,-178.2911612665785,0,-51.878875732421875,44.08205032348633,-27.88864517211914
-0.12030503898859024,-0.2143779993057251,9.623074531555176,-3.9957173202045016e-05,0.016237795629809405,0.0020740435894468653,3.0800061225891113,2019-08-06 14:28:39:587,178.50561307324944,-178.29979168980682,0,-51.878875732421875,44.08205032348633,-27.88864517211914
-0.11312079429626465,-0.23832549154758453,9.635047912597656,0.0020910919816125757,0.011975696548084513,0.0026068058446253144,3.0900111198425293,2019-08-06 14:28:39:597,178.51532004909893,-178.30663183751278,0,-51.878875732421875,44.08205032348633,-27.88864517211914
-0.13227878510951996,-0.2335359901189804,9.651811599731445,-0.0019046251923001184,0.014639508864274061,0.0018076624618576407,3.100003480911255,2019-08-06 14:28:39:607,178.5210959891071,-178.3117093187547,0,-51.878875732421875,44.08205032348633,-27.88864517211914
-0.13467353582382202,-0.21916748583316803,9.647021293640137,-0.0011054818095324445,0.013840364961357736,0.0028731869722145387,3.1099987030029297,2019-08-06 14:28:39:617,178.5269103608794,-178.3188255027666,0,-51.27912139892578,44.08205032348633,-27.88864517211914
-0.12509453296661377,-0.22635173797607422,9.685338020324707,-3.9957173202045016e-05,0.012242078195822388,-0.0021880547120550534,3.1200053691864014,2019-08-06 14:28:39:627,178.534693991266,-178.32565073110197,0,-51.27912139892578,44.08205032348633,-27.88864517211914
-0.11551553755998611,-0.22395698726177216,9.613494873046875,-0.0013718629371216693,0.016237795629809405,0.005270617380591885,3.130011796951294,2019-08-06 14:28:39:637,178.5411081175195,-178.33167637980893,0,-51.27912139892578,44.08205032348633,-27.88864517211914
-0.1226997897028923,-0.17366725206375122,9.615889549255371,0.0020910919816125757,0.015971413982071532,0.0010085190140713856,3.14003324508667,2019-08-06 14:28:39:647,178.54667758017442,-178.34552601916073,0,-51.27912139892578,44.08205032348633,-27.88864517211914
-0.11791028827428818,-0.1880357414484024,9.623074531555176,-0.0008391006169246387,0.013041222098738713,-0.001655292456876604,3.150003671646118,2019-08-06 14:28:39:657,178.55440300263996,-178.3557572937624,0,-51.27912139892578,44.08205032348633,-27.88864517211914
-0.1226997897028923,-0.22395698726177216,9.723653793334961,-0.0003063383292368989,0.01357398435391716,0.0026068058446253144,3.1600029468536377,2019-08-06 14:28:39:667,178.56123453310195,-178.36208187811525,0,-51.27912139892578,44.08205032348633,-27.88864517211914
-0.1682000309228897,-0.22395698726177216,9.623074531555176,-0.003236530830246241,0.01570503337463096,0.003672330354982212,3.1700034141540527,2019-08-06 14:28:39:677,178.5611638573251,-178.36635886613405,0,-51.27912139892578,44.08205032348633,-27.88864517211914
-0.11791028827428818,-0.2215622365474701,9.67336368560791,-0.0016382440647108938,0.014639508864274061,-0.000856149009090349,3.180006504058838,2019-08-06 14:28:39:687,178.56775090607198,-178.37186965400795,0,-51.27912139892578,44.08205032348633,-27.88864517211914
-0.17059478163719177,-0.22395698726177216,9.575179100036621,0.001824710854023351,0.016504176237249982,0.00553699850818111,3.1900129318237305,2019-08-06 14:28:39:697,178.5667089806027,-178.37866018450896,0,-51.27912139892578,44.08205032348633,-27.88864517211914
-0.13946303725242615,-0.21677273511886597,9.627863883972168,-0.004834817595781589,0.014373127216536186,0.003405949227392988,3.200110673904419,2019-08-06 14:28:39:707,178.57062759233912,-178.38254960747742,0,-51.27912139892578,44.08205032348633,-27.88864517211914
-0.15862104296684265,-0.2407202422618866,9.625469207763672,0.003689378747147923,0.018901606905701654,0.006602523018538008,3.210016965866089,2019-08-06 14:28:39:717,178.56981908500737,-178.38829892448038,0,-51.27912139892578,44.08205032348633,-27.88864517211914
-0.13467353582382202,-0.19043049216270447,9.635047912597656,-0.0013718629371216693,0.01410674660909561,0.005803379635770335,3.220004081726074,2019-08-06 14:28:39:727,178.5744960386925,-178.39711830690635,0,-51.27912139892578,44.08205032348633,-27.88864517211914
-0.12509453296661377,-0.20479899644851685,9.62067985534668,-0.0008391006169246387,0.013307602706179285,0.0018076624618576407,3.2300052642822266,2019-08-06 14:28:39:737,178.58063390992533,-178.40431488275414,0,-51.57899856567383,44.08205032348633,-29.38803482055664
-0.1825685352087021,-0.17845675349235535,9.625469207763672,0.0020910919816125757,0.011975696548084513,-5.7005565367755386e-05,3.240013360977173,2019-08-06 14:28:39:747,178.5805592056292,-178.4161607737731,0,-51.57899856567383,44.08205032348633,-29.38803482055664
-0.1490420401096344,-0.20958849787712097,9.654206275939941,-0.003236530830246241,0.014373127216536186,0.0023404247170360896,3.2499938011169434,2019-08-06 14:28:39:757,178.58320402834582,-178.42115039777548,0,-51.57899856567383,44.08205032348633,-29.38803482055664
-0.14664728939533234,-0.24790449440479279,9.584757804870605,-0.0003063383292368989,0.017303320140166306,0.004205092610160662,3.2600038051605225,2019-08-06 14:28:39:767,178.58428323752113,-178.42292333848343,0,-51.57899856567383,44.08205032348633,-29.38803482055664
-0.1562262922525406,-0.2215622365474701,9.656600952148438,-0.005101198723370813,0.014373127216536186,0.0026068058446253144,3.2700014114379883,2019-08-06 14:28:39:777,178.58599179414563,-178.42531382557496,0,-51.57899856567383,44.08205032348633,-29.38803482055664
-0.1753842830657959,-0.2143779993057251,9.627863883972168,0.0010255674062370958,0.017303320140166306,-0.0021880547120550534,3.2800192832946777,2019-08-06 14:28:39:787,178.5836667430243,-178.43187321798277,0,-51.57899856567383,44.08205032348633,-29.38803482055664
-0.19693702459335327,-0.20000949501991272,9.668574333190918,-0.0013718629371216693,0.013840364961357736,0.003405949227392988,3.2900052070617676,2019-08-06 14:28:39:797,178.58089533039674,-178.43876487334927,0,-51.57899856567383,44.08205032348633,-29.38803482055664
-0.16341052949428558,-0.20479899644851685,9.594337463378906,-0.002171006319889343,0.015438651726893083,0.0007421378864821609,3.3000030517578125,2019-08-06 14:28:39:807,178.58109518982863,-178.4443140281629,0,-51.57899856567383,44.08205032348633,-29.38803482055664
-0.12509453296661377,-0.20000949501991272,9.654206275939941,-0.0037692930854246903,0.011975696548084513,-0.000856149009090349,3.310058832168579,2019-08-06 14:28:39:817,178.5878640513186,-178.44956255923245,0,-51.57899856567383,44.08205032348633,-29.38803482055664
-0.1825685352087021,-0.31016796827316284,9.656600952148438,-0.003502911957835466,0.011442934292906064,-0.002987198094822727,3.320003032684326,2019-08-06 14:28:39:827,178.58805523168635,-178.4418214875714,0,-51.57899856567383,44.08205032348633,-29.38803482055664
-0.21848978102207184,-0.21916748583316803,9.694916725158691,0.0007591862786478714,0.011176553685465489,0.0018076624618576407,3.3300201892852783,2019-08-06 14:28:39:837,178.58418715032298,-178.447511418752,0,-51.57899856567383,44.08205032348633,-29.38803482055664
-0.24243727326393127,-0.31016796827316284,9.728443145751953,-0.009096916157357832,0.015172271119452508,-0.0013889113292873795,3.340052604675293,2019-08-06 14:28:39:847,178.5754057486616,-178.43691434107652,0,-51.57899856567383,44.08205032348633,-29.38803482055664
-0.05804154649376869,-0.17127250134944916,9.651811599731445,-0.004302055340603139,0.015172271119452508,0.007934428656484131,3.350008487701416,2019-08-06 14:28:39:857,178.58852508312575,-178.4454388435982,0,-51.57899856567383,44.08205032348633,-29.38803482055664
-0.18975278735160828,-0.12577225267887115,9.532073974609375,0.009549763814185189,0.013840364961357736,0.0026068058446253144,3.3600075244903564,2019-08-06 14:28:39:867,178.5861755203739,-178.46677266713013,0,-50.979244232177734,42.882537841796875,-29.38803482055664
-0.5417810082435608,-0.3963789641857147,9.8721284866333,-0.008564153902179383,0.016237795629809405,-0.009913107412142566,3.3700077533721924,2019-08-06 14:28:39:877,178.54250963757866,-178.4466430231914,0,-50.979244232177734,42.882537841796875,-29.38803482055664
-0.017330802977085114,-0.32214173674583435,9.579968452453613,-0.0013718629371216693,0.021831799829331772,0.007668047528894907,3.3800129890441895,2019-08-06 14:28:39:887,178.55732146516795,-178.43842073265245,0,-50.979244232177734,42.882537841796875,-29.38803482055664
0.2628549039363861,0.05862347409129143,9.465021133422852,0.013545481248172208,0.017036938492428433,-0.000856149009090349,3.3899996280670166,2019-08-06 14:28:39:897,171.40843686213776,-171.28434528856766,0,-50.979244232177734,42.882537841796875,-29.38803482055664
-0.10114704072475433,-0.13056175410747528,9.728443145751953,-0.0008391006169246387,0.024229229457486144,-0.0053846282431257485,3.4000015258789062,2019-08-06 14:28:39:907,171.55474715933465,-171.44280916322984,0,-50.979244232177734,42.882537841796875,-29.38803482055664
0.10240668058395386,-0.300588995218277,9.601521492004395,0.0007591862786478714,0.012774840451000838,-0.000856149009090349,3.410005569458008,2019-08-06 14:28:39:917,164.52869775674776,-171.57851666496788,0,-50.979244232177734,42.882537841796875,-29.38803482055664
-0.07959429919719696,-0.37482622265815735,9.630258560180664,-0.013891776453963873,0.005049787230764674,-0.0021880547120550534,3.420017719268799,2019-08-06 14:28:39:927,164.82581410598283,-171.69455813735033,0,-50.979244232177734,42.882537841796875,-29.38803482055664
-0.07959429919719696,-0.1808515042066574,9.572784423828125,0.00555404690034682,0.03142152042254386,-0.005917390498304197,3.430004835128784,2019-08-06 14:28:39:937,165.1021497533882,-171.84213518950932,0,-50.979244232177734,42.882537841796875,-29.38803482055664
-0.026909802109003067,-0.19761474430561066,9.656600952148438,0.003689378747147923,0.025294753967843045,-0.01124501357023734,3.4400036334991455,2019-08-06 14:28:39:947,165.38271220975065,-171.98391682926786,0,-50.979244232177734,42.882537841796875,-29.38803482055664
-0.11551553755998611,-0.21198324859142303,9.613494873046875,0.0010255674062370958,0.00824636128198402,-0.0032535792224119516,3.4500036239624023,2019-08-06 14:28:39:957,165.6566590160768,-172.11955032439704,0,-50.979244232177734,42.882537841796875,-29.38803482055664
-0.10833129286766052,-0.20240424573421478,9.56320571899414,0.005021284645168371,0.012508459843560263,-0.012576919728332112,3.4600045680999756,2019-08-06 14:28:39:967,165.92352139691366,-172.25572946580687,0,-50.979244232177734,42.882537841796875,-29.38803482055664
-0.12509453296661377,-0.255088746547699,9.63265323638916,0.001824710854023351,0.025028373360402468,-0.0053846282431257485,3.470012664794922,2019-08-06 14:28:39:977,166.17610558674804,-172.38130161056242,0,-50.979244232177734,42.882537841796875,-29.38803482055664
-0.11312079429626465,-0.20958849787712097,9.548836708068848,0.0002264239747054862,0.01996713141605855,-0.006982915528809746,3.4800057411193848,2019-08-06 14:28:39:987,166.42780520630896,-172.5086548339775,0,-52.478633880615234,44.08205032348633,-28.788278579711914
-0.07959429919719696,-0.2071937471628189,9.565600395202637,-0.0013718629371216693,0.015438651726893083,-0.004851865987947299,3.4900035858154297,2019-08-06 14:28:39:997,166.68104737224243,-172.63289461256366,0,-52.478633880615234,44.08205032348633,-28.788278579711914
-0.038883551955223083,-0.22874648869037628,9.618284225463867,-0.0024373874474785677,0.009578266919930143,-0.005118247115536523,3.5000061988830566,2019-08-06 14:28:40:007,166.93741430191605,-172.75162021418095,0,-52.478633880615234,44.08205032348633,-28.788278579711914
-0.09156804531812668,-0.20479899644851685,9.615889549255371,0.0012919485988449018,0.0215654192218912,-0.00831482116675587,3.510004997253418,2019-08-06 14:28:40:017,167.1756467781476,-172.87291115515168,0,-52.478633880615234,44.08205032348633,-28.788278579711914
-0.03648880124092102,-0.17606200277805328,9.596732139587402,-0.004568436468192365,0.02689304177367569,-0.009646726804701992,3.5200116634368896,2019-08-06 14:28:40:027,167.41266637806189,-172.9918653995414,0,-52.478633880615234,44.08205032348633,-28.788278579711914
-0.03169930353760719,-0.2071937471628189,9.611100196838379,-0.002703768575067792,0.016504176237249982,-0.007249296656398971,3.530001401901245,2019-08-06 14:28:40:037,167.65137604558072,-173.1058119448275,0,-52.478633880615234,44.08205032348633,-28.788278579711914
-0.026909802109003067,-0.26945722103118896,9.668574333190918,-0.0061667232337277115,0.013840364961357736,-0.008048440039166644,3.540004253387451,2019-08-06 14:28:40:047,167.88738563176426,-173.20830441344054,0,-52.478633880615234,44.08205032348633,-28.788278579711914
-0.03409405052661896,-0.23114123940467834,9.697311401367188,0.0023574731092018,0.012774840451000838,-0.004052722605179625,3.5500049591064453,2019-08-06 14:28:40:057,168.11843553522414,-173.31815372129014,0,-52.478633880615234,44.08205032348633,-28.788278579711914
-0.03648880124092102,-0.24550974369049072,9.637442588806152,-0.004035674213013915,0.01570503337463096,-0.006716534401220521,3.5600147247314453,2019-08-06 14:28:40:067,168.34290127063485,-173.42033700918634,0,-52.478633880615234,44.08205032348633,-28.788278579711914
-0.0508572980761528,-0.21677273511886597,9.642231941223145,-3.9957173202045016e-05,0.012508459843560263,-0.008048440039166644,3.570006847381592,2019-08-06 14:28:40:077,168.56298129670958,-173.5261501816588,0,-52.478633880615234,44.08205032348633,-28.788278579711914
-0.06522579491138458,-0.2407202422618866,9.639837265014648,0.0012919485988449018,0.011975696548084513,-0.001655292456876604,3.580002784729004,2019-08-06 14:28:40:087,168.7772466030399,-173.62774313855957,0,-52.478633880615234,44.08205032348633,-28.788278579711914
-0.1226997897028923,-0.25029924511909485,9.623074531555176,-0.005101198723370813,0.01570503337463096,-0.004585484860358075,3.5900027751922607,2019-08-06 14:28:40:097,168.97827302688881,-173.72252505032736,0,-52.478633880615234,44.08205032348633,-28.788278579711914
-0.1418577879667282,-0.2143779993057251,9.62067985534668,0.0007591862786478714,0.01357398435391716,0.0012749002066791914,3.6000053882598877,2019-08-06 14:28:40:107,169.174188397139,-173.8229706841993,0,-52.478633880615234,44.08205032348633,-28.788278579711914
-0.1418577879667282,-0.2526939809322357,9.601521492004395,0.001824710854023351,0.01756970178790418,0.0020740435894468653,3.6100172996520996,2019-08-06 14:28:40:117,169.3638984033951,-173.91738568132692,0,-50.67936325073242,44.08205032348633,-27.288888931274414
-0.16101577877998352,-0.20000949501991272,9.651811599731445,-0.0037692930854246903,0.01570503337463096,0.0026068058446253144,3.620004892349243,2019-08-06 14:28:40:127,169.54869812540548,-174.01318132334288,0,-50.67936325073242,44.08205032348633,-27.288888931274414
-0.15862104296684265,-0.22395698726177216,9.606310844421387,-0.0037692930854246903,0.013840364961357736,0.001541281334268416,3.6300015449523926,2019-08-06 14:28:40:137,169.73103558391085,-174.10409145687595,0,-50.67936325073242,44.08205032348633,-27.288888931274414
-0.15862104296684265,-0.24311499297618866,9.596732139587402,0.0010255674062370958,0.012242078195822388,0.0010085190140713856,3.640002727508545,2019-08-06 14:28:40:147,169.91060143397686,-174.1935621618289,0,-50.67936325073242,44.08205032348633,-27.288888931274414
-0.13946303725242615,-0.2143779993057251,9.60391616821289,0.001824710854023351,0.01810246300278533,0.0028731869722145387,3.650003671646118,2019-08-06 14:28:40:157,170.0855847211722,-174.28514078099388,0,-50.67936325073242,44.08205032348633,-27.288888931274414
-0.1418577879667282,-0.19282524287700653,9.615889549255371,-0.0005727194893354142,0.01410674660909561,0.007934428656484131,3.660012722015381,2019-08-06 14:28:40:167,170.25904111966264,-174.37614038808093,0,-50.67936325073242,44.08205032348633,-27.288888931274414
-0.12509453296661377,-0.2598782479763031,9.670969009399414,0.0007591862786478714,0.012774840451000838,0.007934428656484131,3.67000150680542,2019-08-06 14:28:40:177,170.43187362987615,-174.45825775297635,0,-50.67936325073242,44.08205032348633,-27.288888931274414
-0.1418577879667282,-0.2407202422618866,9.589548110961914,-0.0005727194893354142,0.010111029175108591,0.006069760763359559,3.6800026893615723,2019-08-06 14:28:40:187,170.60060791126583,-174.54001183820716,0,-50.67936325073242,44.08205032348633,-27.288888931274414
-0.13467353582382202,-0.22874648869037628,9.623074531555176,-0.004834817595781589,0.01357398435391716,0.010864621580114251,3.6900055408477783,2019-08-06 14:28:40:197,170.76493592991417,-174.61926208361763,0,-50.67936325073242,44.08205032348633,-27.288888931274414
-0.15383154153823853,-0.23593074083328247,9.625469207763672,0.003955759874737148,0.01410674660909561,0.012729288953090175,3.700002908706665,2019-08-06 14:28:40:207,170.92340623549597,-174.7010153940025,0,-50.67936325073242,44.08205032348633,-27.288888931274414
-0.19693702459335327,-0.2335359901189804,9.668574333190918,-0.002703768575067792,0.014639508864274061,0.012729288953090175,3.7100043296813965,2019-08-06 14:28:40:217,171.0733792076268,-174.77780349609824,0,-50.67936325073242,44.08205032348633,-27.288888931274414
-0.19933177530765533,-0.2718519866466522,9.618284225463867,-0.0008391006169246387,0.014639508864274061,0.018856056448088288,3.720013380050659,2019-08-06 14:28:40:227,171.21993927180262,-174.8493962126122,0,-50.67936325073242,44.08205032348633,-27.288888931274414
-0.19693702459335327,-0.24311499297618866,9.654206275939941,0.0004928051185493561,0.013307602706179285,0.012729288953090175,3.730003595352173,2019-08-06 14:28:40:237,171.36470320296579,-174.92383404926434,0,-52.92844772338867,43.33235549926758,-28.33846092224121
-0.23764777183532715,-0.1952199935913086,9.596732139587402,0.001824710854023351,0.016770557884987856,0.017524149249696214,3.7400035858154297,2019-08-06 14:28:40:247,171.49962152806734,-175.00307454935154,0,-52.92844772338867,43.33235549926758,-28.33846092224121
-0.1490420401096344,-0.23832549154758453,9.615889549255371,-0.004035674213013915,0.01810246300278533,0.0113973838352927,3.7500040531158447,2019-08-06 14:28:40:257,171.64170435083346,-175.0723517382909,0,-52.92844772338867,43.33235549926758,-28.33846092224121
-0.18017378449440002,-0.2670624852180481,9.637442588806152,0.0004928051185493561,0.016770557884987856,0.015126719621541844,3.7600045204162598,2019-08-06 14:28:40:267,171.77803256825976,-175.1394351648219,0,-52.92844772338867,43.33235549926758,-28.33846092224121
-0.18975278735160828,-0.20240424573421478,9.658995628356934,0.0031566164919694735,0.01756970178790418,0.012729288953090175,3.7700135707855225,2019-08-06 14:28:40:277,171.91008879258897,-175.21441135504804,0,-52.92844772338867,43.33235549926758,-28.33846092224121
-0.16580528020858765,-0.21916748583316803,9.615889549255371,0.0026238542367910244,0.01570503337463096,0.013794813463447072,3.7800021171569824,2019-08-06 14:28:40:287,172.0433218765622,-175.28548129019288,0,-52.92844772338867,43.33235549926758,-28.33846092224121
-0.1753842830657959,-0.2335359901189804,9.658995628356934,0.0004928051185493561,0.01756970178790418,0.01539310126927972,3.7900032997131348,2019-08-06 14:28:40:297,172.17178410572424,-175.35234776210066,0,-52.92844772338867,43.33235549926758,-28.33846092224121
-0.22327928245067596,-0.22395698726177216,9.625469207763672,-0.005633960978549262,0.013840364961357736,0.011131002187554825,3.800004720687866,2019-08-06 14:28:40:307,172.29399926008693,-175.41547954529292,0,-52.92844772338867,43.33235549926758,-28.33846092224121
-0.1873580366373062,-0.22874648869037628,9.630258560180664,-0.0013718629371216693,0.015438651726893083,0.010331859324935803,3.8100123405456543,2019-08-06 14:28:40:317,172.41715275039166,-175.47918537655408,0,-52.92844772338867,43.33235549926758,-28.33846092224121
-0.1825685352087021,-0.22874648869037628,9.651811599731445,0.0004928051185493561,0.009844647527370716,0.007934428656484131,3.820002555847168,2019-08-06 14:28:40:327,172.5416144026268,-175.54272516290928,0,-52.92844772338867,43.33235549926758,-28.33846092224121
-0.18017378449440002,-0.22635173797607422,9.625469207763672,0.0031566164919694735,0.013041222098738713,0.0071352852737164565,3.8300042152404785,2019-08-06 14:28:40:337,172.66201102145766,-175.60670109898135,0,-52.92844772338867,43.33235549926758,-28.33846092224121
-0.19693702459335327,-0.1616934984922409,9.682943344116211,-0.003502911957835466,0.016770557884987856,0.0031395680998037635,3.840005397796631,2019-08-06 14:28:40:347,172.77604999362282,-175.67346633142776,0,-52.92844772338867,43.33235549926758,-28.33846092224121
-0.1825685352087021,-0.255088746547699,9.599126815795898,-0.0003063383292368989,0.016237795629809405,0.001541281334268416,3.8500046730041504,2019-08-06 14:28:40:357,172.88962028581182,-175.72938042787996,0,-52.92844772338867,43.33235549926758,-28.33846092224121
-0.19933177530765533,-0.23593074083328247,9.584757804870605,0.0007591862786478714,0.011975696548084513,-0.0027208169672335025,3.8600151538848877,2019-08-06 14:28:40:367,173.00126861422976,-175.78701830033975,0,-52.478633880615234,43.78217315673828,-28.188522338867188
-0.1825685352087021,-0.2598782479763031,9.637442588806152,0.0002264239747054862,0.017303320140166306,-0.009913107412142566,3.8700034618377686,2019-08-06 14:28:40:377,173.10983355996765,-175.84051224686078,0,-52.478633880615234,43.78217315673828,-28.188522338867188
-0.09396279603242874,-0.2526939809322357,9.565600395202637,-0.0003063383292368989,0.01756970178790418,-0.014441587101308034,3.8800032138824463,2019-08-06 14:28:40:387,173.2265158144987,-175.89326544233435,0,-52.478633880615234,43.78217315673828,-28.188522338867188
-0.13467353582382202,-0.27664148807525635,9.647021293640137,-0.0019046251923001184,0.014905889471714633,-0.018437303494997753,3.8900034427642822,2019-08-06 14:28:40:397,173.33761959455686,-175.94147897574052,0,-52.478633880615234,43.78217315673828,-28.188522338867188
0.011406192556023598,-0.22635173797607422,9.637442588806152,-0.003502911957835466,0.011442934292906064,-0.027760643480769263,3.9000067710876465,2019-08-06 14:28:40:407,166.2657960957914,-175.99377303092933,0,-52.478633880615234,43.78217315673828,-28.188522338867188
0.0018271940061822534,-0.20958849787712097,9.656600952148438,-0.0019046251923001184,0.012242078195822388,-0.026961501658447542,3.9100100994110107,2019-08-06 14:28:40:417,159.3338208025873,-176.04796052867204,0,-52.478633880615234,43.78217315673828,-28.188522338867188
0.1000119298696518,-0.1880357414484024,9.623074531555176,0.0034229976195586987,0.009045504664751694,-0.028559787383685586,3.9200026988983154,2019-08-06 14:28:40:427,152.55397809727148,-176.10653345969465,0,-52.478633880615234,43.78217315673828,-28.188522338867188
-0.005357054993510246,-0.14493025839328766,9.575179100036621,0.0026238542367910244,0.011709315940643939,-0.026428738362971792,3.930004119873047,2019-08-06 14:28:40:437,153.0956817272377,-176.16853299483583,0,-52.478633880615234,43.78217315673828,-28.188522338867188
-0.0771995484828949,-0.2335359901189804,9.647021293640137,-0.0037692930854246903,0.017303320140166306,-0.021900259714103625,3.9400014877319336,2019-08-06 14:28:40:447,153.61488495337358,-176.21531142474745,0,-52.478633880615234,43.78217315673828,-28.188522338867188
-0.05804154649376869,-0.27664148807525635,9.62067985534668,-0.005900342106138487,0.009578266919930143,-0.022965784224460523,3.950016498565674,2019-08-06 14:28:40:457,154.13028777427428,-176.2547456017301,0,-52.478633880615234,43.78217315673828,-28.188522338867188
-0.10593654215335846,-0.19282524287700653,9.66139030456543,0.0007591862786478714,0.011975696548084513,-0.022965784224460523,3.9600038528442383,2019-08-06 14:28:40:467,154.62840179542323,-176.30720890398823,0,-52.478633880615234,43.78217315673828,-28.188522338867188
-0.09156804531812668,-0.25748348236083984,9.60391616821289,-0.0011054818095324445,0.01410674660909561,-0.017371780024938156,3.9700045585632324,2019-08-06 14:28:40:477,155.11698693922062,-176.34972901929459,0,-52.478633880615234,43.78217315673828,-28.188522338867188
-0.07001529633998871,-0.2862204909324646,9.649415969848633,-0.004035674213013915,0.016504176237249982,-0.013109681983510561,3.9800026416778564,2019-08-06 14:28:40:487,155.59706738955313,-176.3864887203814,0,-51.129180908203125,44.231990814208984,-28.038583755493164
-0.0029623054433614016,-0.23593074083328247,9.656600952148438,-0.0003063383292368989,0.012242078195822388,-0.011511395217975215,3.9900033473968506,2019-08-06 14:28:40:497,156.07790011983127,-176.43059540523834,0,-51.129180908203125,44.231990814208984,-28.038583755493164
-0.02212030254304409,-0.26227298378944397,9.544047355651855,0.004754903517579147,0.012774840451000838,-0.013109681983510561,4.000010251998901,2019-08-06 14:28:40:507,156.54650821770508,-176.47317306748877,0,-51.129180908203125,44.231990814208984,-28.038583755493164
-0.010146554559469223,-0.2862204909324646,9.596732139587402,-0.0008391006169246387,0.015172271119452508,-0.01071225131505889,4.010004043579102,2019-08-06 14:28:40:517,157.00585256514233,-176.50907218470675,0,-51.129180908203125,44.231990814208984,-28.038583755493164
-0.0005675556603819132,-0.2718519866466522,9.651811599731445,-0.004035674213013915,0.016237795629809405,-0.01017948905988044,4.020003080368042,2019-08-06 14:28:40:527,157.4565515086009,-176.5443577175699,0,-51.129180908203125,44.231990814208984,-28.038583755493164
-0.10114704072475433,-0.2407202422618866,9.630258560180664,0.005021284645168371,0.01863522629826108,-0.012843300335772686,4.03000807762146,2019-08-06 14:28:40:537,157.8849164345896,-176.5876538003538,0,-51.129180908203125,44.231990814208984,-28.038583755493164
-0.053252048790454865,-0.19043049216270447,9.59194278717041,-0.0024373874474785677,0.012774840451000838,-0.007515677783988195,4.040005445480347,2019-08-06 14:28:40:547,158.31368516923845,-176.63178542353089,0,-51.129180908203125,44.231990814208984,-28.038583755493164
-0.03648880124092102,-0.20958849787712097,9.594337463378906,-0.0005727194893354142,0.016237795629809405,-0.009646726804701992,4.050012826919556,2019-08-06 14:28:40:557,158.7339291562592,-176.67379932774105,0,-51.129180908203125,44.231990814208984,-28.038583755493164
-0.0963575467467308,-0.26945722103118896,9.64462661743164,0.005021284645168371,0.01863522629826108,-0.0032535792224119516,4.059996604919434,2019-08-06 14:28:40:567,159.13735565915928,-176.71113127789272,0,-51.129180908203125,44.231990814208984,-28.038583755493164
-0.11791028827428818,-0.2215622365474701,9.675758361816406,-0.0005727194893354142,0.01410674660909561,-0.00831482116675587,4.070005178451538,2019-08-06 14:28:40:577,159.5327172224478,-176.75035140904828,0,-51.129180908203125,44.231990814208984,-28.038583755493164
-0.15143679082393646,-0.22635173797607422,9.668574333190918,0.0004928051185493561,0.012774840451000838,-0.004851865987947299,4.08000373840332,2019-08-06 14:28:40:587,159.9169440946031,-176.78879883184143,0,-51.129180908203125,44.231990814208984,-28.038583755493164
-0.14425253868103027,-0.17845675349235535,9.642231941223145,0.0026238542367910244,0.014373127216536186,-0.003786341477590401,4.090017557144165,2019-08-06 14:28:40:597,160.29338138615984,-176.8332921961168,0,-51.129180908203125,44.231990814208984,-28.038583755493164
-0.14425253868103027,-0.23593074083328247,9.67336368560791,-0.003236530830246241,0.013840364961357736,-0.001655292456876604,4.1000049114227295,2019-08-06 14:28:40:607,160.66266521741943,-176.86686830918484,0,-51.129180908203125,44.231990814208984,-28.038583755493164
-0.09396279603242874,-0.19282524287700653,9.630258560180664,0.004222141002326372,0.016770557884987856,0.006069760763359559,4.110000848770142,2019-08-06 14:28:40:617,161.02881870643756,-176.90895927342106,0,-51.129180908203125,45.131622314453125,-28.038583755493164
-0.09875229001045227,-0.19282524287700653,9.666179656982422,0.002890235364380249,0.01410674660909561,0.00020937558253977584,4.120002746582031,2019-08-06 14:28:40:627,161.38861333557566,-176.94954705774856,0,-51.129180908203125,45.131622314453125,-28.038583755493164
-0.06283104419708252,-0.17366725206375122,9.584757804870605,0.0002264239747054862,0.016237795629809405,0.0012749002066791914,4.1300036907196045,2019-08-06 14:28:40:637,161.7442109852976,-176.9899225699057,0,-51.129180908203125,45.131622314453125,-28.038583755493164
-0.12030503898859024,-0.13295650482177734,9.608705520629883,-3.9957173202045016e-05,0.010111029175108591,0.008200809784073356,4.140018463134766,2019-08-06 14:28:40:647,162.08929445362025,-177.03424652633643,0,-51.129180908203125,45.131622314453125,-28.038583755493164
-0.15862104296684265,-0.25029924511909485,9.647021293640137,0.0004928051185493561,0.015438651726893083,0.003405949227392988,4.150005102157593,2019-08-06 14:28:40:657,162.42001135800027,-177.064112959952,0,-51.129180908203125,45.131622314453125,-28.038583755493164
-0.07959429919719696,-0.25029924511909485,9.637442588806152,-0.0013718629371216693,0.018901606905701654,0.0124629083456496,4.1600022315979,2019-08-06 14:28:40:667,162.75153720840726,-177.0923061166107,0,-51.129180908203125,45.131622314453125,-28.038583755493164
-0.04367304965853691,-0.12577225267887115,9.704495429992676,0.0007591862786478714,0.016770557884987856,0.010331859324935803,4.170015573501587,2019-08-06 14:28:40:677,163.08192033685273,-177.13603637525173,0,-51.129180908203125,45.131622314453125,-28.038583755493164
-0.07959429919719696,-0.12337750196456909,9.544047355651855,0.0004928051185493561,0.015172271119452508,0.013528432856006497,4.180004835128784,2019-08-06 14:28:40:687,163.40221552118643,-177.17877944193617,0,-51.129180908203125,45.131622314453125,-28.038583755493164
-0.11072604358196259,-0.2335359901189804,9.651811599731445,-0.0013718629371216693,0.015971413982071532,0.010065477677197928,4.1900153160095215,2019-08-06 14:28:40:697,163.7120484626546,-177.2067114920883,0,-51.129180908203125,45.131622314453125,-28.038583755493164
-0.0771995484828949,-0.21677273511886597,9.625469207763672,-0.005633960978549262,0.019167987513142228,0.004471473997824211,4.200006484985352,2019-08-06 14:28:40:707,164.01786376204115,-177.23361408358824,0,-51.129180908203125,45.131622314453125,-28.038583755493164
-0.1298840343952179,-0.21916748583316803,9.630258560180664,0.0012919485988449018,0.018901606905701654,0.010864621580114251,4.210004568099976,2019-08-06 14:28:40:717,164.31144118038733,-177.263592598955,0,-51.129180908203125,45.131622314453125,-28.038583755493164
-0.1562262922525406,-0.22635173797607422,9.663784980773926,0.0002264239747054862,0.01064379143028704,0.010864621580114251,4.220004081726074,2019-08-06 14:28:40:727,164.6007127320636,-177.29161237078486,0,-51.129180908203125,45.131622314453125,-28.038583755493164
-0.1298840343952179,-0.2526939809322357,9.649415969848633,-0.003236530830246241,0.01410674660909561,0.009799097069757354,4.230007648468018,2019-08-06 14:28:40:737,164.88535129694327,-177.31396037185746,0,-51.42905807495117,45.131622314453125,-27.13895034790039
-0.15862104296684265,-0.20479899644851685,9.575179100036621,0.0015583297264341264,0.0194343681205828,0.010864621580114251,4.240015029907227,2019-08-06 14:28:40:747,165.1577425078237,-177.3440510978266,0,-51.42905807495117,45.131622314453125,-27.13895034790039
-0.11551553755998611,-0.22395698726177216,9.647021293640137,-0.0011054818095324445,0.017036938492428433,0.00846719091166258,4.2499916553497314,2019-08-06 14:28:40:757,165.43132301297342,-177.3699529825153,0,-51.42905807495117,45.131622314453125,-27.13895034790039
-0.16341052949428558,-0.21916748583316803,9.649415969848633,0.0002264239747054862,0.010910172037727614,0.007934428656484131,4.260003328323364,2019-08-06 14:28:40:767,165.69715940600076,-177.39665846575974,0,-51.42905807495117,45.131622314453125,-27.13895034790039
-0.15143679082393646,-0.2143779993057251,9.694916725158691,0.0002264239747054862,0.015438651726893083,0.006602523018538008,4.27000617980957,2019-08-06 14:28:40:777,165.9566469590532,-177.42351763973969,0,-51.42905807495117,45.131622314453125,-27.13895034790039
-0.1562262922525406,-0.2526939809322357,9.596732139587402,0.0012919485988449018,0.013307602706179285,0.009266334814578904,4.280015230178833,2019-08-06 14:28:40:787,166.21138221403646,-177.44560694818273,0,-51.42905807495117,45.131622314453125,-27.13895034790039
-0.1226997897028923,-0.21916748583316803,9.656600952148438,-0.003236530830246241,0.017836082395344753,0.005004236253002661,4.290005922317505,2019-08-06 14:28:40:797,166.46258937741507,-177.46887580636286,0,-51.42905807495117,45.131622314453125,-27.13895034790039
-0.12509453296661377,-0.21916748583316803,9.699706077575684,0.0002264239747054862,0.017036938492428433,0.010598239932376376,4.300003528594971,2019-08-06 14:28:40:807,166.70899591224054,-177.4937375284932,0,-51.42905807495117,45.131622314453125,-27.13895034790039
-0.07959429919719696,-0.25029924511909485,9.67336368560791,-0.0003063383292368989,0.01810246300278533,0.00553699850818111,4.310004949569702,2019-08-06 14:28:40:817,166.95522143993549,-177.5140466799265,0,-51.42905807495117,45.131622314453125,-27.13895034790039
-0.16101577877998352,-0.2335359901189804,9.663784980773926,-0.0005727194893354142,0.01810246300278533,0.004737855125413436,4.320005178451538,2019-08-06 14:28:40:827,167.18686105276967,-177.5357572363796,0,-51.42905807495117,45.131622314453125,-27.13895034790039
-0.15143679082393646,-0.22635173797607422,9.647021293640137,-0.0013718629371216693,0.017303320140166306,0.005270617380591885,4.330016851425171,2019-08-06 14:28:40:837,167.41540984951308,-177.5573887714202,0,-51.42905807495117,45.131622314453125,-27.13895034790039
-0.12030503898859024,-0.24311499297618866,9.670969009399414,-0.002171006319889343,0.017303320140166306,0.007934428656484131,4.340121507644653,2019-08-06 14:28:40:847,167.64302994043805,-177.576208529311,0,-51.42905807495117,45.131622314453125,-27.13895034790039
-0.13706828653812408,-0.22635173797607422,9.682943344116211,0.0007591862786478714,0.009045504664751694,0.010065477677197928,4.349998235702515,2019-08-06 14:28:40:857,167.86893282501896,-177.59832295569043,0,-51.42905807495117,45.131622314453125,-27.13895034790039
-0.1682000309228897,-0.24790449440479279,9.637442588806152,-0.0008391006169246387,0.01064379143028704,0.0026068058446253144,4.360001564025879,2019-08-06 14:28:40:867,168.08557833845651,-177.61641523145312,0,-51.129180908203125,43.632232666015625,-28.33846092224121
-0.12509453296661377,-0.26227298378944397,9.615889549255371,-0.0013718629371216693,0.017836082395344753,0.005004236253002661,4.3700032234191895,2019-08-06 14:28:40:877,168.2989436288739,-177.63206944714287,0,-51.129180908203125,43.632232666015625,-28.33846092224121
-0.12509453296661377,-0.2598782479763031,9.594337463378906,0.0020910919816125757,0.015172271119452508,0.011131002187554825,4.380014181137085,2019-08-06 14:28:40:887,168.50949618536407,-177.64957208861097,0,-51.129180908203125,43.632232666015625,-28.33846092224121
-0.12509453296661377,-0.24790449440479279,9.680547714233398,-0.002703768575067792,0.017303320140166306,0.004737855125413436,4.390004396438599,2019-08-06 14:28:40:897,168.7147929850504,-177.66572518056213,0,-51.129180908203125,43.632232666015625,-28.33846092224121
-0.12509453296661377,-0.20479899644851685,9.627863883972168,-0.0011054818095324445,0.012508459843560263,0.006602523018538008,4.4000022411346436,2019-08-06 14:28:40:907,168.91858714842573,-177.68741842925894,0,-51.129180908203125,43.632232666015625,-28.33846092224121
-0.1226997897028923,-0.23832549154758453,9.56320571899414,0.0004928051185493561,0.0226309437322481,0.011131002187554825,4.4100022315979,2019-08-06 14:28:40:917,169.11280642057213,-177.70539521628643,0,-51.129180908203125,43.632232666015625,-28.33846092224121
-0.13227878510951996,-0.25748348236083984,9.62067985534668,-0.003502911957835466,0.015971413982071532,0.005270617380591885,4.420028448104858,2019-08-06 14:28:40:927,169.30580417013937,-177.71865383301727,0,-51.129180908203125,43.632232666015625,-28.33846092224121
-0.1226997897028923,-0.21198324859142303,9.656600952148438,-0.0011054818095324445,0.01810246300278533,0.0026068058446253144,4.430005311965942,2019-08-06 14:28:40:937,169.4949875170315,-177.7385101832229,0,-51.129180908203125,43.632232666015625,-28.33846092224121
-0.15383154153823853,-0.2071937471628189,9.692522048950195,0.0020910919816125757,0.014905889471714633,0.006868904146127233,4.440004110336304,2019-08-06 14:28:40:947,169.67853365606692,-177.7604218661522,0,-51.129180908203125,43.632232666015625,-28.33846092224121
-0.15143679082393646,-0.23114123940467834,9.666179656982422,0.0034229976195586987,0.017303320140166306,0.0071352852737164565,4.4500041007995605,2019-08-06 14:28:40:957,169.8572959953174,-177.77973910184417,0,-51.129180908203125,43.632232666015625,-28.33846092224121
-0.11312079429626465,-0.18564099073410034,9.60391616821289,-0.002970149702657017,0.00824636128198402,0.005803379635770335,4.46000337600708,2019-08-06 14:28:40:967,170.042023420332,-177.800329238618,0,-51.129180908203125,43.632232666015625,-28.33846092224121
-0.13946303725242615,-0.22874648869037628,9.666179656982422,0.001824710854023351,0.014373127216536186,0.0028731869722145387,4.470011949539185,2019-08-06 14:28:40:977,170.21657348968964,-177.8182355059233,0,-51.129180908203125,43.632232666015625,-28.33846092224121
-0.15862104296684265,-0.20240424573421478,9.625469207763672,-0.0037692930854246903,0.014639508864274061,0.0010085190140713856,4.480004072189331,2019-08-06 14:28:40:987,170.38514624742953,-177.8356632620776,0,-50.979244232177734,44.381927490234375,-27.58876609802246
-0.13946303725242615,-0.20240424573421478,9.623074531555176,-0.0016382440647108938,0.016504176237249982,0.0026068058446253144,4.490002632141113,2019-08-06 14:28:40:997,170.5515714903724,-177.8539315158478,0,-50.979244232177734,44.381927490234375,-27.58876609802246
-0.17777903378009796,-0.20240424573421478,9.637442588806152,-0.0011054818095324445,0.013307602706179285,0.0012749002066791914,4.50000524520874,2019-08-06 14:28:41:007,170.7119299407035,-177.87216917238837,0,-50.979244232177734,44.381927490234375,-27.58876609802246
-0.13946303725242615,-0.20000949501991272,9.599126815795898,-0.0016382440647108938,0.01410674660909561,0.0023404247170360896,4.510002136230469,2019-08-06 14:28:41:017,170.8731253686076,-177.889933110952,0,-50.979244232177734,44.381927490234375,-27.58876609802246
