ACCELEROMETER X (m/s²),ACCELEROMETER Y (m/s²),ACCELEROMETER Z (m/s²),GYROSCOPE X (rad/s),GYROSCOPE Y (rad/s),GYROSCOPE Z (rad/s),Time since start in ms ,YYYY-MO-DD HH-MI-SS_SSS,Pitch (Deg),Roll (Deg),Heading (Deg),MagX,MagY,MagZ
0.14790692925453186,0.07299196720123291,9.575179100036621,-0.004834817595781589,0.01570503337463096,-0.0013889113292873795,0.0,2019-08-06 14:15:18:503,-3.58230055272191,3.591264809547243,0,-34.78583526611328,34.18608093261719,-29.687911987304688
0.17664392292499542,0.022702226415276527,9.560811042785645,0.0010255674062370958,0.01863522629826108,0.003672330354982212,0.009989738464355469,2019-08-06 14:15:18:513,-7.0999381250503175,7.116143268453774,0,-34.78583526611328,34.18608093261719,-29.687911987304688
0.1981966644525528,0.029886476695537567,9.615889549255371,0.0020910919816125757,0.01996713141605855,0.0007421378864821609,0.01997208595275879,2019-08-06 14:15:18:523,-10.54551554127039,10.569086801462737,0,-34.78583526611328,34.18608093261719,-29.687911987304688
0.17903867363929749,0.02509697712957859,9.599126815795898,-0.0016382440647108938,0.015971413982071532,-0.0027208169672335025,0.029990434646606445,2019-08-06 14:15:18:533,-13.92221897908769,13.955630628436,0,-34.78583526611328,34.18608093261719,-29.687911987304688
0.152696430683136,0.07299196720123291,9.599126815795898,-0.0013718629371216693,0.01756970178790418,-0.005651009370714973,0.0399785041809082,2019-08-06 14:15:18:543,-17.235401278805778,17.268573997127135,0,-34.78583526611328,34.18608093261719,-29.687911987304688
0.1455121785402298,0.022702226415276527,9.572784423828125,0.0010255674062370958,0.015438651726893083,0.0007421378864821609,0.04999852180480957,2019-08-06 14:15:18:553,-20.481962111511564,20.519907931959583,0,-34.78583526611328,34.18608093261719,-29.687911987304688
0.2173546701669693,0.05862347409129143,9.587152481079102,0.0012919485988449018,0.01570503337463096,-0.0003233867214026093,0.059987783432006836,2019-08-06 14:15:18:563,-23.655156633776407,23.701778173096866,0,-34.78583526611328,34.18608093261719,-29.687911987304688
0.14311742782592773,0.03707072511315346,9.496152877807617,-0.0016382440647108938,0.014373127216536186,0.003405949227392988,0.07002425193786621,2019-08-06 14:15:18:573,-26.772884528338135,26.82419247654376,0,-34.78583526611328,34.18608093261719,-29.687911987304688
0.20777566730976105,0.03946547582745552,9.584757804870605,-0.002703768575067792,0.020233512023499125,-5.7005565367755386e-05,0.07998085021972656,2019-08-06 14:15:18:583,-29.823901674275042,29.884501891361428,0,-34.78583526611328,34.18608093261719,-29.687911987304688
0.13114367425441742,0.03228122740983963,9.56320571899414,-0.0005727194893354142,0.0215654192218912,0.00020937558253977584,0.0899970531463623,2019-08-06 14:15:18:593,-32.82383884733757,32.88326585734914,0,-34.336021423339844,35.53553009033203,-29.83785057067871
0.14790692925453186,0.022702226415276527,9.544047355651855,0.0007591862786478714,0.012774840451000838,0.003938711482571438,0.0999908447265625,2019-08-06 14:15:18:603,-35.75677350067786,35.82244876241659,0,-34.336021423339844,35.53553009033203,-29.83785057067871
0.17664392292499542,0.03946547582745552,9.55362606048584,-0.002970149702657017,0.01756970178790418,0.0018076624618576407,0.10999393463134766,2019-08-06 14:15:18:613,-38.63032119193885,38.70293435350294,0,-34.336021423339844,35.53553009033203,-29.83785057067871
0.20538091659545898,0.03228122740983963,9.594337463378906,0.0012919485988449018,0.014905889471714633,-0.0021880547120550534,0.12000703811645508,2019-08-06 14:15:18:623,-41.44156910768276,41.52429374116171,0,-34.336021423339844,35.53553009033203,-29.83785057067871
0.1646701693534851,0.02509697712957859,9.589548110961914,-0.0037692930854246903,0.016237795629809405,0.00020937558253977584,0.130218505859375,2019-08-06 14:15:18:633,-44.20237248796738,44.292970086178904,0,-34.336021423339844,35.53553009033203,-29.83785057067871
0.18143342435359955,0.020307477563619614,9.570389747619629,-0.0003063383292368989,0.013041222098738713,0.004471473997824211,0.1399986743927002,2019-08-06 14:15:18:643,-46.90376526885791,47.00484738899026,0,-34.336021423339844,35.53553009033203,-29.83785057067871
0.17664392292499542,0.005938979331403971,9.579968452453613,-0.004834817595781589,0.017836082395344753,-0.00431910373276885,0.14996862411499023,2019-08-06 14:15:18:653,-49.55454779428523,49.666746631158986,0,-34.336021423339844,35.53553009033203,-29.83785057067871
0.15748591721057892,0.03707072511315346,9.615889549255371,0.0012919485988449018,0.016237795629809405,0.0023404247170360896,0.1601724624633789,2019-08-06 14:15:18:663,-52.153994432369814,52.26825382616281,0,-34.336021423339844,35.53553009033203,-29.83785057067871
0.19340716302394867,0.06101822108030319,9.656600952148438,-0.0013718629371216693,0.01410674660909561,-0.000856149009090349,0.1701357364654541,2019-08-06 14:15:18:673,-54.69585847830284,54.816415493949535,0,-34.336021423339844,35.53553009033203,-29.83785057067871
0.12156467884778976,0.034675974398851395,9.599126815795898,-0.004302055340603139,0.020766275318974875,-0.001655292456876604,0.18012523651123047,2019-08-06 14:15:18:683,-57.199078041992664,57.318360747863416,0,-34.336021423339844,35.53553009033203,-29.83785057067871
0.19580191373825073,0.06101822108030319,9.572784423828125,-0.004568436468192365,0.016770557884987856,0.00020937558253977584,0.18997597694396973,2019-08-06 14:15:18:693,-59.64093726279782,59.76721629428618,0,-34.336021423339844,35.53553009033203,-29.83785057067871
0.18143342435359955,0.029886476695537567,9.551231384277344,0.0010255674062370958,0.01756970178790418,-0.001122530201698155,0.199998140335083,2019-08-06 14:15:18:703,-62.036240763273256,62.167709198401674,0,-34.336021423339844,35.53553009033203,-29.83785057067871
0.19340716302394867,0.029886476695537567,9.594337463378906,-0.002171006319889343,0.009844647527370716,-0.0027208169672335025,0.20998859405517578,2019-08-06 14:15:18:713,-64.37794165053269,64.52200333850729,0,-35.68547058105469,34.78583526611328,-27.288888931274414
0.1718544214963913,0.01072847843170166,9.522494316101074,-3.9957173202045016e-05,0.0194343681205828,-0.0027208169672335025,0.22000432014465332,2019-08-06 14:15:18:723,-66.6806340191521,66.83029470245309,0,-35.68547058105469,34.78583526611328,-27.288888931274414
0.20777566730976105,0.013123228214681149,9.579968452453613,-0.0005727194893354142,0.016770557884987856,-0.0003233867214026093,0.23002147674560547,2019-08-06 14:15:18:733,-68.9316047831367,69.09244119688263,0,-35.68547058105469,34.78583526611328,-27.288888931274414
0.1838281750679016,0.041860222816467285,9.62067985534668,-0.002703768575067792,0.01863522629826108,0.003405949227392988,0.24000120162963867,2019-08-06 14:15:18:743,-71.14152208524308,71.30712153316178,0,-35.68547058105469,34.78583526611328,-27.288888931274414
0.19580191373825073,0.022702226415276527,9.55362606048584,-0.002970149702657017,0.014905889471714633,0.0018076624618576407,0.25000524520874023,2019-08-06 14:15:18:753,-73.30358237032002,73.47992448440509,0,-35.68547058105469,34.78583526611328,-27.288888931274414
0.16706492006778717,0.04425497353076935,9.594337463378906,-0.004302055340603139,0.017036938492428433,-0.002987198094822727,0.26000523567199707,2019-08-06 14:15:18:763,-75.42712527239664,75.60745596203613,0,-35.68547058105469,34.78583526611328,-27.288888931274414
0.1646701693534851,0.06341297179460526,9.539258003234863,-0.0005727194893354142,0.021299036533856022,-0.000856149009090349,0.2700190544128418,2019-08-06 14:15:18:773,-77.51077942276395,77.68801141611091,0,-35.68547058105469,34.78583526611328,-27.288888931274414
0.19340716302394867,0.0035442295484244823,9.606310844421387,-0.005633960978549262,0.013307602706179285,0.001541281334268416,0.2800111770629883,2019-08-06 14:15:18:783,-79.54496215251267,79.73698937395164,0,-35.68547058105469,34.78583526611328,-27.288888931274414
0.20777566730976105,0.03946547582745552,9.567995071411133,-3.9957173202045016e-05,0.015172271119452508,-0.001122530201698155,0.2899961471557617,2019-08-06 14:15:18:793,-81.53768887123202,81.73754541351911,0,-35.68547058105469,34.78583526611328,-27.288888931274414
0.1838281750679016,0.022702226415276527,9.522494316101074,0.0023574731092018,0.017303320140166306,0.00047575672638364575,0.3000063896179199,2019-08-06 14:15:18:803,-83.49454211332252,83.69873750170298,0,-35.68547058105469,34.78583526611328,-27.288888931274414
0.18143342435359955,0.01072847843170166,9.522494316101074,0.0010255674062370958,0.0183688436102259,0.00020937558253977584,0.31000518798828125,2019-08-06 14:15:18:813,-85.41313346277941,85.62289592569697,0,-35.68547058105469,34.78583526611328,-27.288888931274414
0.18143342435359955,-0.02519276738166809,9.615889549255371,0.0004928051185493561,0.014373127216536186,0.004471473997824211,0.32021236419677734,2019-08-06 14:15:18:823,-87.29148981836701,80.31315775412551,0,-35.68547058105469,34.78583526611328,-27.288888931274414
0.16227541863918304,0.04425497353076935,9.589548110961914,-0.0024373874474785677,0.011709315940643939,0.0020740435894468653,0.32999706268310547,2019-08-06 14:15:18:833,-89.13270376858345,82.30294545444859,0,-35.68547058105469,34.78583526611328,-27.288888931274414
0.12874892354011536,0.008333728648722172,9.55362606048584,-0.0016382440647108938,0.013840364961357736,0.004205092610160662,0.34000444412231445,2019-08-06 14:15:18:843,-90.94238484114484,84.25680750218375,0,-34.18608093261719,35.38559341430664,-29.38803482055664
0.15988066792488098,0.06341297179460526,9.589548110961914,-0.003502911957835466,0.01810246300278533,0.0010085190140713856,0.3500080108642578,2019-08-06 14:15:18:853,-92.71460189853295,86.16606142844194,0,-34.18608093261719,35.38559341430664,-29.38803482055664
0.2101704180240631,0.01072847843170166,9.584757804870605,-0.0003063383292368989,0.021299036533856022,0.004737855125413436,0.36000728607177734,2019-08-06 14:15:18:863,-94.4471452590484,88.04162954220907,0,-34.18608093261719,35.38559341430664,-29.38803482055664
0.17424917221069336,0.07299196720123291,9.611100196838379,-3.9957173202045016e-05,0.017036938492428433,0.004737855125413436,0.3700237274169922,2019-08-06 14:15:18:873,-96.14701113483413,89.87211687986022,0,-34.18608093261719,35.38559341430664,-29.38803482055664
0.1455121785402298,0.02509697712957859,9.618284225463867,0.005287665772757595,0.017303320140166306,0.0026068058446253144,0.38004088401794434,2019-08-06 14:15:18:883,-97.81646847609599,91.66871040195657,0,-34.18608093261719,35.38559341430664,-29.38803482055664
0.15030167996883392,-0.015613768249750137,9.64462661743164,-0.0005727194893354142,0.017303320140166306,0.00047575672638364575,0.3900015354156494,2019-08-06 14:15:18:893,-99.4519601854342,86.23751164065135,0,-34.18608093261719,35.38559341430664,-29.38803482055664
0.15748591721057892,0.05143922194838524,9.663784980773926,-0.005367579850960038,0.016237795629809405,0.0020740435894468653,0.3999819755554199,2019-08-06 14:15:18:903,-101.05334788228413,88.10966988150385,0,-34.18608093261719,35.38559341430664,-29.38803482055664
0.16227541863918304,0.03707072511315346,9.58236312866211,-0.0019046251923001184,0.017303320140166306,0.0023404247170360896,0.40998315811157227,2019-08-06 14:15:18:913,-102.6225938659028,89.9441129406086,0,-34.18608093261719,35.38559341430664,-29.38803482055664
0.15988066792488098,0.056228723376989365,9.567995071411133,-0.0013718629371216693,0.014905889471714633,0.005004236253002661,0.41997718811035156,2019-08-06 14:15:18:923,-104.15936022439556,91.73926633817975,0,-34.18608093261719,35.38559341430664,-29.38803482055664
0.20059141516685486,0.06580772250890732,9.60391616821289,-0.003502911957835466,0.01570503337463096,0.00020937558253977584,0.4299921989440918,2019-08-06 14:15:18:933,-105.66107401838235,93.498598951909,0,-34.18608093261719,35.38559341430664,-29.38803482055664
0.14311742782592773,0.08736047148704529,9.587152481079102,0.0002264239747054862,0.017836082395344753,-0.000856149009090349,0.44016194343566895,2019-08-06 14:15:18:943,-107.14093246494696,95.21805610471259,0,-34.18608093261719,35.38559341430664,-29.38803482055664
0.15030167996883392,0.02509697712957859,9.565600395202637,-0.0016382440647108938,0.01863522629826108,0.0031395680998037635,0.45012784004211426,2019-08-06 14:15:18:953,-108.59053780649688,96.91160522009696,0,-34.18608093261719,35.38559341430664,-29.38803482055664
0.1191699281334877,0.049044474959373474,9.599126815795898,0.0002264239747054862,0.017036938492428433,0.00020937558253977584,0.4599790573120117,2019-08-06 14:15:18:963,-110.01392551383125,98.56739313596371,0,-35.68547058105469,34.18608093261719,-29.687911987304688
0.13114367425441742,0.034675974398851395,9.539258003234863,-0.004568436468192365,0.018901606905701654,-0.00431910373276885,0.4699740409851074,2019-08-06 14:15:18:973,-111.40850209665165,100.19444367982351,0,-35.68547058105469,34.18608093261719,-29.687911987304688
0.1838281750679016,0.027491725981235504,9.565600395202637,-0.002703768575067792,0.017836082395344753,0.0010085190140713856,0.4799685478210449,2019-08-06 14:15:18:983,-112.76832241721509,101.78877875949804,0,-35.68547058105469,34.18608093261719,-29.687911987304688
0.1838281750679016,0.01791272684931755,9.584757804870605,-3.9957173202045016e-05,0.01570503337463096,-0.003519960350001176,0.4899780750274658,2019-08-06 14:15:18:993,-114.0998076525727,103.35088406956895,0,-35.68547058105469,34.18608093261719,-29.687911987304688
0.1838281750679016,0.020307477563619614,9.56320571899414,-3.9957173202045016e-05,0.01357398435391716,0.00047575672638364575,0.5000343322753906,2019-08-06 14:15:19:003,-115.40345156680533,104.88145560097122,0,-35.68547058105469,34.18608093261719,-29.687911987304688
0.20538091659545898,0.029886476695537567,9.491362571716309,-0.002703768575067792,0.016237795629809405,0.0023404247170360896,0.5100014209747314,2019-08-06 14:15:19:013,-116.67967775366233,106.38173139881035,0,-35.68547058105469,34.18608093261719,-29.687911987304688
0.18622292578220367,0.04664972424507141,9.618284225463867,0.0007591862786478714,0.01756970178790418,-0.0013889113292873795,0.5200033187866211,2019-08-06 14:15:19:023,-117.93376773828899,107.8481126362478,0,-35.68547058105469,34.18608093261719,-29.687911987304688
0.1718544214963913,0.04425497353076935,9.635047912597656,0.003955759874737148,0.01410674660909561,-0.004585484860358075,0.5299899578094482,2019-08-06 14:15:19:033,-119.16256589513637,109.28366890158495,0,-35.68547058105469,34.18608093261719,-29.687911987304688
0.2101704180240631,0.0538339726626873,9.579968452453613,-0.0003063383292368989,0.016237795629809405,0.0018076624618576407,0.5399689674377441,2019-08-06 14:15:19:043,-120.36327726880137,110.69172784512934,0,-35.68547058105469,34.18608093261719,-29.687911987304688
0.152696430683136,0.03228122740983963,9.601521492004395,0.0002264239747054862,0.015971413982071532,-0.001655292456876604,0.5499429702758789,2019-08-06 14:15:19:053,-121.54673396720361,112.07391381943138,0,-35.68547058105469,34.18608093261719,-29.687911987304688
0.1718544214963913,0.04425497353076935,9.544047355651855,-0.0024373874474785677,0.01756970178790418,0.00020937558253977584,0.5599875450134277,2019-08-06 14:15:19:063,-122.70507698274716,113.42849675365807,0,-35.68547058105469,34.18608093261719,-29.687911987304688
0.19580191373825073,0.041860222816467285,9.64462661743164,0.0023574731092018,0.017836082395344753,-0.0021880547120550534,0.5699808597564697,2019-08-06 14:15:19:073,-123.83772289247415,114.75363044097101,0,-35.68547058105469,34.18608093261719,-29.687911987304688
0.152696430683136,0.06101822108030319,9.601521492004395,-3.9957173202045016e-05,0.01756970178790418,0.0012749002066791914,0.5799908638000488,2019-08-06 14:15:19:083,-124.95262129824933,116.05129802907386,0,-35.68547058105469,34.18608093261719,-29.687911987304688
0.152696430683136,0.013123228214681149,9.577573776245117,0.0012919485988449018,0.015438651726893083,0.0031395680998037635,0.589970588684082,2019-08-06 14:15:19:093,-126.04395215338273,117.32797797498326,0,-35.08571243286133,35.08571243286133,-29.687911987304688
0.152696430683136,0.05143922194838524,9.544047355651855,-0.005101198723370813,0.015438651726893083,-0.003786341477590401,0.6000020503997803,2019-08-06 14:15:19:103,-127.11343708013341,118.57811570143139,0,-35.08571243286133,35.08571243286133,-29.687911987304688
0.20059141516685486,0.027491725981235504,9.570389747619629,0.0023574731092018,0.018901606905701654,-0.002987198094822727,0.6099963188171387,2019-08-06 14:15:19:113,-128.1577610808158,119.80193870111582,0,-35.08571243286133,35.08571243286133,-29.687911987304688
0.2245389223098755,0.03946547582745552,9.59194278717041,0.002890235364380249,0.0194343681205828,0.0028731869722145387,0.6199870109558105,2019-08-06 14:15:19:123,-129.17868809817128,120.99956379974343,0,-35.08571243286133,35.08571243286133,-29.687911987304688
0.14072267711162567,-0.003640019567683339,9.572784423828125,-0.0011054818095324445,0.011975696548084513,-0.000856149009090349,0.6299953460693359,2019-08-06 14:15:19:133,-130.18500020369297,114.9806294982493,0,-35.08571243286133,35.08571243286133,-29.687911987304688
0.17424917221069336,-0.003640019567683339,9.55362606048584,-0.0016382440647108938,0.01357398435391716,-0.0005897678815011245,0.6399965286254883,2019-08-06 14:15:19:143,-131.16802476702154,109.08237349325599,0,-35.08571243286133,35.08571243286133,-29.687911987304688
0.1910124272108078,0.05143922194838524,9.599126815795898,-0.0003063383292368989,0.020499892630939702,0.0031395680998037635,0.6499807834625244,2019-08-06 14:15:19:153,-132.13335731571624,110.4947571565274,0,-35.08571243286133,35.08571243286133,-29.687911987304688
0.18622292578220367,0.041860222816467285,9.488967895507812,-0.004302055340603139,0.017303320140166306,0.0018076624618576407,0.6600005626678467,2019-08-06 14:15:19:163,-133.07793923705788,111.8822272590043,0,-35.08571243286133,35.08571243286133,-29.687911987304688
0.15509118139743805,0.022702226415276527,9.579968452453613,-0.0008391006169246387,0.01810246300278533,0.005004236253002661,0.669992208480835,2019-08-06 14:15:19:173,-134.00798673374283,113.24233793417724,0,-35.08571243286133,35.08571243286133,-29.687911987304688
0.14790692925453186,0.03946547582745552,9.551231384277344,-3.9957173202045016e-05,0.016504176237249982,0.0028731869722145387,0.6799929141998291,2019-08-06 14:15:19:183,-134.9193509077044,114.572778742168,0,-35.08571243286133,35.08571243286133,-29.687911987304688
0.20777566730976105,0.015517977997660637,9.606310844421387,-0.002970149702657017,0.01810246300278533,-0.0024544358396442778,0.689967155456543,2019-08-06 14:15:19:193,-135.8063209791171,115.8811355027754,0,-35.08571243286133,35.08571243286133,-29.687911987304688
0.15030167996883392,0.022702226415276527,9.594337463378906,-0.0016382440647108938,0.018901606905701654,0.00047575672638364575,0.6999971866607666,2019-08-06 14:15:19:203,-136.68288959702824,117.16172395405565,0,-35.08571243286133,35.08571243286133,-29.687911987304688
0.1838281750679016,0.02509697712957859,9.55362606048584,-0.0016382440647108938,0.017303320140166306,-0.000856149009090349,0.7099900245666504,2019-08-06 14:15:19:213,-137.5368939736466,118.41639842243771,0,-34.93577575683594,34.93577575683594,-29.537973403930664
0.19580191373825073,0.013123228214681149,9.508126258850098,-0.0005727194893354142,0.01863522629826108,0.0020740435894468653,0.7199983596801758,2019-08-06 14:15:19:223,-138.3730338362187,119.64681069801044,0,-34.93577575683594,34.93577575683594,-29.537973403930664
0.1718544214963913,0.05143922194838524,9.594337463378906,-0.0016382440647108938,0.015438651726893083,-0.000856149009090349,0.7299907207489014,2019-08-06 14:15:19:233,-139.19371179660746,120.84864998335037,0,-34.93577575683594,34.93577575683594,-29.537973403930664
0.18861767649650574,0.01791272684931755,9.529679298400879,-0.0008391006169246387,0.015438651726893083,0.0018076624618576407,0.7400093078613281,2019-08-06 14:15:19:243,-139.99584470182734,122.02999506369022,0,-34.93577575683594,34.93577575683594,-29.537973403930664
0.15748591721057892,0.0538339726626873,9.567995071411133,-0.0005727194893354142,0.016504176237249982,0.005270617380591885,0.7499909400939941,2019-08-06 14:15:19:253,-140.78631818419416,123.18326876903373,0,-34.93577575683594,34.93577575683594,-29.537973403930664
0.15509118139743805,0.01072847843170166,9.63265323638916,0.002890235364380249,0.016237795629809405,-0.0013889113292873795,0.7599961757659912,2019-08-06 14:15:19:263,-141.56126579723707,124.31670340459843,0,-34.93577575683594,34.93577575683594,-29.537973403930664
0.19580191373825073,0.03707072511315346,9.579968452453613,-0.004834817595781589,0.017303320140166306,0.0026068058446253144,0.7699899673461914,2019-08-06 14:15:19:273,-142.3163324979609,125.42864817227267,0,-34.93577575683594,34.93577575683594,-29.537973403930664
0.17903867363929749,0.027491725981235504,9.62067985534668,-0.004834817595781589,0.015438651726893083,-0.001655292456876604,0.78000807762146,2019-08-06 14:15:19:283,-143.05736756098156,126.5195203484856,0,-34.93577575683594,34.93577575683594,-29.537973403930664
0.1646701693534851,0.03228122740983963,9.587152481079102,-0.0013718629371216693,0.0194343681205828,0.0028731869722145387,0.7900047302246094,2019-08-06 14:15:19:293,-143.78744846924025,127.58604154603607,0,-34.93577575683594,34.93577575683594,-29.537973403930664
0.21974942088127136,0.041860222816467285,9.599126815795898,-0.0061667232337277115,0.014905889471714633,-0.0024544358396442778,0.7999889850616455,2019-08-06 14:15:19:303,-144.4938274986175,128.63278075100592,0,-34.93577575683594,34.93577575683594,-29.537973403930664
0.18143342435359955,0.013123228214681149,9.565600395202637,-0.0024373874474785677,0.011442934292906064,0.004205092610160662,0.809992790222168,2019-08-06 14:15:19:313,-145.18864628918766,129.65992214419236,0,-34.93577575683594,34.93577575683594,-29.537973403930664
0.1383279263973236,0.022702226415276527,9.565600395202637,0.002890235364380249,0.0183688436102259,0.004471473997824211,0.8199977874755859,2019-08-06 14:15:19:323,-145.87862269438446,130.66238040833287,0,-34.93577575683594,34.93577575683594,-29.537973403930664
0.15509118139743805,0.03707072511315346,9.572784423828125,-0.003502911957835466,0.01863522629826108,-0.0005897678815011245,0.8299705982208252,2019-08-06 14:15:19:333,-146.55292179104148,131.64665678266465,0,-34.93577575683594,34.93577575683594,-29.537973403930664
0.11677517741918564,0.04425497353076935,9.587152481079102,-0.0024373874474785677,0.011709315940643939,-0.001655292456876604,0.839998722076416,2019-08-06 14:15:19:343,-147.2144996117834,132.60980649595365,0,-35.38559341430664,35.08571243286133,-27.88864517211914
0.152696430683136,0.04425497353076935,9.551231384277344,-0.005101198723370813,0.012774840451000838,0.0018076624618576407,0.8499701023101807,2019-08-06 14:15:19:353,-147.85904384662956,133.55515700151315,0,-35.38559341430664,35.08571243286133,-27.88864517211914
0.17424917221069336,0.05862347409129143,9.60391616821289,-0.0005727194893354142,0.016770557884987856,0.0023404247170360896,0.8599796295166016,2019-08-06 14:15:19:363,-148.49049988603176,134.4773810276075,0,-35.38559341430664,35.08571243286133,-27.88864517211914
0.1718544214963913,0.03946547582745552,9.486573219299316,-0.0003063383292368989,0.012242078195822388,0.0018076624618576407,0.8699994087219238,2019-08-06 14:15:19:373,-149.10682078227748,135.3832386136708,0,-35.38559341430664,35.08571243286133,-27.88864517211914
0.17424917221069336,0.034675974398851395,9.572784423828125,-0.003236530830246241,0.016504176237249982,0.0020740435894468653,0.8800089359283447,2019-08-06 14:15:19:383,-149.71310397530482,136.27324199140836,0,-35.38559341430664,35.08571243286133,-27.88864517211914
0.15748591721057892,0.049044474959373474,9.642231941223145,-0.0019046251923001184,0.015438651726893083,-0.001122530201698155,0.8899693489074707,2019-08-06 14:15:19:393,-150.3087618633681,137.14301380072044,0,-35.38559341430664,35.08571243286133,-27.88864517211914
0.152696430683136,0.022702226415276527,9.560811042785645,-0.004834817595781589,0.014373127216536186,0.00020937558253977584,0.9000015258789062,2019-08-06 14:15:19:403,-150.8923831378294,138.00015602231457,0,-35.38559341430664,35.08571243286133,-27.88864517211914
0.19580191373825073,0.09214996546506882,9.60391616821289,0.0002264239747054862,0.016770557884987856,0.0020740435894468653,0.9099993705749512,2019-08-06 14:15:19:413,-151.4605907256573,138.82903102331633,0,-35.38559341430664,35.08571243286133,-27.88864517211914
0.17903867363929749,0.03946547582745552,9.601521492004395,-0.002171006319889343,0.01570503337463096,0.0012749002066791914,0.9199926853179932,2019-08-06 14:15:19:423,-152.0188260658934,139.64895853385326,0,-35.38559341430664,35.08571243286133,-27.88864517211914
0.16945967078208923,0.029886476695537567,9.565600395202637,-0.0003063383292368989,0.014639508864274061,-0.0024544358396442778,0.9300034046173096,2019-08-06 14:15:19:433,-152.56638004269743,140.45257130325504,0,-35.38559341430664,35.08571243286133,-27.88864517211914
0.1838281750679016,0.01072847843170166,9.56320571899414,-0.005633960978549262,0.018901606905701654,0.0020740435894468653,0.9399704933166504,2019-08-06 14:15:19:443,-153.1036061544302,141.24538738285204,0,-35.38559341430664,35.08571243286133,-27.88864517211914
0.1981966644525528,0.04664972424507141,9.66139030456543,-0.0019046251923001184,0.015971413982071532,0.00020937558253977584,0.9499528408050537,2019-08-06 14:15:19:453,-153.62698176788444,142.0160142168264,0,-35.38559341430664,35.08571243286133,-27.88864517211914
0.16945967078208923,0.05143922194838524,9.623074531555176,-0.0024373874474785677,0.015172271119452508,0.0031395680998037635,0.9601759910583496,2019-08-06 14:15:19:463,-154.14297427858577,142.7709677387977,0,-34.485958099365234,35.38559341430664,-30.58754539489746
0.21256516873836517,0.008333728648722172,9.55362606048584,-3.9957173202045016e-05,0.016770557884987856,0.0007421378864821609,0.9700446128845215,2019-08-06 14:15:19:473,-154.6439156696091,143.5145709311747,0,-34.485958099365234,35.38559341430664,-30.58754539489746
0.17903867363929749,-0.013219018466770649,9.594337463378906,0.001824710854023351,0.015971413982071532,0.007668047528894907,0.9799749851226807,2019-08-06 14:15:19:483,-155.13856154278315,137.04484090813182,0,-34.485958099365234,35.38559341430664,-30.58754539489746
0.20059141516685486,-0.013219018466770649,9.55362606048584,0.0002264239747054862,0.018901606905701654,0.005803379635770335,0.9899654388427734,2019-08-06 14:15:19:493,-155.62233688003892,130.70540263692277,0,-34.485958099365234,35.38559341430664,-30.58754539489746
0.18622292578220367,-0.006034769117832184,9.62067985534668,0.0015583297264341264,0.017303320140166306,-0.0005897678815011245,0.9999785423278809,2019-08-06 14:15:19:503,-156.09744049056346,124.49113723661362,0,-34.485958099365234,35.38559341430664,-30.58754539489746
0.17903867363929749,0.015517977997660637,9.58236312866211,-0.0003063383292368989,0.014905889471714633,0.0031395680998037635,1.010087013244629,2019-08-06 14:15:19:513,-156.56254409230627,125.59963263637053,0,-34.485958099365234,35.38559341430664,-30.58754539489746
0.15988066792488098,0.07059722393751144,9.558416366577148,-0.006433104361316936,0.014905889471714633,-0.0005897678815011245,1.019974708557129,2019-08-06 14:15:19:523,-157.02040326453442,126.6827481664449,0,-34.485958099365234,35.38559341430664,-30.58754539489746
0.19580191373825073,0.05862347409129143,9.59194278717041,-0.006699486009054812,0.01810246300278533,0.003938711482571438,1.0299675464630127,2019-08-06 14:15:19:533,-157.4667639115801,127.74584880860715,0,-34.485958099365234,35.38559341430664,-30.58754539489746
0.18143342435359955,0.04425497353076935,9.587152481079102,-0.006965867136644035,0.01410674660909561,-0.003786341477590401,1.03997802734375,2019-08-06 14:15:19:543,-157.90367440072072,128.78955766697155,0,-34.485958099365234,35.38559341430664,-30.58754539489746
0.16227541863918304,0.07538671791553497,9.536863327026367,-0.004035674213013915,0.01357398435391716,-0.001122530201698155,1.0499582290649414,2019-08-06 14:15:19:553,-158.33371104076662,129.80697004153504,0,-34.485958099365234,35.38559341430664,-30.58754539489746
0.15988066792488098,0.022702226415276527,9.594337463378906,0.0034229976195586987,0.019167987513142228,-0.001655292456876604,1.0600087642669678,2019-08-06 14:15:19:563,-158.75876016369003,130.80618744632693,0,-34.485958099365234,35.38559341430664,-30.58754539489746
0.17664392292499542,0.04664972424507141,9.60391616821289,-0.0024373874474785677,0.015438651726893083,0.0020740435894468653,1.06996750831604,2019-08-06 14:15:19:573,-159.17114363751784,131.7858605546226,0,-34.485958099365234,35.38559341430664,-30.58754539489746
0.14790692925453186,-0.008429518900811672,9.625469207763672,-0.0016382440647108938,0.01570503337463096,-0.0021880547120550534,1.07997727394104,2019-08-06 14:15:19:583,-159.57894074359385,125.55206765067265,0,-34.485958099365234,35.38559341430664,-30.58754539489746
0.1838281750679016,0.03946547582745552,9.584757804870605,-0.0008391006169246387,0.01756970178790418,0.0026068058446253144,1.0899600982666016,2019-08-06 14:15:19:593,-159.9752352753444,126.63677833333365,0,-33.736263275146484,35.53553009033203,-28.63833999633789
0.1718544214963913,0.049044474959373474,9.556020736694336,0.0007591862786478714,0.015172271119452508,-0.0019216735844658289,1.0999729633331299,2019-08-06 14:15:19:603,-160.36365494128518,127.69773479208467,0,-33.736263275146484,35.53553009033203,-28.63833999633789
0.19340716302394867,0.027491725981235504,9.503336906433105,0.001824710854023351,0.016770557884987856,0.0023404247170360896,1.1099941730499268,2019-08-06 14:15:19:613,-160.7425005778952,128.7394383980876,0,-33.736263275146484,35.53553009033203,-28.63833999633789
0.1838281750679016,0.01072847843170166,9.577573776245117,-0.002171006319889343,0.017036938492428433,-0.0024544358396442778,1.119978427886963,2019-08-06 14:15:19:623,-161.11521017015053,129.76458311200284,0,-33.736263275146484,35.53553009033203,-28.63833999633789
0.21256516873836517,0.03707072511315346,9.551231384277344,-0.0016382440647108938,0.017303320140166306,-0.003519960350001176,1.1299810409545898,2019-08-06 14:15:19:633,-161.47712585235777,130.7657639983965,0,-33.736263275146484,35.53553009033203,-28.63833999633789
0.16227541863918304,0.01072847843170166,9.60391616821289,-0.002970149702657017,0.014373127216536186,-0.0021880547120550534,1.1400001049041748,2019-08-06 14:15:19:643,-161.83630875185085,131.75083953775308,0,-33.736263275146484,35.53553009033203,-28.63833999633789
0.10719618201255798,0.05143922194838524,9.58236312866211,-0.0005727194893354142,0.01570503337463096,-0.001122530201698155,1.1499814987182617,2019-08-06 14:15:19:653,-162.19556590609716,132.70999238292333,0,-33.736263275146484,35.53553009033203,-28.63833999633789
0.16706492006778717,0.029886476695537567,9.625469207763672,0.003955759874737148,0.017303320140166306,0.0028731869722145387,1.1600091457366943,2019-08-06 14:15:19:663,-162.5415100976376,133.6500072562247,0,-33.736263275146484,35.53553009033203,-28.63833999633789
0.152696430683136,0.04425497353076935,9.529679298400879,-0.0003063383292368989,0.015172271119452508,0.0020740435894468653,1.169969081878662,2019-08-06 14:15:19:673,-162.88080525357242,134.57185693984292,0,-33.736263275146484,35.53553009033203,-28.63833999633789
0.14790692925453186,0.03228122740983963,9.611100196838379,-0.0016382440647108938,0.0183688436102259,0.00020937558253977584,1.1799945831298828,2019-08-06 14:15:19:683,-163.21589622461448,135.47749319573398,0,-33.736263275146484,35.53553009033203,-28.63833999633789
0.18861767649650574,0.020307477563619614,9.52488899230957,0.001824710854023351,0.017036938492428433,0.0020740435894468653,1.1899943351745605,2019-08-06 14:15:19:693,-163.5384551249239,136.3644756463908,0,-33.736263275146484,35.53553009033203,-28.63833999633789
0.15748591721057892,0.056228723376989365,9.594337463378906,0.0015583297264341264,0.01863522629826108,0.008200809784073356,1.1999940872192383,2019-08-06 14:15:19:703,-163.85934151479208,137.22959546129215,0,-33.736263275146484,35.53553009033203,-28.63833999633789
0.16227541863918304,0.02509697712957859,9.584757804870605,0.003689378747147923,0.015172271119452508,-0.0032535792224119516,1.2099945545196533,2019-08-06 14:15:19:713,-164.17127514080133,138.07993138602544,0,-34.63589859008789,34.93577575683594,-28.63833999633789
0.13353842496871948,0.06101822108030319,9.572784423828125,-0.0013718629371216693,0.012774840451000838,0.00047575672638364575,1.2199671268463135,2019-08-06 14:15:19:723,-164.4790187633481,138.91179682287492,0,-34.63589859008789,34.93577575683594,-28.63833999633789
0.15748591721057892,0.041860222816467285,9.601521492004395,-0.0003063383292368989,0.01570503337463096,0.00047575672638364575,1.2299981117248535,2019-08-06 14:15:19:733,-164.7794902340076,139.72873755535107,0,-34.63589859008789,34.93577575683594,-28.63833999633789
0.20298616588115692,0.01791272684931755,9.630258560180664,-3.9957173202045016e-05,0.015971413982071532,-0.0021880547120550534,1.23996901512146,2019-08-06 14:15:19:743,-165.06869228059907,140.5320537212604,0,-34.63589859008789,34.93577575683594,-28.63833999633789
0.152696430683136,0.0035442295484244823,9.663784980773926,-3.9957173202045016e-05,0.01756970178790418,-0.0013889113292873795,1.2499945163726807,2019-08-06 14:15:19:753,-165.35910397377174,141.32101487110702,0,-34.63589859008789,34.93577575683594,-28.63833999633789
0.1646701693534851,0.03707072511315346,9.635047912597656,0.001824710854023351,0.017036938492428433,0.0020740435894468653,1.2599735260009766,2019-08-06 14:15:19:763,-165.64188538492613,142.0891632776386,0,-34.63589859008789,34.93577575683594,-28.63833999633789
0.12874892354011536,0.022702226415276527,9.596732139587402,0.003689378747147923,0.01570503337463096,0.010331859324935803,1.2699930667877197,2019-08-06 14:15:19:773,-165.9225106822255,142.8425935865364,0,-34.63589859008789,34.93577575683594,-28.63833999633789
0.13593317568302155,0.05143922194838524,9.594337463378906,0.0007591862786478714,0.016504176237249982,0.0031395680998037635,1.279991626739502,2019-08-06 14:15:19:783,-166.19709188873472,143.57917182430077,0,-34.63589859008789,34.93577575683594,-28.63833999633789
0.18622292578220367,0.0538339726626873,9.666179656982422,-0.008564153902179383,0.016504176237249982,0.0012749002066791914,1.2899911403656006,2019-08-06 14:15:19:793,-166.4603428683627,144.3060150189527,0,-34.63589859008789,34.93577575683594,-28.63833999633789
0.152696430683136,0.008333728648722172,9.570389747619629,0.0015583297264341264,0.019167987513142228,-5.7005565367755386e-05,1.2999749183654785,2019-08-06 14:15:19:803,-166.7235997151848,145.01802329489917,0,-34.63589859008789,34.93577575683594,-28.63833999633789
0.15509118139743805,0.04425497353076935,9.560811042785645,-0.0013718629371216693,0.015971413982071532,-0.0005897678815011245,1.309995412826538,2019-08-06 14:15:19:813,-166.9795271296931,145.71313054367678,0,-34.63589859008789,34.93577575683594,-28.63833999633789
0.16706492006778717,0.06580772250890732,9.587152481079102,-0.004834817595781589,0.019700750808617978,0.00020937558253977584,1.3199660778045654,2019-08-06 14:15:19:823,-167.23099947293795,146.39370909128803,0,-34.63589859008789,34.93577575683594,-28.63833999633789
0.15748591721057892,0.027491725981235504,9.63265323638916,-0.0037692930854246903,0.01756970178790418,-0.0019216735844658289,1.3299586772918701,2019-08-06 14:15:19:833,-167.4775044426367,147.0646793460034,0,-34.63589859008789,34.93577575683594,-28.63833999633789
0.15988066792488098,0.0538339726626873,9.599126815795898,0.0002264239747054862,0.01996713141605855,-0.002987198094822727,1.3399882316589355,2019-08-06 14:15:19:843,-167.72011468549405,147.7168317722812,0,-35.53553009033203,35.235652923583984,-29.537973403930664
0.16706492006778717,-0.003640019567683339,9.55362606048584,-0.0016382440647108938,0.014905889471714633,0.00020937558253977584,1.3499696254730225,2019-08-06 14:15:19:853,-167.95402979272995,141.16384990149663,0,-35.53553009033203,35.235652923583984,-29.537973403930664
0.14790692925453186,0.029886476695537567,9.546442031860352,-0.0003063383292368989,0.01996713141605855,0.0023404247170360896,1.3600044250488281,2019-08-06 14:15:19:863,-168.1884470112733,141.93715807273105,0,-35.53553009033203,35.235652923583984,-29.537973403930664
0.18622292578220367,0.08257097005844116,9.572784423828125,0.004754903517579147,0.0194343681205828,-0.0021880547120550534,1.3699681758880615,2019-08-06 14:15:19:873,-168.41326177625947,142.6858707577886,0,-35.53553009033203,35.235652923583984,-29.537973403930664
0.1838281750679016,0.015517977997660637,9.59194278717041,0.0007591862786478714,0.013307602706179285,-0.0005897678815011245,1.3800053596496582,2019-08-06 14:15:19:883,-168.6305379101153,143.42987159898502,0,-35.53553009033203,35.235652923583984,-29.537973403930664
0.18622292578220367,0.015517977997660637,9.567995071411133,-0.002970149702657017,0.007979980154394795,-5.7005565367755386e-05,1.389970064163208,2019-08-06 14:15:19:893,-168.8400918210671,144.16107749910574,0,-35.53553009033203,35.235652923583984,-29.537973403930664
0.2173546701669693,0.0011494798818603158,9.599126815795898,0.0020910919816125757,0.013041222098738713,-0.0021880547120550534,1.3999993801116943,2019-08-06 14:15:19:903,-169.04469135051963,144.87654114016868,0,-35.53553009033203,35.235652923583984,-29.537973403930664
0.1718544214963913,0.01791272684931755,9.615889549255371,-0.0003063383292368989,0.016770557884987856,-0.004585484860358075,1.409970760345459,2019-08-06 14:15:19:913,-169.25270968547423,145.57704719501376,0,-35.53553009033203,35.235652923583984,-29.537973403930664
0.20059141516685486,0.005938979331403971,9.58236312866211,-0.0013718629371216693,0.015971413982071532,0.001541281334268416,1.419999361038208,2019-08-06 14:15:19:923,-169.45266466443533,146.26556853525315,0,-35.53553009033203,35.235652923583984,-29.537973403930664
0.1646701693534851,0.01072847843170166,9.508126258850098,-0.002171006319889343,0.017303320140166306,0.007401666401305682,1.4299962520599365,2019-08-06 14:15:19:933,-169.6534801418779,146.94018281125327,0,-35.53553009033203,35.235652923583984,-29.537973403930664
0.17903867363929749,0.06580772250890732,9.527284622192383,-0.0003063383292368989,0.023163704947129243,0.005803379635770335,1.4399800300598145,2019-08-06 14:15:19:943,-169.8518640840354,147.59363583856262,0,-35.53553009033203,35.235652923583984,-29.537973403930664
0.1910124272108078,0.041860222816467285,9.594337463378906,-3.9957173202045016e-05,0.016504176237249982,0.004737855125413436,1.449991226196289,2019-08-06 14:15:19:953,-170.04129337817037,148.23678596946957,0,-35.53553009033203,35.235652923583984,-29.537973403930664
0.17424917221069336,0.03228122740983963,9.558416366577148,-0.0011054818095324445,0.015971413982071532,0.0007421378864821609,1.4599716663360596,2019-08-06 14:15:19:963,-170.22853026002292,148.86879972588517,0,-34.485958099365234,34.485958099365234,-28.788278579711914
0.17424917221069336,0.05862347409129143,9.515310287475586,-0.002970149702657017,0.017036938492428433,-0.000856149009090349,1.4699938297271729,2019-08-06 14:15:19:973,-170.41256483424752,149.48603530848428,0,-34.485958099365234,34.485958099365234,-28.788278579711914
0.1646701693534851,0.01791272684931755,9.59194278717041,-3.9957173202045016e-05,0.01570503337463096,-0.0013889113292873795,1.4799730777740479,2019-08-06 14:15:19:983,-170.5934429603253,150.0941970238129,0,-34.485958099365234,34.485958099365234,-28.788278579711914
0.16706492006778717,0.01072847843170166,9.589548110961914,-0.002970149702657017,0.013840364961357736,-5.7005565367755386e-05,1.490004062652588,2019-08-06 14:15:19:993,-170.76940790492412,150.6927039727864,0,-34.485958099365234,34.485958099365234,-28.788278579711914
0.18143342435359955,0.027491725981235504,9.560811042785645,0.0031566164919694735,0.011975696548084513,-0.0005897678815011245,1.4999713897705078,2019-08-06 14:15:20:003,-170.9389789335399,151.2737882236111,0,-34.485958099365234,34.485958099365234,-28.788278579711914
0.17903867363929749,0.05143922194838524,9.575179100036621,-0.0013718629371216693,0.014639508864274061,-0.0032535792224119516,1.509995937347412,2019-08-06 14:15:20:013,-171.1070155279452,151.84292868714024,0,-34.485958099365234,34.485958099365234,-28.788278579711914
0.14790692925453186,0.06580772250890732,9.551231384277344,0.0004928051185493561,0.01357398435391716,-0.0032535792224119516,1.5199689865112305,2019-08-06 14:15:20:023,-171.2747326319551,152.39789894766452,0,-34.485958099365234,34.485958099365234,-28.788278579711914
0.14311742782592773,-0.01082426868379116,9.565600395202637,0.0004928051185493561,0.013840364961357736,-0.004851865987947299,1.529999017715454,2019-08-06 14:15:20:033,-171.43988912336602,145.75096012611144,0,-34.485958099365234,34.485958099365234,-28.788278579711914
0.1838281750679016,0.04664972424507141,9.548836708068848,-0.0013718629371216693,0.012508459843560263,0.0020740435894468653,1.5399799346923828,2019-08-06 14:15:20:043,-171.59604370245592,146.43111156082423,0,-34.485958099365234,34.485958099365234,-28.788278579711914
0.1838281750679016,-0.0012452697847038507,9.556020736694336,0.0034229976195586987,0.015971413982071532,0.005270617380591885,1.550276279449463,2019-08-06 14:15:20:053,-171.75131537521924,139.90065969061226,0,-34.485958099365234,34.485958099365234,-28.788278579711914
0.15030167996883392,-0.003640019567683339,9.536863327026367,-0.004035674213013915,0.01863522629826108,-5.7005565367755386e-05,1.559969425201416,2019-08-06 14:15:20:063,-171.90837341976325,133.50528036020984,0,-34.485958099365234,34.485958099365234,-28.788278579711914
0.18143342435359955,0.022702226415276527,9.58236312866211,0.0007591862786478714,0.01863522629826108,0.00553699850818111,1.569997787475586,2019-08-06 14:15:20:073,-172.0590049944067,134.43203240064284,0,-34.485958099365234,34.485958099365234,-28.788278579711914
0.18143342435359955,0.027491725981235504,9.587152481079102,-0.0003063383292368989,0.01810246300278533,-0.0013889113292873795,1.579970359802246,2019-08-06 14:15:20:083,-172.20627807050641,135.34027731777647,0,-34.485958099365234,34.485958099365234,-28.788278579711914
0.18861767649650574,0.034675974398851395,9.577573776245117,-3.9957173202045016e-05,0.014639508864274061,-0.001122530201698155,1.5900013446807861,2019-08-06 14:15:20:093,-172.34783366465612,136.22934546347557,0,-36.28522491455078,35.68547058105469,-29.687911987304688
0.15030167996883392,0.06101822108030319,9.536863327026367,-0.002703768575067792,0.013307602706179285,0.004471473997824211,1.5999717712402344,2019-08-06 14:15:20:103,-172.49026887381987,137.0989405943929,0,-36.28522491455078,35.68547058105469,-29.687911987304688
0.18622292578220367,0.049044474959373474,9.575179100036621,0.0007591862786478714,0.020766275318974875,-0.001655292456876604,1.609994888305664,2019-08-06 14:15:20:113,-172.62986715003075,137.95066513789743,0,-36.28522491455078,35.68547058105469,-29.687911987304688
0.17424917221069336,0.04664972424507141,9.567995071411133,-0.0013718629371216693,0.011709315940643939,0.0023404247170360896,1.6199681758880615,2019-08-06 14:15:20:123,-172.76296027894136,138.78683309397945,0,-36.28522491455078,35.68547058105469,-29.687911987304688
0.15748591721057892,0.04425497353076935,9.546442031860352,-0.0008391006169246387,0.01756970178790418,0.006069760763359559,1.6300013065338135,2019-08-06 14:15:20:133,-172.89869687519626,139.60625700018517,0,-36.28522491455078,35.68547058105469,-29.687911987304688
0.18861767649650574,0.015517977997660637,9.567995071411133,-0.0011054818095324445,0.016770557884987856,-0.0005897678815011245,1.6399681568145752,2019-08-06 14:15:20:143,-173.02752140490483,140.41289201245812,0,-36.28522491455078,35.68547058105469,-29.687911987304688
0.20059141516685486,-0.027587516233325005,9.579968452453613,-0.002703768575067792,0.014905889471714633,0.005004236253002661,1.6499979496002197,2019-08-06 14:15:20:153,-173.15137515194218,134.00945675131538,0,-36.28522491455078,35.68547058105469,-29.687911987304688
0.1981966644525528,0.02509697712957859,9.565600395202637,0.0026238542367910244,0.014639508864274061,0.0026068058446253144,1.6599745750427246,2019-08-06 14:15:20:163,-173.27280883351895,134.92479127219775,0,-36.28522491455078,35.68547058105469,-29.687911987304688
0.15030167996883392,0.03707072511315346,9.584757804870605,-0.006965867136644035,0.019700750808617978,-0.004052722605179625,1.6699903011322021,2019-08-06 14:15:20:173,-173.40046399829896,135.82578091603756,0,-36.28522491455078,35.68547058105469,-29.687911987304688
0.17903867363929749,0.07538671791553497,9.55362606048584,-0.0005727194893354142,0.017036938492428433,-0.001122530201698155,1.6799721717834473,2019-08-06 14:15:20:183,-173.52053120215382,136.70054417706012,0,-36.28522491455078,35.68547058105469,-29.687911987304688
0.14311742782592773,0.020307477563619614,9.594337463378906,-0.0011054818095324445,0.017836082395344753,-0.0024544358396442778,1.6899921894073486,2019-08-06 14:15:20:193,-173.6430633621957,137.5647298089927,0,-36.28522491455078,35.68547058105469,-29.687911987304688
0.20059141516685486,0.07059722393751144,9.565600395202637,-0.002171006319889343,0.015172271119452508,0.001541281334268416,1.699967861175537,2019-08-06 14:15:20:203,-173.75467415746834,138.40619419021587,0,-36.28522491455078,35.68547058105469,-29.687911987304688
0.17424917221069336,0.0035442295484244823,9.56320571899414,-0.004035674213013915,0.014905889471714633,0.00047575672638364575,1.7100002765655518,2019-08-06 14:15:20:213,-173.86710026324567,139.23991898845986,0,-34.63589859008789,35.235652923583984,-29.238094329833984
0.12156467884778976,0.04664972424507141,9.534468650817871,-0.0008391006169246387,0.017303320140166306,-0.0024544358396442778,1.7199714183807373,2019-08-06 14:15:20:223,-173.98483635407447,140.0499837747935,0,-34.63589859008789,35.235652923583984,-29.238094329833984
0.15988066792488098,0.03946547582745552,9.570389747619629,0.0020910919816125757,0.016770557884987856,-5.7005565367755386e-05,1.7300002574920654,2019-08-06 14:15:20:233,-174.09544181489173,140.84308117539084,0,-34.63589859008789,35.235652923583984,-29.238094329833984
0.1838281750679016,0.049044474959373474,9.608705520629883,0.004222141002326372,0.015438651726893083,0.00020937558253977584,1.739983081817627,2019-08-06 14:15:20:243,-174.20026655367428,141.61800399913838,0,-34.63589859008789,35.235652923583984,-29.238094329833984
0.17903867363929749,0.029886476695537567,9.56320571899414,0.0012919485988449018,0.015438651726893083,0.004205092610160662,1.7499969005584717,2019-08-06 14:15:20:253,-174.30349109697835,142.3813363399608,0,-34.63589859008789,35.235652923583984,-29.238094329833984
0.14311742782592773,0.03228122740983963,9.647021293640137,-0.0005727194893354142,0.016504176237249982,0.0026068058446253144,1.7599797248840332,2019-08-06 14:15:20:263,-174.40967356061813,143.13019615027443,0,-34.63589859008789,35.235652923583984,-29.238094329833984
0.20298616588115692,0.056228723376989365,9.6901273727417,0.0023574731092018,0.016504176237249982,0.003672330354982212,1.7699782848358154,2019-08-06 14:15:20:273,-174.50674500789017,143.8596193913172,0,-34.63589859008789,35.235652923583984,-29.238094329833984
0.16706492006778717,0.05862347409129143,9.596732139587402,0.0004928051185493561,0.010377409782549165,0.003405949227392988,1.7799911499023438,2019-08-06 14:15:20:283,-174.60249782391685,144.57514998057624,0,-34.63589859008789,35.235652923583984,-29.238094329833984
0.16706492006778717,0.056228723376989365,9.546442031860352,-0.0019046251923001184,0.017303320140166306,0.0028731869722145387,1.7899830341339111,2019-08-06 14:15:20:293,-174.70010403482604,145.27796617112176,0,-34.63589859008789,35.235652923583984,-29.238094329833984
0.1646701693534851,0.02509697712957859,9.594337463378906,-0.0005727194893354142,0.015971413982071532,0.003405949227392988,1.7999961376190186,2019-08-06 14:15:20:303,-174.79541590884097,145.96973135809083,0,-34.63589859008789,35.235652923583984,-29.238094329833984
0.14072267711162567,0.008333728648722172,9.56320571899414,0.0012919485988449018,0.015172271119452508,0.00020937558253977584,1.8099696636199951,2019-08-06 14:15:20:313,-174.89114330291505,146.6486146313717,0,-34.63589859008789,35.235652923583984,-29.238094329833984
0.16945967078208923,0.06341297179460526,9.59194278717041,0.0012919485988449018,0.011442934292906064,0.003672330354982212,1.8199987411499023,2019-08-06 14:15:20:323,-174.97952166815048,147.30733918817597,0,-34.63589859008789,35.235652923583984,-29.238094329833984
0.16945967078208923,0.03707072511315346,9.54165267944336,-0.0024373874474785677,0.015172271119452508,0.004737855125413436,1.8299694061279297,2019-08-06 14:15:20:333,-175.0680761414047,147.95810495104897,0,-34.63589859008789,35.235652923583984,-29.238094329833984
0.18861767649650574,0.056228723376989365,9.570389747619629,0.0012919485988449018,0.015971413982071532,-0.002987198094822727,1.839991807937622,2019-08-06 14:15:20:343,-175.15312132345366,148.59148330160846,0,-34.485958099365234,34.78583526611328,-29.08815574645996
0.21256516873836517,0.06341297179460526,9.520099639892578,0.002890235364380249,0.013840364961357736,0.003672330354982212,1.8499741554260254,2019-08-06 14:15:20:353,-175.2322347258111,149.21040085583027,0,-34.485958099365234,34.78583526611328,-29.08815574645996
0.16706492006778717,0.027491725981235504,9.579968452453613,-0.0037692930854246903,0.016237795629809405,0.0020740435894468653,1.860001802444458,2019-08-06 14:15:20:363,-175.31675115997422,149.82502670724415,0,-34.485958099365234,34.78583526611328,-29.08815574645996
0.16227541863918304,-0.020403267815709114,9.55362606048584,-0.0011054818095324445,0.018901606905701654,0.00020937558253977584,1.8699736595153809,2019-08-06 14:15:20:373,-175.40153714067313,143.23159243158915,0,-34.485958099365234,34.78583526611328,-29.08815574645996
0.1838281750679016,0.03228122740983963,9.58236312866211,-0.002970149702657017,0.015172271119452508,-5.7005565367755386e-05,1.879995584487915,2019-08-06 14:15:20:383,-175.48006372287117,143.96477160920838,0,-34.485958099365234,34.78583526611328,-29.08815574645996
0.17903867363929749,0.022702226415276527,9.51291561126709,-0.0011054818095324445,0.01570503337463096,0.0018076624618576407,1.8899946212768555,2019-08-06 14:15:20:393,-175.55771569357373,144.68336216316428,0,-34.485958099365234,34.78583526611328,-29.08815574645996
0.1718544214963913,0.01791272684931755,9.596732139587402,-0.002703768575067792,0.01810246300278533,-0.006450152753482647,1.8999683856964111,2019-08-06 14:15:20:403,-175.636180818215,145.38907019941985,0,-34.485958099365234,34.78583526611328,-29.08815574645996
0.12874892354011536,0.041860222816467285,9.570389747619629,0.0002264239747054862,0.01570503337463096,0.0023404247170360896,1.9100048542022705,2019-08-06 14:15:20:413,-175.7168928265484,146.0761490714575,0,-34.485958099365234,34.78583526611328,-29.08815574645996
0.16227541863918304,0.05143922194838524,9.606310844421387,-3.9957173202045016e-05,0.014639508864274061,0.0026068058446253144,1.9199824333190918,2019-08-06 14:15:20:423,-175.79140096912403,146.74851246316604,0,-34.485958099365234,34.78583526611328,-29.08815574645996
0.13353842496871948,0.07059722393751144,9.546442031860352,0.0002264239747054862,0.011975696548084513,0.0010085190140713856,1.9299836158752441,2019-08-06 14:15:20:433,-175.86626972499246,147.40494101653888,0,-34.485958099365234,34.78583526611328,-29.08815574645996
0.152696430683136,0.015517977997660637,9.579968452453613,-0.004302055340603139,0.014639508864274061,-0.001655292456876604,1.9399936199188232,2019-08-06 14:15:20:443,-175.93890925901061,148.05740401727388,0,-34.485958099365234,34.78583526611328,-29.08815574645996
0.18622292578220367,0.0011494798818603158,9.625469207763672,0.001824710854023351,0.01810246300278533,-0.0013889113292873795,1.949993371963501,2019-08-06 14:15:20:453,-176.00812818893752,148.6950945436767,0,-34.485958099365234,34.78583526611328,-29.08815574645996
0.20059141516685486,0.029886476695537567,9.548836708068848,-0.002171006319889343,0.01863522629826108,-0.003519960350001176,1.9599967002868652,2019-08-06 14:15:20:463,-176.07436417290768,149.31882553741164,0,-35.38559341430664,35.38559341430664,-29.38803482055664
0.1981966644525528,0.020307477563619614,9.618284225463867,-0.0016382440647108938,0.01810246300278533,-0.0005897678815011245,1.9699699878692627,2019-08-06 14:15:20:473,-176.13940457660664,149.9309470263356,0,-35.38559341430664,35.38559341430664,-29.38803482055664
0.16945967078208923,0.029886476695537567,9.613494873046875,-0.002703768575067792,0.015172271119452508,0.0020740435894468653,1.9799981117248535,2019-08-06 14:15:20:483,-176.20496238206667,150.53028810170701,0,-35.38559341430664,35.38559341430664,-29.38803482055664
0.16945967078208923,0.07538671791553497,9.613494873046875,0.0020910919816125757,0.011442934292906064,-0.0021880547120550534,1.989987850189209,2019-08-06 14:15:20:493,-176.26708446132844,151.10952358856622,0,-35.38559341430664,35.38559341430664,-29.38803482055664
0.15030167996883392,0.03707072511315346,9.599126815795898,-0.0013718629371216693,0.014639508864274061,-0.0013889113292873795,1.999992847442627,2019-08-06 14:15:20:503,-176.3320258367947,151.68367842852692,0,-35.38559341430664,35.38559341430664,-29.38803482055664
0.20298616588115692,0.0035442295484244823,9.599126815795898,-0.003502911957835466,0.014373127216536186,0.00047575672638364575,2.0099751949310303,2019-08-06 14:15:20:513,-176.38921328310545,152.25154516851273,0,-35.38559341430664,35.38559341430664,-29.38803482055664
0.23172315955162048,0.029886476695537567,9.625469207763672,-0.0019046251923001184,0.0183688436102259,0.0028731869722145387,2.0199882984161377,2019-08-06 14:15:20:523,-176.44417521472124,152.80402712651573,0,-35.38559341430664,35.38559341430664,-29.38803482055664
0.17424917221069336,0.0538339726626873,9.606310844421387,0.0002264239747054862,0.015971413982071532,0.00047575672638364575,2.029991388320923,2019-08-06 14:15:20:533,-176.5034788892225,153.34139773954792,0,-35.38559341430664,35.38559341430664,-29.38803482055664
0.17424917221069336,0.01072847843170166,9.558416366577148,0.0031566164919694735,0.01810246300278533,0.0026068058446253144,2.0399694442749023,2019-08-06 14:15:20:543,-176.56266387807565,153.87151504979977,0,-35.38559341430664,35.38559341430664,-29.38803482055664
0.18622292578220367,0.020307477563619614,9.611100196838379,0.0002264239747054862,0.01996713141605855,0.005004236253002661,2.050001859664917,2019-08-06 14:15:20:553,-176.62045818645208,154.39153597655084,0,-35.38559341430664,35.38559341430664,-29.38803482055664
0.17664392292499542,0.0035442295484244823,9.630258560180664,0.0012919485988449018,0.01810246300278533,0.001541281334268416,2.059971570968628,2019-08-06 14:15:20:563,-176.6771660364775,154.90256029491562,0,-35.38559341430664,35.38559341430664,-29.38803482055664
0.15988066792488098,0.01072847843170166,9.575179100036621,0.0004928051185493561,0.010111029175108591,0.003672330354982212,2.070017099380493,2019-08-06 14:15:20:573,-176.73019385109913,155.40294718292293,0,-35.38559341430664,35.38559341430664,-29.38803482055664
0.19340716302394867,-0.0012452697847038507,9.577573776245117,-0.003236530830246241,0.013307602706179285,-0.000856149009090349,2.079969882965088,2019-08-06 14:15:20:583,-176.7798897016641,148.69684595742967,0,-35.38559341430664,35.38559341430664,-29.38803482055664
0.14790692925453186,0.03228122740983963,9.52488899230957,-0.0005727194893354142,0.013041222098738713,0.0018076624618576407,2.0899927616119385,2019-08-06 14:15:20:593,-176.83383840632376,149.31934769630578,0,-35.08571243286133,35.08571243286133,-29.08815574645996
0.19580191373825073,0.03228122740983963,9.596732139587402,-0.003502911957835466,0.013307602706179285,0.0020740435894468653,2.0999763011932373,2019-08-06 14:15:20:603,-176.8812446924146,149.93106979985066,0,-35.08571243286133,35.08571243286133,-29.08815574645996
0.18622292578220367,0.01791272684931755,9.55362606048584,-0.0024373874474785677,0.015438651726893083,0.0007421378864821609,2.109992027282715,2019-08-06 14:15:20:613,-176.92996841733674,150.53167059525532,0,-35.08571243286133,35.08571243286133,-29.08815574645996
0.14790692925453186,0.008333728648722172,9.596732139587402,-0.002703768575067792,0.012774840451000838,0.003672330354982212,2.11997127532959,2019-08-06 14:15:20:623,-176.98086751615665,151.12155709117536,0,-35.08571243286133,35.08571243286133,-29.08815574645996
0.15030167996883392,0.005938979331403971,9.527284622192383,-3.9957173202045016e-05,0.020499892630939702,-0.0005897678815011245,2.1299965381622314,2019-08-06 14:15:20:633,-177.0347135336838,151.69843411792297,0,-35.08571243286133,35.08571243286133,-29.08815574645996
0.152696430683136,0.0538339726626873,9.579968452453613,-0.0011054818095324445,0.0226309437322481,0.005004236253002661,2.1399686336517334,2019-08-06 14:15:20:643,-177.08842768900115,152.25864510406265,0,-35.08571243286133,35.08571243286133,-29.08815574645996
0.16227541863918304,0.03707072511315346,9.62067985534668,0.0020910919816125757,0.0183688436102259,0.0023404247170360896,2.149998903274536,2019-08-06 14:15:20:653,-177.13767770436863,152.80787904419282,0,-35.08571243286133,35.08571243286133,-29.08815574645996
0.18861767649650574,0.01791272684931755,9.625469207763672,-3.9957173202045016e-05,0.011975696548084513,-5.7005565367755386e-05,2.1599714756011963,2019-08-06 14:15:20:663,-177.17917791521347,153.34961132352308,0,-35.08571243286133,35.08571243286133,-29.08815574645996
0.12395942956209183,0.05143922194838524,9.532073974609375,0.0004928051185493561,0.016504176237249982,-0.0019216735844658289,2.1700212955474854,2019-08-06 14:15:20:673,-177.23000642985525,153.87615720959235,0,-35.08571243286133,35.08571243286133,-29.08815574645996
0.13353842496871948,0.0011494798818603158,9.54165267944336,-0.0008391006169246387,0.019167987513142228,0.005270617380591885,2.179971218109131,2019-08-06 14:15:20:683,-177.28007880131918,154.39896481174904,0,-35.08571243286133,35.08571243286133,-29.08815574645996
0.18143342435359955,0.041860222816467285,9.63265323638916,-0.002703768575067792,0.018901606905701654,0.0010085190140713856,2.189993143081665,2019-08-06 14:15:20:693,-177.32353266743016,154.9075272798115,0,-35.08571243286133,35.08571243286133,-29.08815574645996
0.15748591721057892,0.05143922194838524,9.613494873046875,0.005287665772757595,0.01064379143028704,0.004737855125413436,2.19996976852417,2019-08-06 14:15:20:703,-177.3642540893191,155.4002832298356,0,-35.08571243286133,35.08571243286133,-29.08815574645996
0.14790692925453186,0.034675974398851395,9.55362606048584,-0.003502911957835466,0.01756970178790418,-0.000856149009090349,2.2100048065185547,2019-08-06 14:15:20:713,-177.40912956646505,155.89009212414607,0,-35.53553009033203,35.235652923583984,-27.738706588745117
0.18622292578220367,-0.003640019567683339,9.546442031860352,-0.004035674213013915,0.015971413982071532,0.0007421378864821609,2.219968795776367,2019-08-06 14:15:20:723,-177.4475320097169,149.17498508005434,0,-35.53553009033203,35.235652923583984,-27.738706588745117
0.15988066792488098,0.03707072511315346,9.527284622192383,-0.0008391006169246387,0.013307602706179285,0.00020937558253977584,2.2299911975860596,2019-08-06 14:15:20:733,-177.48684210725645,149.78749884542302,0,-35.53553009033203,35.235652923583984,-27.738706588745117
0.15748591721057892,0.056228723376989365,9.560811042785645,-0.0037692930854246903,0.014639508864274061,-0.0027208169672335025,2.2399742603302,2019-08-06 14:15:20:743,-177.52643756366498,150.3871224938688,0,-35.53553009033203,35.235652923583984,-27.738706588745117
0.17664392292499542,0.015517977997660637,9.558416366577148,-0.0003063383292368989,0.011442934292906064,-0.0013889113292873795,2.249988555908203,2019-08-06 14:15:20:753,-177.56116855374032,150.97769191942038,0,-35.53553009033203,35.235652923583984,-27.738706588745117
0.18622292578220367,0.034675974398851395,9.62067985534668,-0.006433104361316936,0.017036938492428433,0.0012749002066791914,2.2599735260009766,2019-08-06 14:15:20:763,-177.59731884884965,151.5576146068093,0,-35.53553009033203,35.235652923583984,-27.738706588745117
0.2173546701669693,0.02509697712957859,9.577573776245117,-3.9957173202045016e-05,0.014639508864274061,0.00020937558253977584,2.269996166229248,2019-08-06 14:15:20:773,-177.6276100564193,152.12348206265565,0,-35.53553009033203,35.235652923583984,-27.738706588745117
0.18143342435359955,-0.02519276738166809,9.599126815795898,-0.002970149702657017,0.012774840451000838,0.0026068058446253144,2.279970407485962,2019-08-06 14:15:20:783,-177.6605560228204,145.48568329227894,0,-35.53553009033203,35.235652923583984,-27.738706588745117
0.19580191373825073,0.056228723376989365,9.577573776245117,0.0012919485988449018,0.015971413982071532,-0.001122530201698155,2.289992332458496,2019-08-06 14:15:20:793,-177.6929088961675,146.16851516045858,0,-35.53553009033203,35.235652923583984,-27.738706588745117
0.16706492006778717,0.01791272684931755,9.60391616821289,0.0002264239747054862,0.0215654192218912,0.00047575672638364575,2.29997181892395,2019-08-06 14:15:20:803,-177.7312030681424,146.8428806813885,0,-35.53553009033203,35.235652923583984,-27.738706588745117
0.18143342435359955,0.01072847843170166,9.630258560180664,-0.002171006319889343,0.017036938492428433,0.0028731869722145387,2.3099923133850098,2019-08-06 14:15:20:813,-177.76457841100628,147.50596798965168,0,-35.53553009033203,35.235652923583984,-27.738706588745117
0.17664392292499542,0.03707072511315346,9.611100196838379,-0.002171006319889343,0.009844647527370716,-0.0021880547120550534,2.3199734687805176,2019-08-06 14:15:20:823,-177.79374559012106,148.15264549040057,0,-35.53553009033203,35.235652923583984,-27.738706588745117
0.1838281750679016,0.0035442295484244823,9.546442031860352,0.0012919485988449018,0.014905889471714633,0.007668047528894907,2.3300321102142334,2019-08-06 14:15:20:833,-177.82422614532933,148.78843746450153,0,-35.53553009033203,35.235652923583984,-27.738706588745117
0.1455121785402298,0.07059722393751144,9.532073974609375,0.0007591862786478714,0.017303320140166306,-0.005917390498304197,2.3399782180786133,2019-08-06 14:15:20:843,-177.8599134004084,149.40375791211454,0,-35.53553009033203,34.336021423339844,-29.537973403930664
0.20777566730976105,0.020307477563619614,9.560811042785645,-0.0013718629371216693,0.015971413982071532,-0.004052722605179625,2.349993944168091,2019-08-06 14:15:20:853,-177.88679802976006,150.01402030562707,0,-35.53553009033203,34.336021423339844,-29.537973403930664
0.2365126609802246,0.020307477563619614,9.58236312866211,0.0010255674062370958,0.014373127216536186,-0.001655292456876604,2.3599677085876465,2019-08-06 14:15:20:863,-177.90883354735126,150.61073707110288,0,-35.53553009033203,34.336021423339844,-29.537973403930664
0.152696430683136,0.013123228214681149,9.570389747619629,0.0015583297264341264,0.01410674660909561,-0.0019216735844658289,2.3700006008148193,2019-08-06 14:15:20:873,-177.9403222137925,151.1960731360243,0,-35.53553009033203,34.336021423339844,-29.537973403930664
0.14790692925453186,0.0035442295484244823,9.572784423828125,0.0031566164919694735,0.01996713141605855,0.003938711482571438,2.3799736499786377,2019-08-06 14:15:20:883,-177.97499319648784,151.76995975031247,0,-35.53553009033203,34.336021423339844,-29.537973403930664
0.16945967078208923,0.041860222816467285,9.587152481079102,-0.0008391006169246387,0.014639508864274061,-0.0005897678815011245,2.3899991512298584,2019-08-06 14:15:20:893,-178.00348160313345,152.33002955046666,0,-35.53553009033203,34.336021423339844,-29.537973403930664
0.18861767649650574,0.005938979331403971,9.567995071411133,-0.0005727194893354142,0.013041222098738713,-0.0005897678815011245,2.399970769882202,2019-08-06 14:15:20:903,-178.02812685462288,152.8830383433193,0,-35.53553009033203,34.336021423339844,-29.537973403930664
0.15030167996883392,0.008333728648722172,9.615889549255371,-0.0037692930854246903,0.014373127216536186,-0.000856149009090349,2.409998655319214,2019-08-06 14:15:20:913,-178.05774747686232,153.42650680965662,0,-35.53553009033203,34.336021423339844,-29.537973403930664
0.16945967078208923,0.0538339726626873,9.584757804870605,-0.0024373874474785677,0.019167987513142228,-0.0053846282431257485,2.4199700355529785,2019-08-06 14:15:20:923,-178.08706670849077,153.9529052379621,0,-35.53553009033203,34.336021423339844,-29.537973403930664
0.20059141516685486,0.03228122740983963,9.608705520629883,-0.003502911957835466,0.01756970178790418,0.0023404247170360896,2.42999005317688,2019-08-06 14:15:20:933,-178.11129181707346,154.47196816861992,0,-35.53553009033203,34.336021423339844,-29.537973403930664
0.14790692925453186,0.020307477563619614,9.599126815795898,-0.0011054818095324445,0.014639508864274061,0.00047575672638364575,2.4399735927581787,2019-08-06 14:15:20:943,-178.1396172164323,154.98072426657558,0,-35.53553009033203,34.336021423339844,-29.537973403930664
0.152696430683136,0.03707072511315346,9.548836708068848,-0.0005727194893354142,0.014639508864274061,0.00047575672638364575,2.449995517730713,2019-08-06 14:15:20:953,-178.16674006643126,155.47698338861824,0,-35.53553009033203,34.336021423339844,-29.537973403930664
0.12156467884778976,0.04664972424507141,9.529679298400879,-0.0008391006169246387,0.02396284885004557,0.0023404247170360896,2.4599697589874268,2019-08-06 14:15:20:963,-178.20220871523665,155.96230421528938,0,-34.93577575683594,35.53553009033203,-29.537973403930664
0.17664392292499542,0.03707072511315346,9.558416366577148,-0.0037692930854246903,0.01996713141605855,-0.0019216735844658289,2.470000982284546,2019-08-06 14:15:20:973,-178.22823642823533,156.44073697180082,0,-34.93577575683594,35.53553009033203,-29.537973403930664
0.19340716302394867,0.04664972424507141,9.601521492004395,-0.0024373874474785677,0.01064379143028704,-0.0013889113292873795,2.479973316192627,2019-08-06 14:15:20:983,-178.2465521395344,156.9077195612882,0,-34.93577575683594,35.53553009033203,-29.537973403930664
0.20777566730976105,0.049044474959373474,9.565600395202637,0.0023574731092018,0.009844647527370716,-0.003519960350001176,2.489993095397949,2019-08-06 14:15:20:993,-178.26227311619743,157.36236357948954,0,-34.93577575683594,35.53553009033203,-29.537973403930664
0.18861767649650574,0.02509697712957859,9.55362606048584,0.003955759874737148,0.018901606905701654,0.0010085190140713856,2.4999942779541016,2019-08-06 14:15:21:003,-178.2850212103822,157.80988462592006,0,-34.93577575683594,35.53553009033203,-29.537973403930664
0.17903867363929749,0.029886476695537567,9.59194278717041,0.0020910919816125757,0.023696468242604993,0.0023404247170360896,2.509969711303711,2019-08-06 14:15:21:013,-178.31120699791592,158.24894525212335,0,-34.93577575683594,35.53553009033203,-29.537973403930664
0.152696430683136,0.04664972424507141,9.627863883972168,-0.005367579850960038,0.012508459843560263,0.003405949227392988,2.5199601650238037,2019-08-06 14:15:21:023,-178.33382711603673,158.68142511695496,0,-34.93577575683594,35.53553009033203,-29.537973403930664
0.17903867363929749,0.04664972424507141,9.60391616821289,-3.9957173202045016e-05,0.007713599026805571,-0.000856149009090349,2.5299952030181885,2019-08-06 14:15:21:033,-178.3501369458906,159.1022530428594,0,-34.93577575683594,35.53553009033203,-29.537973403930664
0.1000119298696518,-0.0012452697847038507,9.529679298400879,-0.0011054818095324445,0.017303320140166306,-0.000856149009090349,2.539968967437744,2019-08-06 14:15:21:043,-178.38079881214887,152.32097682000864,0,-34.93577575683594,35.53553009033203,-29.537973403930664
0.12395942956209183,0.07538671791553497,9.515310287475586,-0.003502911957835466,0.02209818043677235,-0.004851865987947299,2.5500030517578125,2019-08-06 14:15:21:053,-178.4107058089462,152.86745234019,0,-34.93577575683594,35.53553009033203,-29.537973403930664
0.1981966644525528,0.027491725981235504,9.618284225463867,-0.005900342106138487,0.017303320140166306,0.0010085190140713856,2.5599939823150635,2019-08-06 14:15:21:063,-178.42858900247285,153.41013798681306,0,-34.93577575683594,35.53553009033203,-29.537973403930664
0.18861767649650574,-0.020403267815709114,9.680547714233398,0.0002264239747054862,0.015971413982071532,0.0012749002066791914,2.569991111755371,2019-08-06 14:15:21:073,-178.4466581576188,146.74422331950714,0,-34.93577575683594,35.53553009033203,-29.537973403930664
0.11677517741918564,0.041860222816467285,9.496152877807617,0.004754903517579147,0.014905889471714633,-0.0005897678815011245,2.580016613006592,2019-08-06 14:15:21:083,-178.47202524204144,147.40161086704634,0,-34.93577575683594,35.53553009033203,-29.537973403930664
0.11438042670488358,0.05143922194838524,9.505731582641602,0.0020910919816125757,0.0226309437322481,-0.001655292456876604,2.5900070667266846,2019-08-06 14:15:21:093,-178.5014919598307,148.04620468950142,0,-35.235652923583984,35.235652923583984,-28.63833999633789
0.16945967078208923,0.027491725981235504,9.714075088500977,0.0002264239747054862,0.02396284885004557,0.00047575672638364575,2.599993944168091,2019-08-06 14:15:21:103,-178.52491138054853,148.6819105879325,0,-35.235652923583984,35.235652923583984,-28.63833999633789
0.16706492006778717,0.06820247322320938,9.60391616821289,-0.0019046251923001184,0.013307602706179285,0.00047575672638364575,2.609992265701294,2019-08-06 14:15:21:113,-178.54195233565886,149.30120402702929,0,-35.235652923583984,35.235652923583984,-28.63833999633789
0.13353842496871948,0.0035442295484244823,9.54165267944336,-0.003502911957835466,0.015438651726893083,-0.000856149009090349,2.620000123977661,2019-08-06 14:15:21:123,-178.5637524815458,149.91672272417122,0,-35.235652923583984,35.235652923583984,-28.63833999633789
0.1838281750679016,0.03707072511315346,9.584757804870605,-0.003502911957835466,0.017836082395344753,0.003672330354982212,2.6299734115600586,2019-08-06 14:15:21:133,-178.5804905429981,150.51591788935357,0,-35.235652923583984,35.235652923583984,-28.63833999633789
0.21974942088127136,0.027491725981235504,9.567995071411133,-0.0013718629371216693,0.015971413982071532,-0.001122530201698155,2.6400039196014404,2019-08-06 14:15:21:143,-178.59156224840694,151.10307962987847,0,-35.235652923583984,35.235652923583984,-28.63833999633789
0.15748591721057892,0.09214996546506882,9.613494873046875,0.0012919485988449018,0.01410674660909561,0.0012749002066791914,2.6499691009521484,2019-08-06 14:15:21:153,-178.60885391347128,151.6693113208499,0,-35.235652923583984,35.235652923583984,-28.63833999633789
0.17424917221069336,0.022702226415276527,9.584757804870605,-0.004035674213013915,0.015172271119452508,-0.001122530201698155,2.6599996089935303,2019-08-06 14:15:21:163,-178.6243917906315,152.23548385022872,0,-35.235652923583984,35.235652923583984,-28.63833999633789
0.15509118139743805,-0.008429518900811672,9.587152481079102,-0.0011054818095324445,0.01570503337463096,-0.002987198094822727,2.6699676513671875,2019-08-06 14:15:21:173,-178.64215829063986,145.592400463887,0,-35.235652923583984,35.235652923583984,-28.63833999633789
0.18143342435359955,0.04664972424507141,9.635047912597656,0.0026238542367910244,0.0183688436102259,-0.0021880547120550534,2.6799941062927246,2019-08-06 14:15:21:183,-178.65808079989833,146.27352716444656,0,-35.235652923583984,35.235652923583984,-28.63833999633789
0.20777566730976105,0.04664972424507141,9.637442588806152,-0.0008391006169246387,0.013307602706179285,-5.7005565367755386e-05,2.6899702548980713,2019-08-06 14:15:21:193,-178.66767235196056,146.942979927795,0,-35.235652923583984,35.235652923583984,-28.63833999633789
0.1455121785402298,-0.013219018466770649,9.546442031860352,-0.002703768575067792,0.015172271119452508,0.0007421378864821609,2.6999948024749756,2019-08-06 14:15:21:203,-178.68539369691774,140.4072289738636,0,-35.235652923583984,35.235652923583984,-28.63833999633789
0.1910124272108078,0.022702226415276527,9.539258003234863,0.0012919485988449018,0.01756970178790418,0.00020937558253977584,2.7099697589874268,2019-08-06 14:15:21:213,-178.6985839337221,141.1956336548415,0,-35.38559341430664,35.68547058105469,-29.08815574645996
0.15509118139743805,0.027491725981235504,9.623074531555176,-0.002703768575067792,0.021831799829331772,-0.0005897678815011245,2.7200026512145996,2019-08-06 14:15:21:223,-178.71844444485933,141.96997043222788,0,-35.38559341430664,35.68547058105469,-29.08815574645996
0.20059141516685486,0.005938979331403971,9.615889549255371,-0.0005727194893354142,0.012508459843560263,-0.0013889113292873795,2.7299656867980957,2019-08-06 14:15:21:233,-178.7271722726879,142.73018367417015,0,-35.38559341430664,35.68547058105469,-29.08815574645996
0.17424917221069336,0.04664972424507141,9.618284225463867,-0.002703768575067792,0.015971413982071532,0.003672330354982212,2.7399799823760986,2019-08-06 14:15:21:243,-178.74085192202674,143.47154256173968,0,-35.38559341430664,35.68547058105469,-29.08815574645996
0.14790692925453186,0.015517977997660637,9.58236312866211,0.0012919485988449018,0.01756970178790418,0.003672330354982212,2.7499942779541016,2019-08-06 14:15:21:253,-178.75822817047077,144.1995295162259,0,-35.38559341430664,35.68547058105469,-29.08815574645996
0.11198568344116211,0.027491725981235504,9.630258560180664,-0.0013718629371216693,0.0183688436102259,0.00047575672638364575,2.759988784790039,2019-08-06 14:15:21:263,-178.78004731680699,144.91303753859114,0,-35.38559341430664,35.68547058105469,-29.08815574645996
0.1718544214963913,-0.0012452697847038507,9.654206275939941,0.0002264239747054862,0.019167987513142228,0.003405949227392988,2.7699899673461914,2019-08-06 14:15:21:273,-178.794814165286,138.4147974445625,0,-35.38559341430664,35.68547058105469,-29.08815574645996
0.15509118139743805,0.01791272684931755,9.589548110961914,0.0002264239747054862,0.013840364961357736,0.004205092610160662,2.779984474182129,2019-08-06 14:15:21:283,-178.80815375122128,139.2442339265289,0,-35.38559341430664,35.68547058105469,-29.08815574645996
0.16945967078208923,0.03228122740983963,9.56320571899414,-0.0019046251923001184,0.01570503337463096,0.0010085190140713856,2.7899930477142334,2019-08-06 14:15:21:293,-178.82051313223806,140.05655151088902,0,-35.38559341430664,35.68547058105469,-29.08815574645996
0.1646701693534851,0.01072847843170166,9.596732139587402,-3.9957173202045016e-05,0.0194343681205828,-0.005651009370714973,2.799992561340332,2019-08-06 14:15:21:303,-178.83535389271427,140.85416186215792,0,-35.38559341430664,35.68547058105469,-29.08815574645996
0.18143342435359955,0.008333728648722172,9.608705520629883,0.0004928051185493561,0.01996713141605855,0.0026068058446253144,2.8099920749664307,2019-08-06 14:15:21:313,-178.84822295923212,141.6358080648984,0,-35.38559341430664,35.68547058105469,-29.08815574645996
0.20059141516685486,0.03228122740983963,9.60391616821289,0.0012919485988449018,0.011442934292906064,-0.000856149009090349,2.81999135017395,2019-08-06 14:15:21:323,-178.85375263290857,142.3985148268675,0,-35.38559341430664,35.68547058105469,-29.08815574645996
0.1718544214963913,0.0035442295484244823,9.59194278717041,-0.0037692930854246903,0.013041222098738713,-0.003519960350001176,2.8300554752349854,2019-08-06 14:15:21:333,-178.86351851960885,143.15225113844545,0,-35.38559341430664,35.68547058105469,-29.08815574645996
0.17903867363929749,0.056228723376989365,9.529679298400879,-0.0016382440647108938,0.01996713141605855,0.0007421378864821609,2.8399817943573,2019-08-06 14:15:21:343,-178.87585072340158,143.8833579515182,0,-35.38559341430664,35.68547058105469,-29.08815574645996
0.17903867363929749,0.02509697712957859,9.529679298400879,-0.004834817595781589,0.01863522629826108,-0.001122530201698155,2.8500120639801025,2019-08-06 14:15:21:353,-178.887302700736,144.60539592354118,0,-35.38559341430664,35.68547058105469,-29.08815574645996
0.1838281750679016,0.03228122740983963,9.594337463378906,-3.9957173202045016e-05,0.013840364961357736,0.0018076624618576407,2.8599910736083984,2019-08-06 14:15:21:363,-178.89535854395422,145.30945484654669,0,-35.38559341430664,35.68547058105469,-29.08815574645996
0.19340716302394867,0.05143922194838524,9.594337463378906,-0.002703768575067792,0.01570503337463096,-0.002987198094822727,2.869995594024658,2019-08-06 14:15:21:373,-178.9031769374929,145.99864092843487,0,-35.38559341430664,35.68547058105469,-29.08815574645996
0.152696430683136,0.027491725981235504,9.515310287475586,-0.003502911957835466,0.021299036533856022,0.00047575672638364575,2.879976511001587,2019-08-06 14:15:21:383,-178.91866251605694,146.67732045563145,0,-35.38559341430664,35.68547058105469,-29.08815574645996
0.17664392292499542,0.06101822108030319,9.63265323638916,-0.0013718629371216693,0.017036938492428433,-0.001655292456876604,2.889998435974121,2019-08-06 14:15:21:393,-178.9288649733838,147.33728730803819,0,-35.38559341430664,35.68547058105469,-29.08815574645996
0.17664392292499542,0.041860222816467285,9.54165267944336,-0.0003063383292368989,0.012774840451000838,-0.0005897678815011245,2.899986743927002,2019-08-06 14:15:21:403,-178.93624051367294,147.98568615068015,0,-35.38559341430664,35.68547058105469,-29.08815574645996
0.1646701693534851,0.027491725981235504,9.560811042785645,-0.002970149702657017,0.01357398435391716,-0.001655292456876604,2.9099950790405273,2019-08-06 14:15:21:413,-178.9454091591577,148.62434652784538,0,-35.38559341430664,35.68547058105469,-29.08815574645996
0.1718544214963913,0.01072847843170166,9.584757804870605,-0.0005727194893354142,0.01810246300278533,-0.001655292456876604,2.921175241470337,2019-08-06 14:15:21:424,-178.9573210303926,149.2509364765571,0,-35.38559341430664,35.68547058105469,-29.08815574645996
0.1718544214963913,0.027491725981235504,9.613494873046875,-0.0019046251923001184,0.015172271119452508,-0.0032535792224119516,2.9299731254577637,2019-08-06 14:15:21:433,-178.96518707852826,149.86358166421746,0,-35.38559341430664,35.68547058105469,-29.08815574645996
0.17903867363929749,0.034675974398851395,9.546442031860352,-0.003502911957835466,0.01756970178790418,0.001541281334268416,2.9400017261505127,2019-08-06 14:15:21:443,-178.97428837026496,150.46412019377567,0,-35.38559341430664,35.68547058105469,-29.08815574645996
0.13593317568302155,0.0035442295484244823,9.58236312866211,-0.0003063383292368989,0.013041222098738713,0.004737855125413436,2.9499964714050293,2019-08-06 14:15:21:453,-178.9858667815789,151.05458586818162,0,-35.38559341430664,35.68547058105469,-29.08815574645996
0.15988066792488098,0.041860222816467285,9.572784423828125,-3.9957173202045016e-05,0.01570503337463096,0.0023404247170360896,2.9599976539611816,2019-08-06 14:15:21:463,-178.99583201680764,151.62850571958788,0,-34.18608093261719,35.08571243286133,-28.488401412963867
0.15988066792488098,0.03707072511315346,9.52488899230957,0.0012919485988449018,0.013840364961357736,-0.000856149009090349,2.9699909687042236,2019-08-06 14:15:21:473,-179.00444848983244,152.19075079900935,0,-34.18608093261719,35.08571243286133,-28.488401412963867
0.20059141516685486,0.04664972424507141,9.649415969848633,0.0012919485988449018,0.01863522629826108,0.004737855125413436,2.979983329772949,2019-08-06 14:15:21:483,-179.01099739478286,152.74067106883726,0,-34.18608093261719,35.08571243286133,-28.488401412963867
0.1646701693534851,0.0538339726626873,9.584757804870605,0.0020910919816125757,0.015438651726893083,0.0023404247170360896,2.989989995956421,2019-08-06 14:15:21:493,-179.01976663258012,153.27824661108696,0,-34.18608093261719,35.08571243286133,-28.488401412963867
0.1910124272108078,0.04664972424507141,9.608705520629883,-0.0008391006169246387,0.017303320140166306,-0.0005897678815011245,3.000077724456787,2019-08-06 14:15:21:503,-179.02639555407922,153.80759365412635,0,-34.18608093261719,35.08571243286133,-28.488401412963867
0.1646701693534851,0.029886476695537567,9.556020736694336,0.0010255674062370958,0.0194343681205828,-0.005651009370714973,3.0099759101867676,2019-08-06 14:15:21:513,-179.0369243491493,154.32728794742056,0,-34.18608093261719,35.08571243286133,-28.488401412963867
0.19340716302394867,0.034675974398851395,9.577573776245117,0.0020910919816125757,0.016237795629809405,-0.0003233867214026093,3.0199975967407227,2019-08-06 14:15:21:523,-179.0421859428622,154.83541668349233,0,-34.18608093261719,35.08571243286133,-28.488401412963867
0.15988066792488098,0.03228122740983963,9.546442031860352,-0.002703768575067792,0.018901606905701654,0.0031395680998037635,3.0299880504608154,2019-08-06 14:15:21:533,-179.0527556958689,155.3363501720794,0,-34.18608093261719,35.08571243286133,-28.488401412963867
0.15030167996883392,0.029886476695537567,9.565600395202637,0.0002264239747054862,0.013840364961357736,0.004471473997824211,3.0400002002716064,2019-08-06 14:15:21:543,-179.06147739133468,155.82591562455806,0,-34.18608093261719,35.08571243286133,-28.488401412963867
0.14072267711162567,-0.0012452697847038507,9.572784423828125,-0.0008391006169246387,0.017303320140166306,0.00047575672638364575,3.0499837398529053,2019-08-06 14:15:21:553,-179.07310356698056,149.11001675610768,0,-34.18608093261719,35.08571243286133,-28.488401412963867
0.152696430683136,0.06101822108030319,9.615889549255371,-0.002703768575067792,0.013840364961357736,0.0026068058446253144,3.0599939823150635,2019-08-06 14:15:21:563,-179.0812256554067,149.72206475777122,0,-34.18608093261719,35.08571243286133,-28.488401412963867
0.19340716302394867,0.06101822108030319,9.534468650817871,-0.0011054818095324445,0.017836082395344753,-5.7005565367755386e-05,3.0699901580810547,2019-08-06 14:15:21:573,-179.08637048205406,150.320910477945,0,-34.18608093261719,35.08571243286133,-28.488401412963867
0.152696430683136,0.03707072511315346,9.56320571899414,0.0002264239747054862,0.017303320140166306,0.0012749002066791914,3.0799944400787354,2019-08-06 14:15:21:583,-179.09606765700613,150.9099230824968,0,-34.18608093261719,35.08571243286133,-28.488401412963867
0.15509118139743805,0.01791272684931755,9.551231384277344,-0.0019046251923001184,0.016504176237249982,-0.0027208169672335025,3.089987277984619,2019-08-06 14:15:21:593,-179.1048012025683,151.49064421008316,0,-34.18608093261719,35.08571243286133,-28.488401412963867
0.16227541863918304,0.008333728648722172,9.611100196838379,-0.0037692930854246903,0.016504176237249982,0.003672330354982212,3.0999982357025146,2019-08-06 14:15:21:603,-179.11263641388706,152.06195648152632,0,-34.18608093261719,35.08571243286133,-28.488401412963867
0.1981966644525528,0.06101822108030319,9.594337463378906,-0.0011054818095324445,0.013041222098738713,0.00020937558253977584,3.110020875930786,2019-08-06 14:15:21:613,-179.114054312079,152.6140517696955,0,-34.18608093261719,35.08571243286133,-28.488401412963867
0.19580191373825073,0.04664972424507141,9.58236312866211,0.0004928051185493561,0.017303320140166306,0.0020740435894468653,3.1199817657470703,2019-08-06 14:15:21:623,-179.11803912641258,153.15591650157867,0,-34.18608093261719,35.08571243286133,-28.488401412963867
0.16706492006778717,0.03707072511315346,9.52488899230957,0.0031566164919694735,0.017036938492428433,-0.0005897678815011245,3.129995822906494,2019-08-06 14:15:21:633,-179.12516090680032,153.68656338036752,0,-34.18608093261719,35.08571243286133,-28.488401412963867
0.13114367425441742,-0.01082426868379116,9.606310844421387,-0.006699486009054812,0.01810246300278533,-0.0021880547120550534,3.139983654022217,2019-08-06 14:15:21:643,-179.13716696061687,147.0178804899477,0,-34.18608093261719,35.08571243286133,-28.488401412963867
0.18622292578220367,0.03946547582745552,9.577573776245117,-0.002171006319889343,0.014373127216536186,-0.00431910373276885,3.1499929428100586,2019-08-06 14:15:21:653,-179.14022364273592,147.67402118151105,0,-34.18608093261719,35.08571243286133,-28.488401412963867
0.16706492006778717,0.022702226415276527,9.656600952148438,-0.002970149702657017,0.01863522629826108,-0.001655292456876604,3.159985303878784,2019-08-06 14:15:21:663,-179.1480517896553,148.31951322883717,0,-34.18608093261719,35.08571243286133,-28.488401412963867
0.15748591721057892,0.029886476695537567,9.59194278717041,0.0020910919816125757,0.015438651726893083,0.0031395680998037635,3.1699938774108887,2019-08-06 14:15:21:673,-179.15495437097388,148.94837739184317,0,-34.18608093261719,35.08571243286133,-28.488401412963867
0.17903867363929749,0.03228122740983963,9.601521492004395,-0.0016382440647108938,0.015971413982071532,0.00553699850818111,3.179985284805298,2019-08-06 14:15:21:683,-179.1594502001629,149.56647626284865,0,-34.18608093261719,35.08571243286133,-28.488401412963867
0.17424917221069336,0.02509697712957859,9.584757804870605,-0.0005727194893354142,0.014905889471714633,-5.7005565367755386e-05,3.190014600753784,2019-08-06 14:15:21:693,-179.16382512460044,150.17246877346176,0,-34.18608093261719,35.08571243286133,-28.488401412963867
0.16945967078208923,0.05862347409129143,9.606310844421387,-0.004568436468192365,0.015172271119452508,0.00047575672638364575,3.199988842010498,2019-08-06 14:15:21:703,-179.16883351409408,150.76458498344047,0,-34.18608093261719,35.08571243286133,-28.488401412963867
0.17424917221069336,0.04425497353076935,9.527284622192383,0.0026238542367910244,0.01357398435391716,0.0012749002066791914,3.209984064102173,2019-08-06 14:15:21:713,-179.17211910117777,151.34249786889956,0,-34.63589859008789,35.235652923583984,-28.63833999633789
0.11677517741918564,-0.003640019567683339,9.529679298400879,-0.006699486009054812,0.015438651726893083,0.00047575672638364575,3.2199959754943848,2019-08-06 14:15:21:723,-179.18331466183477,144.71985184607456,0,-34.63589859008789,35.235652923583984,-28.63833999633789
0.20059141516685486,0.04664972424507141,9.613494873046875,0.0002264239747054862,0.0194343681205828,0.004471473997824211,3.2299671173095703,2019-08-06 14:15:21:733,-179.18662249231943,145.41976749888343,0,-34.63589859008789,35.235652923583984,-28.63833999633789
0.20059141516685486,0.01791272684931755,9.548836708068848,-0.004568436468192365,0.01410674660909561,-0.0053846282431257485,3.2399985790252686,2019-08-06 14:15:21:743,-179.18676729296646,146.11179576201084,0,-34.63589859008789,35.235652923583984,-28.63833999633789
0.18861767649650574,0.015517977997660637,9.56320571899414,-0.0003063383292368989,0.015172271119452508,-0.0003233867214026093,3.2499706745147705,2019-08-06 14:15:21:753,-179.1889291131009,146.7878719280174,0,-34.63589859008789,35.235652923583984,-28.63833999633789
0.18622292578220367,0.029886476695537567,9.594337463378906,-0.002703768575067792,0.01570503337463096,0.005004236253002661,3.260003089904785,2019-08-06 14:15:21:763,-179.19175841954993,147.45006804370243,0,-34.63589859008789,35.235652923583984,-28.63833999633789
0.18861767649650574,0.06580772250890732,9.601521492004395,0.0015583297264341264,0.011975696548084513,0.00553699850818111,3.2699711322784424,2019-08-06 14:15:21:773,-179.19211798521528,148.09234062859676,0,-34.63589859008789,35.235652923583984,-28.63833999633789
0.20538091659545898,0.013123228214681149,9.625469207763672,0.0004928051185493561,0.014905889471714633,0.0020740435894468653,3.2799975872039795,2019-08-06 14:15:21:783,-179.19222044118183,148.7286540504917,0,-34.63589859008789,35.235652923583984,-28.63833999633789
0.15030167996883392,0.02509697712957859,9.637442588806152,-0.002970149702657017,0.017303320140166306,-0.0013889113292873795,3.2899739742279053,2019-08-06 14:15:21:793,-179.20019909104235,149.35276068101413,0,-34.63589859008789,35.235652923583984,-28.63833999633789
0.18143342435359955,0.008333728648722172,9.606310844421387,-0.0016382440647108938,0.0183688436102259,-0.0013889113292873795,3.2999935150146484,2019-08-06 14:15:21:803,-179.20488912510794,149.9656330248856,0,-34.63589859008789,35.235652923583984,-28.63833999633789
0.17664392292499542,-0.0012452697847038507,9.606310844421387,-0.0008391006169246387,0.01863522629826108,-0.0003233867214026093,3.309968948364258,2019-08-06 14:15:21:813,-179.21016020243084,143.36693890625494,0,-34.63589859008789,35.235652923583984,-28.63833999633789
0.152696430683136,0.013123228214681149,9.615889549255371,-0.0061667232337277115,0.012242078195822388,-0.001122530201698155,3.3199989795684814,2019-08-06 14:15:21:823,-179.21465640571247,144.1015092529264,0,-34.63589859008789,35.235652923583984,-28.63833999633789
0.19340716302394867,0.01072847843170166,9.60391616821289,0.0002264239747054862,0.0194343681205828,-0.0005897678815011245,3.329972267150879,2019-08-06 14:15:21:833,-179.21817275247173,144.81807217567373,0,-34.63589859008789,35.235652923583984,-28.63833999633789
0.1718544214963913,0.034675974398851395,9.534468650817871,0.0015583297264341264,0.01756970178790418,0.0026068058446253144,3.340000867843628,2019-08-06 14:15:21:843,-179.22305051045356,145.51666565968767,0,-34.63589859008789,35.235652923583984,-28.63833999633789
0.1838281750679016,0.03228122740983963,9.58236312866211,-0.0005727194893354142,0.013307602706179285,-0.0003233867214026093,3.34997820854187,2019-08-06 14:15:21:853,-179.2240642066504,146.20279283375746,0,-34.63589859008789,35.235652923583984,-28.63833999633789
0.16945967078208923,0.03946547582745552,9.606310844421387,0.0002264239747054862,0.015971413982071532,-0.000856149009090349,3.3599936962127686,2019-08-06 14:15:21:863,-179.2283523657768,146.8739019205179,0,-34.63589859008789,35.235652923583984,-28.63833999633789
0.15748591721057892,0.06580772250890732,9.587152481079102,0.0007591862786478714,0.01410674660909561,0.0010085190140713856,3.369968891143799,2019-08-06 14:15:21:873,-179.232864594368,147.5281330361306,0,-34.63589859008789,35.235652923583984,-28.63833999633789
0.13353842496871948,0.0035442295484244823,9.532073974609375,-0.0016382440647108938,0.014905889471714633,0.0026068058446253144,3.3799588680267334,2019-08-06 14:15:21:883,-179.2405160359018,148.17806324924825,0,-34.63589859008789,35.235652923583984,-28.63833999633789
0.20298616588115692,0.01791272684931755,9.577573776245117,0.0015583297264341264,0.011176553685465489,0.004205092610160662,3.3899991512298584,2019-08-06 14:15:21:893,-179.23772382701085,148.81148028108444,0,-34.63589859008789,35.235652923583984,-28.63833999633789
0.1981966644525528,0.02509697712957859,9.584757804870605,-0.0019046251923001184,0.015172271119452508,-0.001122530201698155,3.3999667167663574,2019-08-06 14:15:21:903,-179.2377686986175,149.4333161631411,0,-34.63589859008789,35.235652923583984,-28.63833999633789
0.17903867363929749,0.02509697712957859,9.556020736694336,-0.0003063383292368989,0.01410674660909561,-0.003786341477590401,3.4099998474121094,2019-08-06 14:15:21:913,-179.23949347473845,150.04181290712907,0,-34.63589859008789,35.235652923583984,-28.63833999633789
0.16706492006778717,0.03228122740983963,9.505731582641602,-0.0011054818095324445,0.01810246300278533,-0.004052722605179625,3.4199702739715576,2019-08-06 14:15:21:923,-179.24470045695313,150.6377040540072,0,-34.63589859008789,35.235652923583984,-28.63833999633789
0.19340716302394867,-0.003640019567683339,9.599126815795898,0.0023574731092018,0.019700750808617978,0.0026068058446253144,3.429994821548462,2019-08-06 14:15:21:933,-179.24781029096513,144.02405754041078,0,-34.63589859008789,35.235652923583984,-28.63833999633789
0.19340716302394867,0.01791272684931755,9.577573776245117,-0.0013718629371216693,0.016237795629809405,-0.001655292456876604,3.439970016479492,2019-08-06 14:15:21:943,-179.24881177710384,144.74220159966492,0,-34.63589859008789,35.235652923583984,-28.63833999633789
0.14790692925453186,0.03946547582745552,9.608705520629883,0.0031566164919694735,0.016504176237249982,-0.00778205891157742,3.4500041007995605,2019-08-06 14:15:21:953,-179.25549649960408,145.4408725409171,0,-34.63589859008789,35.235652923583984,-28.63833999633789
0.1455121785402298,0.029886476695537567,9.544047355651855,-3.9957173202045016e-05,0.018901606905701654,0.0020740435894468653,3.4599733352661133,2019-08-06 14:15:21:963,-179.26349743231546,146.1284891189884,0,-34.78583526611328,35.08571243286133,-29.08815574645996
0.18622292578220367,0.03228122740983963,9.596732139587402,-0.0008391006169246387,0.016237795629809405,-0.0013889113292873795,3.4700047969818115,2019-08-06 14:15:21:973,-179.26514016576613,146.80253738753473,0,-34.78583526611328,35.08571243286133,-29.08815574645996
0.1263541728258133,0.034675974398851395,9.587152481079102,-0.0019046251923001184,0.017836082395344753,0.003938711482571438,3.4799704551696777,2019-08-06 14:15:21:983,-179.2747161497058,147.4634077433321,0,-34.78583526611328,35.08571243286133,-29.08815574645996
0.17424917221069336,0.022702226415276527,9.611100196838379,-0.003502911957835466,0.016770557884987856,-0.0019216735844658289,3.4900553226470947,2019-08-06 14:15:21:993,-179.27794522387524,148.11341641728313,0,-34.78583526611328,35.08571243286133,-29.08815574645996
0.152696430683136,0.01791272684931755,9.544047355651855,-0.0016382440647108938,0.01357398435391716,-0.001122530201698155,3.5001654624938965,2019-08-06 14:15:22:003,-179.2817599536475,148.74992738526717,0,-34.78583526611328,35.08571243286133,-29.08815574645996
0.152696430683136,0.06820247322320938,9.527284622192383,-0.0024373874474785677,0.01996713141605855,-0.003786341477590401,3.5100114345550537,2019-08-06 14:15:22:013,-179.2887992486343,149.36807328142135,0,-34.78583526611328,35.08571243286133,-29.08815574645996
0.17424917221069336,0.049044474959373474,9.59194278717041,-0.0016382440647108938,0.016770557884987856,-5.7005565367755386e-05,3.52022647857666,2019-08-06 14:15:22:023,-179.291827763586,149.97579234943203,0,-34.78583526611328,35.08571243286133,-29.08815574645996
0.19580191373825073,0.03707072511315346,9.59194278717041,-0.0024373874474785677,0.014639508864274061,-5.7005565367755386e-05,3.530031442642212,2019-08-06 14:15:22:033,-179.2906624357384,150.5731897129666,0,-34.78583526611328,35.08571243286133,-29.08815574645996
0.1646701693534851,0.041860222816467285,9.58236312866211,-0.002703768575067792,0.017303320140166306,0.0018076624618576407,3.5399935245513916,2019-08-06 14:15:22:043,-179.2948378438039,151.15823246361242,0,-34.78583526611328,35.08571243286133,-29.08815574645996
0.15988066792488098,-0.008429518900811672,9.55362606048584,-0.0016382440647108938,0.0226309437322481,0.0020740435894468653,3.550013542175293,2019-08-06 14:15:22:053,-179.3024985722146,144.53700061111698,0,-34.78583526611328,35.08571243286133,-29.08815574645996
0.17664392292499542,-0.0012452697847038507,9.647021293640137,-0.006433104361316936,0.020499892630939702,0.0010085190140713856,3.5599887371063232,2019-08-06 14:15:22:063,-179.3069505133078,138.05001173682123,0,-34.78583526611328,35.08571243286133,-29.08815574645996
0.1981966644525528,0.04664972424507141,9.587152481079102,-0.0024373874474785677,0.012242078195822388,-0.001655292456876604,3.57002854347229,2019-08-06 14:15:22:073,-179.30402646213986,138.88480972094422,0,-34.78583526611328,35.08571243286133,-29.08815574645996
0.17903867363929749,0.041860222816467285,9.496152877807617,-0.0008391006169246387,0.01863522629826108,-0.0021880547120550534,3.5799975395202637,2019-08-06 14:15:22:083,-179.3067748288219,139.7025319139082,0,-34.78583526611328,35.08571243286133,-29.08815574645996
0.1718544214963913,0.041860222816467285,9.551231384277344,-0.0019046251923001184,0.016237795629809405,-5.7005565367755386e-05,3.5900139808654785,2019-08-06 14:15:22:093,-179.30915569432693,140.50453030136975,0,-34.78583526611328,35.08571243286133,-29.08815574645996
0.15030167996883392,0.07538671791553497,9.548836708068848,-0.002970149702657017,0.01863522629826108,-0.004585484860358075,3.599987745285034,2019-08-06 14:15:22:103,-179.31537320179916,141.28705640108168,0,-34.78583526611328,35.08571243286133,-29.08815574645996
0.1838281750679016,0.034675974398851395,9.55362606048584,-0.002703768575067792,0.014373127216536186,-0.0019216735844658289,3.6100142002105713,2019-08-06 14:15:22:113,-179.31511091594842,142.0586782387784,0,-34.78583526611328,35.08571243286133,-29.08815574645996
0.15509118139743805,0.013123228214681149,9.572784423828125,-0.004302055340603139,0.012774840451000838,0.001541281334268416,3.6200027465820312,2019-08-06 14:15:22:123,-179.3174098836402,142.8183465829916,0,-34.78583526611328,35.08571243286133,-29.08815574645996
0.1383279263973236,0.0011494798818603158,9.532073974609375,-0.002703768575067792,0.0215654192218912,0.003672330354982212,3.630009651184082,2019-08-06 14:15:22:133,-179.32655082448247,143.56336067512655,0,-34.78583526611328,35.08571243286133,-29.08815574645996
0.15509118139743805,0.041860222816467285,9.587152481079102,-0.002171006319889343,0.017036938492428433,0.0012749002066791914,3.640010356903076,2019-08-06 14:15:22:143,-179.33105086320018,144.28830920455133,0,-34.78583526611328,35.08571243286133,-29.08815574645996
0.23411791026592255,0.013123228214681149,9.627863883972168,-0.003236530830246241,0.015438651726893083,-0.005118247115536523,3.6499834060668945,2019-08-06 14:15:22:153,-179.3252158655125,145.00279349481053,0,-34.78583526611328,35.08571243286133,-29.08815574645996
0.19580191373825073,-0.01800851710140705,9.59194278717041,-0.0024373874474785677,0.010111029175108591,-0.001122530201698155,3.659985303878784,2019-08-06 14:15:22:163,-179.3210014386857,138.50625788590673,0,-34.78583526611328,35.08571243286133,-29.08815574645996
0.16945967078208923,0.01791272684931755,9.60391616821289,-0.0024373874474785677,0.015971413982071532,-0.000856149009090349,3.6700122356414795,2019-08-06 14:15:22:173,-179.32335607736692,139.33536770386738,0,-34.78583526611328,35.08571243286133,-29.08815574645996
0.14072267711162567,0.05143922194838524,9.615889549255371,-0.0024373874474785677,0.023696468242604993,-0.004052722605179625,3.6799850463867188,2019-08-06 14:15:22:183,-179.333389735184,140.14389531814192,0,-34.78583526611328,35.08571243286133,-29.08815574645996
0.1646701693534851,0.005938979331403971,9.625469207763672,-0.003236530830246241,0.014905889471714633,0.0031395680998037635,3.69000506401062,2019-08-06 14:15:22:193,-179.33550620014796,140.94213131970665,0,-34.78583526611328,35.08571243286133,-29.08815574645996
0.15509118139743805,0.041860222816467285,9.594337463378906,-0.002970149702657017,0.01064379143028704,-5.7005565367755386e-05,3.70001482963562,2019-08-06 14:15:22:203,-179.33625642792228,141.7199584436366,0,-34.78583526611328,35.08571243286133,-29.08815574645996
0.18143342435359955,0.0035442295484244823,9.579968452453613,0.0012919485988449018,0.020766275318974875,0.00020937558253977584,3.709998369216919,2019-08-06 14:15:22:213,-179.33947263142872,142.4844110956341,0,-35.68547058105469,35.68547058105469,-28.188522338867188
0.16945967078208923,0.04425497353076935,9.517704963684082,-0.0011054818095324445,0.01996713141605855,0.003672330354982212,3.720017433166504,2019-08-06 14:15:22:223,-179.34351556708293,143.23001659799084,0,-35.68547058105469,35.68547058105469,-28.188522338867188
0.18143342435359955,0.06341297179460526,9.639837265014648,-0.002970149702657017,0.012242078195822388,0.0010085190140713856,3.7299983501434326,2019-08-06 14:15:22:233,-179.34194107394873,143.95954284220113,0,-35.68547058105469,35.68547058105469,-28.188522338867188
0.152696430683136,0.029886476695537567,9.618284225463867,-0.004035674213013915,0.015172271119452508,-0.0027208169672335025,3.7399961948394775,2019-08-06 14:15:22:243,-179.34542900911754,144.67905688027017,0,-35.68547058105469,35.68547058105469,-28.188522338867188
0.20538091659545898,0.0011494798818603158,9.589548110961914,-0.0024373874474785677,0.020766275318974875,0.004737855125413436,3.750012159347534,2019-08-06 14:15:22:253,-179.34566076952527,145.38670915868516,0,-35.68547058105469,35.68547058105469,-28.188522338867188
0.18143342435359955,0.04425497353076935,9.630258560180664,0.0031566164919694735,0.0194343681205828,0.00020937558253977584,3.760017156600952,2019-08-06 14:15:22:263,-179.34807895957601,146.07193574056288,0,-35.68547058105469,35.68547058105469,-28.188522338867188
0.18861767649650574,0.013123228214681149,9.647021293640137,-0.003502911957835466,0.01570503337463096,-0.005118247115536523,3.770009994506836,2019-08-06 14:15:22:273,-179.34752743712735,146.75090366358555,0,-35.68547058105469,35.68547058105469,-28.188522338867188
0.20059141516685486,-0.003640019567683339,9.567995071411133,-0.002171006319889343,0.017036938492428433,0.003405949227392988,3.779996395111084,2019-08-06 14:15:22:283,-179.34610968691348,140.21753889831416,0,-35.68547058105469,35.68547058105469,-28.188522338867188
0.17664392292499542,0.008333728648722172,9.58236312866211,0.0007591862786478714,0.016237795629809405,-0.001655292456876604,3.790001153945923,2019-08-06 14:15:22:293,-179.34718760070444,141.01176503917327,0,-35.68547058105469,35.68547058105469,-28.188522338867188
0.18622292578220367,0.03228122740983963,9.560811042785645,-0.0024373874474785677,0.01756970178790418,-0.006982915528809746,3.800002336502075,2019-08-06 14:15:22:303,-179.34779336287968,141.7890294226865,0,-35.68547058105469,35.68547058105469,-28.188522338867188
0.14311742782592773,0.04425497353076935,9.596732139587402,-0.0016382440647108938,0.01357398435391716,0.0007421378864821609,3.8100006580352783,2019-08-06 14:15:22:313,-179.3513700550356,142.5488842419578,0,-35.68547058105469,35.68547058105469,-28.188522338867188
0.15748591721057892,0.01791272684931755,9.642231941223145,-3.9957173202045016e-05,0.017303320140166306,0.0031395680998037635,3.820016384124756,2019-08-06 14:15:22:323,-179.35535922654546,143.29580022145598,0,-35.68547058105469,35.68547058105469,-28.188522338867188
0.15748591721057892,-0.006034769117832184,9.630258560180664,-0.0024373874474785677,0.014905889471714633,0.0010085190140713856,3.830012083053589,2019-08-06 14:15:22:333,-179.35788031784125,136.83197030217596,0,-35.68547058105469,35.68547058105469,-28.188522338867188
0.18861767649650574,0.03707072511315346,9.548836708068848,-0.0016382440647108938,0.015438651726893083,-0.0013889113292873795,3.8399953842163086,2019-08-06 14:15:22:343,-179.35674474954962,137.69180055296084,0,-35.68547058105469,35.68547058105469,-28.188522338867188
0.16945967078208923,0.034675974398851395,9.539258003234863,0.004222141002326372,0.012242078195822388,0.0028731869722145387,3.8500044345855713,2019-08-06 14:15:22:353,-179.35613556680838,138.53142619237155,0,-35.68547058105469,35.68547058105469,-28.188522338867188
0.12874892354011536,0.03707072511315346,9.546442031860352,-0.002970149702657017,0.01570503337463096,-0.005651009370714973,3.859999895095825,2019-08-06 14:15:22:363,-179.36237365354413,139.358014851651,0,-35.68547058105469,35.68547058105469,-28.188522338867188
0.15748591721057892,0.049044474959373474,9.56320571899414,-0.0013718629371216693,0.012774840451000838,0.0012749002066791914,3.870018720626831,2019-08-06 14:15:22:373,-179.36344362169507,140.16574957833,0,-35.68547058105469,35.68547058105469,-28.188522338867188
0.15748591721057892,0.020307477563619614,9.613494873046875,0.002890235364380249,0.013840364961357736,0.0028731869722145387,3.879981517791748,2019-08-06 14:15:22:383,-179.36514675432036,140.95839714078357,0,-35.68547058105469,35.68547058105469,-28.188522338867188
0.14311742782592773,0.029886476695537567,9.587152481079102,-0.002703768575067792,0.012242078195822388,0.0018076624618576407,3.8900039196014404,2019-08-06 14:15:22:393,-179.36762812120145,141.7371785568634,0,-35.68547058105469,35.68547058105469,-28.188522338867188
0.1383279263973236,0.05143922194838524,9.560811042785645,0.002890235364380249,0.012774840451000838,0.001541281334268416,3.8999991416931152,2019-08-06 14:15:22:403,-179.37086698386852,142.49464768477557,0,-35.68547058105469,35.68547058105469,-28.188522338867188
0.15748591721057892,0.05143922194838524,9.58236312866211,-0.0037692930854246903,0.017836082395344753,-0.0013889113292873795,3.9100170135498047,2019-08-06 14:15:22:413,-179.3746510777999,143.2407236195641,0,-35.68547058105469,35.68547058105469,-28.188522338867188
0.1383279263973236,0.029886476695537567,9.55362606048584,0.0026238542367910244,0.017303320140166306,-0.0005897678815011245,3.9199986457824707,2019-08-06 14:15:22:423,-179.38026533179539,143.97085382244575,0,-35.68547058105469,35.68547058105469,-28.188522338867188
0.1718544214963913,0.03946547582745552,9.575179100036621,-0.0011054818095324445,0.014905889471714633,0.007401666401305682,3.9300003051757812,2019-08-06 14:15:22:433,-179.38046647246958,144.68733454659704,0,-35.68547058105469,35.68547058105469,-28.188522338867188
0.14790692925453186,0.0011494798818603158,9.560811042785645,-3.9957173202045016e-05,0.015438651726893083,0.00047575672638364575,3.940001964569092,2019-08-06 14:15:22:443,-179.38380132155018,145.39347252382495,0,-35.68547058105469,35.68547058105469,-28.188522338867188
0.17424917221069336,0.02509697712957859,9.56320571899414,-0.0019046251923001184,0.01756970178790418,-0.0024544358396442778,3.9499950408935547,2019-08-06 14:15:22:453,-179.38510665007524,146.08366452725514,0,-35.68547058105469,35.68547058105469,-28.188522338867188
0.1455121785402298,0.0801762193441391,9.567995071411133,0.0015583297264341264,0.012508459843560263,0.001541281334268416,3.960017204284668,2019-08-06 14:15:22:463,-179.38701757313692,146.75151217817256,0,-34.78583526611328,34.78583526611328,-29.38803482055664
0.14072267711162567,0.013123228214681149,9.54165267944336,0.0010255674062370958,0.016770557884987856,0.00553699850818111,3.9701147079467773,2019-08-06 14:15:22:473,-179.39188665865484,147.41432441714312,0,-34.78583526611328,34.78583526611328,-29.38803482055664
0.1455121785402298,0.015517977997660637,9.548836708068848,-0.003502911957835466,0.013041222098738713,0.00047575672638364575,3.9800076484680176,2019-08-06 14:15:22:483,-179.3938322073911,148.06612150637707,0,-34.78583526611328,34.78583526611328,-29.38803482055664
0.18622292578220367,0.027491725981235504,9.594337463378906,0.0007591862786478714,0.021032655926415452,0.0018076624618576407,3.9900002479553223,2019-08-06 14:15:22:493,-179.39551757986308,148.70108959880503,0,-34.78583526611328,34.78583526611328,-29.38803482055664
0.1981966644525528,0.01072847843170166,9.596732139587402,0.0002264239747054862,0.015438651726893083,-0.0003233867214026093,3.999997138977051,2019-08-06 14:15:22:503,-179.3926106388568,149.32565965628132,0,-34.78583526611328,34.78583526611328,-29.38803482055664
0.15509118139743805,0.049044474959373474,9.55362606048584,0.0026238542367910244,0.012774840451000838,0.004471473997824211,4.010028600692749,2019-08-06 14:15:22:513,-179.3933531754157,149.93178591912232,0,-34.78583526611328,34.78583526611328,-29.38803482055664
0.16945967078208923,-0.003640019567683339,9.589548110961914,-0.0019046251923001184,0.01756970178790418,0.003405949227392988,4.0199785232543945,2019-08-06 14:15:22:523,-179.3950543748404,143.33464925856654,0,-34.78583526611328,34.78583526611328,-29.38803482055664
0.1646701693534851,0.05143922194838524,9.48417854309082,-0.0008391006169246387,0.019167987513142228,0.0026068058446253144,4.030003786087036,2019-08-06 14:15:22:533,-179.39804918037566,144.0622135902342,0,-34.78583526611328,34.78583526611328,-29.38803482055664
0.1646701693534851,0.03707072511315346,9.625469207763672,-0.003236530830246241,0.015971413982071532,-0.0005897678815011245,4.040000677108765,2019-08-06 14:15:22:543,-179.39945120486544,144.7783727996781,0,-34.78583526611328,34.78583526611328,-29.38803482055664
0.16945967078208923,0.041860222816467285,9.59194278717041,-0.0037692930854246903,0.015172271119452508,0.0031395680998037635,4.050023794174194,2019-08-06 14:15:22:553,-179.3997584406564,145.47992582773875,0,-34.78583526611328,34.78583526611328,-29.38803482055664
0.15988066792488098,0.049044474959373474,9.682943344116211,0.0004928051185493561,0.016770557884987856,-0.0003233867214026093,4.059997081756592,2019-08-06 14:15:22:563,-179.40223560844078,146.16424728468397,0,-34.78583526611328,34.78583526611328,-29.38803482055664
0.14311742782592773,0.0801762193441391,9.51291561126709,-0.005633960978549262,0.019167987513142228,-0.0027208169672335025,4.0699968338012695,2019-08-06 14:15:22:573,-179.4077149572676,146.83446800943264,0,-34.78583526611328,34.78583526611328,-29.38803482055664
0.1383279263973236,0.03707072511315346,9.618284225463867,-0.0019046251923001184,0.017036938492428433,-0.003786341477590401,4.080000877380371,2019-08-06 14:15:22:583,-179.41265158870735,147.49443196799407,0,-34.78583526611328,34.78583526611328,-29.38803482055664
0.18622292578220367,0.03707072511315346,9.551231384277344,-0.0005727194893354142,0.012774840451000838,0.0010085190140713856,4.090002536773682,2019-08-06 14:15:22:593,-179.40923340889412,148.14041739966302,0,-34.78583526611328,34.78583526611328,-29.38803482055664
0.1910124272108078,0.07778146862983704,9.517704963684082,-0.002703768575067792,0.016237795629809405,-0.003786341477590401,4.1000189781188965,2019-08-06 14:15:22:603,-179.40718674473044,148.76976516122724,0,-34.78583526611328,34.78583526611328,-29.38803482055664
0.14790692925453186,0.034675974398851395,9.575179100036621,-0.0037692930854246903,0.016770557884987856,-0.001655292456876604,4.109998464584351,2019-08-06 14:15:22:613,-179.41074089112112,149.39233211841065,0,-34.78583526611328,34.78583526611328,-29.38803482055664
0.19580191373825073,0.0538339726626873,9.587152481079102,-0.0019046251923001184,0.014905889471714633,-0.004585484860358075,4.120001316070557,2019-08-06 14:15:22:623,-179.40749789742148,149.9991207246577,0,-34.78583526611328,34.78583526611328,-29.38803482055664
0.16945967078208923,0.04664972424507141,9.560811042785645,-0.0024373874474785677,0.013840364961357736,0.0010085190140713856,4.129998683929443,2019-08-06 14:15:22:633,-179.40680869646474,150.59491535897757,0,-34.78583526611328,34.78583526611328,-29.38803482055664
0.14311742782592773,0.07299196720123291,9.567995071411133,-0.0008391006169246387,0.012774840451000838,-0.00431910373276885,4.139995336532593,2019-08-06 14:15:22:643,-179.40870392667077,151.17474629901426,0,-34.78583526611328,34.78583526611328,-29.38803482055664
0.15988066792488098,0.08736047148704529,9.572784423828125,-0.0003063383292368989,0.017036938492428433,-0.0003233867214026093,4.150018215179443,2019-08-06 14:15:22:653,-179.41098112530074,151.7409665306159,0,-34.78583526611328,34.78583526611328,-29.38803482055664
0.16945967078208923,0.04664972424507141,9.55362606048584,-0.0013718629371216693,0.014639508864274061,-0.005118247115536523,4.159998655319214,2019-08-06 14:15:22:663,-179.41064167498087,152.30132060690704,0,-34.78583526611328,34.78583526611328,-29.38803482055664
0.1646701693534851,0.03707072511315346,9.584757804870605,-0.0024373874474785677,0.012508459843560263,-0.0061837716258934215,4.170004367828369,2019-08-06 14:15:22:673,-179.4097709618211,152.85223155969297,0,-34.78583526611328,34.78583526611328,-29.38803482055664
0.1263541728258133,0.056228723376989365,9.625469207763672,-0.0024373874474785677,0.020233512023499125,-0.003786341477590401,4.179996728897095,2019-08-06 14:15:22:683,-179.41788630737508,153.3898604990678,0,-34.78583526611328,34.78583526611328,-29.38803482055664
0.1646701693534851,0.008333728648722172,9.572784423828125,-0.0024373874474785677,0.0183688436102259,-0.0024544358396442778,4.190014600753784,2019-08-06 14:15:22:693,-179.4201511029996,153.9224367312817,0,-34.78583526611328,34.78583526611328,-29.38803482055664
0.15748591721057892,0.013123228214681149,9.60391616821289,-3.9957173202045016e-05,0.015971413982071532,-0.0032535792224119516,4.1999969482421875,2019-08-06 14:15:22:703,-179.42191103028944,154.44244456270033,0,-34.78583526611328,34.78583526611328,-29.38803482055664
0.17424917221069336,0.0011494798818603158,9.567995071411133,-0.002970149702657017,0.016237795629809405,-0.00431910373276885,4.209997892379761,2019-08-06 14:15:22:713,-179.4217244403823,154.95512589590248,0,-35.08571243286133,35.08571243286133,-28.788278579711914
0.1981966644525528,-0.034771766513586044,9.476994514465332,-0.002970149702657017,0.013041222098738713,-5.7005565367755386e-05,4.220003843307495,2019-08-06 14:15:22:723,-179.41665538061145,148.2618965323453,0,-35.08571243286133,35.08571243286133,-28.788278579711914
0.10240668058395386,0.11609746515750885,9.508126258850098,-0.004035674213013915,0.0183688436102259,-0.001655292456876604,4.229999542236328,2019-08-06 14:15:22:733,-179.42629038236967,148.8849323276827,0,-35.08571243286133,35.08571243286133,-28.788278579711914
0.14790692925453186,-0.020403267815709114,9.599126815795898,0.0004928051185493561,0.012774840451000838,-0.004851865987947299,4.2400147914886475,2019-08-06 14:15:22:743,-179.4272932705893,142.30939222833402,0,-35.08571243286133,35.08571243286133,-28.788278579711914
0.1383279263973236,0.02509697712957859,9.658995628356934,-0.00723224826423326,0.012774840451000838,-0.0005897678815011245,4.250000238418579,2019-08-06 14:15:22:753,-179.4295003143069,143.06428194465312,0,-35.08571243286133,35.08571243286133,-28.788278579711914
0.10719618201255798,0.099334217607975,9.67336368560791,-0.00723224826423326,0.013840364961357736,-5.7005565367755386e-05,4.2600014209747314,2019-08-06 14:15:22:763,-179.43598453422229,143.79529087403228,0,-35.08571243286133,35.08571243286133,-28.788278579711914
0.14790692925453186,0.05862347409129143,9.589548110961914,0.001824710854023351,0.016237795629809405,-0.001655292456876604,4.270011901855469,2019-08-06 14:15:22:773,-179.4387189690557,144.51135420862389,0,-35.08571243286133,35.08571243286133,-28.788278579711914
0.13593317568302155,0.0011494798818603158,9.596732139587402,-0.0013718629371216693,0.015971413982071532,0.0026068058446253144,4.279995679855347,2019-08-06 14:15:22:783,-179.44266770169222,145.2217589182691,0,-35.08571243286133,35.08571243286133,-28.788278579711914
0.16706492006778717,0.0538339726626873,9.611100196838379,-0.004834817595781589,0.015172271119452508,-0.0019216735844658289,4.290020942687988,2019-08-06 14:15:22:793,-179.4424382107118,145.91362687316072,0,-35.08571243286133,35.08571243286133,-28.788278579711914
0.1191699281334877,0.07299196720123291,9.596732139587402,-0.0008391006169246387,0.017836082395344753,0.0007421378864821609,4.300000905990601,2019-08-06 14:15:22:803,-179.4493553410405,146.58710897243168,0,-35.08571243286133,35.08571243286133,-28.788278579711914
0.13353842496871948,0.01791272684931755,9.560811042785645,-0.0008391006169246387,0.01810246300278533,-0.004052722605179625,4.310011386871338,2019-08-06 14:15:22:813,-179.45453912460448,147.25369150469788,0,-35.08571243286133,35.08571243286133,-28.788278579711914
0.13114367425441742,0.07538671791553497,9.575179100036621,0.0007591862786478714,0.017836082395344753,-0.0027208169672335025,4.319997787475586,2019-08-06 14:15:22:823,-179.4597559378335,147.8991702057119,0,-35.08571243286133,35.08571243286133,-28.788278579711914
0.16227541863918304,0.03707072511315346,9.58236312866211,-0.0016382440647108938,0.017303320140166306,-0.0019216735844658289,4.330015420913696,2019-08-06 14:15:22:833,-179.4608897436738,148.53767518127427,0,-35.08571243286133,35.08571243286133,-28.788278579711914
0.10959093272686005,0.07059722393751144,9.594337463378906,0.002890235364380249,0.015438651726893083,-5.7005565367755386e-05,4.3399975299835205,2019-08-06 14:15:22:843,-179.46723661608024,149.1568699736478,0,-35.08571243286133,35.08571243286133,-28.788278579711914
0.12874892354011536,0.056228723376989365,9.54165267944336,0.0007591862786478714,0.01810246300278533,-0.005118247115536523,4.34999942779541,2019-08-06 14:15:22:853,-179.47259701157967,149.76655343713244,0,-35.08571243286133,35.08571243286133,-28.788278579711914
0.12156467884778976,0.0011494798818603158,9.608705520629883,-0.0013718629371216693,0.01756970178790418,-0.002987198094822727,4.3599982261657715,2019-08-06 14:15:22:863,-179.47851245506553,150.3718554902594,0,-35.08571243286133,35.08571243286133,-28.788278579711914
0.13353842496871948,0.09214996546506882,9.59194278717041,0.0020910919816125757,0.010377409782549165,-0.001655292456876604,4.370000600814819,2019-08-06 14:15:22:873,-179.47881815682877,150.95223546348353,0,-35.08571243286133,35.08571243286133,-28.788278579711914
0.19340716302394867,0.03707072511315346,9.546442031860352,-0.0011054818095324445,0.013840364961357736,-0.0003233867214026093,4.380015134811401,2019-08-06 14:15:22:883,-179.47381181077634,151.52936258808649,0,-35.08571243286133,35.08571243286133,-28.788278579711914
0.20298616588115692,-0.11140375584363937,9.532073974609375,-0.0013718629371216693,0.017303320140166306,0.003672330354982212,4.389993906021118,2019-08-06 14:15:22:893,-179.46963207677405,144.91293599542314,0,-35.08571243286133,35.08571243286133,-28.788278579711914
0.25327590107917786,0.04425497353076935,9.656600952148438,-0.0011054818095324445,0.024229229457486144,0.007934428656484131,4.400001287460327,2019-08-06 14:15:22:903,-179.46380566666554,145.6100469116448,0,-35.08571243286133,35.08571243286133,-28.788278579711914
0.21495991945266724,0.07538671791553497,9.63265323638916,-0.004302055340603139,0.015971413982071532,0.0028731869722145387,4.410003900527954,2019-08-06 14:15:22:913,-179.4579320971951,146.29129426331485,0,-35.08571243286133,35.08571243286133,-28.788278579711914
0.22214417159557343,-0.008429518900811672,9.572784423828125,-0.0016382440647108938,0.020499892630939702,0.012196526697911724,4.42125391960144,2019-08-06 14:15:22:924,-179.45513584944925,139.76751229567418,0,-35.08571243286133,35.08571243286133,-28.788278579711914
0.152696430683136,0.03946547582745552,9.60391616821289,0.006885952538292944,0.020233512023499125,0.010065477677197928,4.430024147033691,2019-08-06 14:15:22:933,-179.45777923980563,140.56406218582816,0,-35.08571243286133,35.08571243286133,-28.788278579711914
0.15030167996883392,-0.015613768249750137,9.647021293640137,-0.006965867136644035,0.01756970178790418,0.004471473997824211,4.440005779266357,2019-08-06 14:15:22:943,-179.4606188484004,134.1585397531988,0,-35.08571243286133,35.08571243286133,-28.788278579711914
0.13114367425441742,-0.08745625615119934,9.733232498168945,-0.0003063383292368989,0.013041222098738713,0.014593957366363397,4.45001220703125,2019-08-06 14:15:22:953,-179.46329489801857,127.88583722403496,0,-35.08571243286133,35.08571243286133,-28.788278579711914
0.059301186352968216,-0.03956126421689987,9.565600395202637,0.0012919485988449018,0.011709315940643939,0.020987105468802086,4.4600043296813965,2019-08-06 14:15:22:963,-179.47349466339952,121.73213485681795,0,-34.93577575683594,34.03614044189453,-28.038583755493164
0.10959093272686005,0.06101822108030319,9.60391616821289,-0.004834817595781589,0.0183688436102259,0.01992158095844519,4.470022678375244,2019-08-06 14:15:22:973,-179.48128222352747,122.89293143869851,0,-34.93577575683594,34.03614044189453,-28.038583755493164
0.22932840883731842,0.2430191934108734,9.508126258850098,0.010615288324542088,0.021032655926415452,0.024450059607313356,4.4799981117248535,2019-08-06 14:15:22:983,-179.47580416306943,123.99984478170485,0,-34.93577575683594,34.03614044189453,-28.038583755493164
0.2628549039363861,0.05143922194838524,9.58236312866211,-0.006965867136644035,0.012508459843560263,0.013794813463447072,4.490000247955322,2019-08-06 14:15:22:993,-179.46188720186896,125.11760869958955,0,-34.93577575683594,34.03614044189453,-28.038583755493164
0.41611889004707336,0.022702226415276527,9.462625503540039,0.0023574731092018,0.015172271119452508,0.005270617380591885,4.500005722045898,2019-08-06 14:15:23:003,-179.43081414568758,126.21118286874817,0,-34.93577575683594,34.03614044189453,-28.038583755493164
0.1910124272108078,0.03707072511315346,9.424309730529785,0.006885952538292944,0.016237795629809405,0.0026068058446253144,4.510001182556152,2019-08-06 14:15:23:013,-179.42808892343868,127.2785870531812,0,-34.93577575683594,34.03614044189453,-28.038583755493164
0.03535369038581848,0.08736047148704529,9.635047912597656,-0.0008391006169246387,0.020233512023499125,0.003405949227392988,4.520016670227051,2019-08-06 14:15:23:023,-179.44670116362047,128.32309752413653,0,-34.93577575683594,34.03614044189453,-28.038583755493164
0.16706492006778717,0.005938979331403971,9.740416526794434,-0.006965867136644035,0.005316168358353898,0.001541281334268416,4.529998540878296,2019-08-06 14:15:23:033,-179.44109425091384,129.35984111384334,0,-34.93577575683594,34.03614044189453,-28.038583755493164
0.059301186352968216,0.06580772250890732,9.596732139587402,0.0010255674062370958,0.012242078195822388,-5.7005565367755386e-05,4.539999485015869,2019-08-06 14:15:23:043,-179.45206604717868,130.36421061256596,0,-34.93577575683594,34.03614044189453,-28.038583755493164
