ACCELEROMETER X (m/s²),ACCELEROMETER Y (m/s²),ACCELEROMETER Z (m/s²),GYROSCOPE X (rad/s),GYROSCOPE Y (rad/s),GYROSCOPE Z (rad/s),Time since start in ms ,YYYY-MO-DD HH-MI-SS_SSS,Pitch (Deg),Roll (Deg),Heading (Deg),MagX,MagY,MagZ
0.12409832328557968,0.08837105333805084,9.70863151550293,-0.00015716488153228781,-0.004304985598025202,0.004754637201470138,0.0,2019-07-26 14:28:20:485,-3.5853533982560637,3.5895697997160463,0,-49.629791259765625,26.539194107055664,-30.437606811523438
0.11212457716464996,0.03808131068944931,9.792448043823242,0.002240265413062541,-0.0005756496817388956,0.004754637201470138,0.009952545166015625,2019-07-26 14:28:20:495,-7.100204354965831,7.1120702016883275,0,-50.979244232177734,27.288888931274414,-30.287668228149414
0.1288878172636032,0.03808131068944931,9.754131317138672,-0.0009563083130638975,-0.0024403177049006305,0.0050210183290593634,0.019954204559326172,2019-07-26 14:28:20:505,-10.541688942597212,10.565892081975685,0,-50.979244232177734,27.288888931274414,-30.287668228149414
0.11451932787895203,0.0021600641775876284,9.730184555053711,0.004104933306187114,-0.0003092685216403804,0.0050210183290593634,0.029959440231323242,2019-07-26 14:28:20:515,-13.917195197449422,13.95201373016931,0,-50.979244232177734,27.288888931274414,-30.287668228149414
0.10254557430744171,0.03808131068944931,9.794842720031738,-0.0012226895056717034,-0.002973079960079079,0.007418448477362384,0.039957523345947266,2019-07-26 14:28:20:525,-17.225185687345657,17.269204686505425,0,-50.979244232177734,27.288888931274414,-30.287668228149414
0.11930882185697556,0.05963405594229698,9.816394805908203,-0.002820976271207051,-0.0035058422152575287,0.007418448477362384,0.04997849464416504,2019-07-26 14:28:20:535,-20.464782505406944,20.518446600665463,0,-50.979244232177734,27.288888931274414,-30.287668228149414
0.1097298264503479,0.026107560843229294,9.847526550292969,-0.0004235460253761578,-0.002973079960079079,0.011147784263611528,0.06006765365600586,2019-07-26 14:28:20:545,-23.64103431713482,23.705279588711377,0,-50.979244232177734,27.288888931274414,-30.287668228149414
0.11691407114267349,0.08837105333805084,9.766105651855469,-0.0038865007815639487,0.0004898749261458747,0.013278833284325326,0.06993722915649414,2019-07-26 14:28:20:555,-26.754767535404824,26.822958978486703,0,-50.979244232177734,27.288888931274414,-30.287668228149414
0.090571828186512,0.10992380231618881,9.806816101074219,0.001174740902705643,-0.0008420308093281202,0.016209026207955446,0.07996368408203125,2019-07-26 14:28:20:565,-29.808615217922164,29.872994501929572,0,-50.979244232177734,27.288888931274414,-30.287668228149414
0.07620333135128021,0.10513430088758469,9.797237396240234,-0.004952025291920847,-0.0011084119369173448,0.011680546518789978,0.08996081352233887,2019-07-26 14:28:20:575,-32.802907919702506,32.8660180038378,0,-50.979244232177734,27.288888931274414,-30.287668228149414
0.07380858063697815,0.12189754843711853,9.797237396240234,0.001174740902705643,-0.0035058422152575287,0.014344357794682223,0.09997987747192383,2019-07-26 14:28:20:585,-35.73624476329667,35.793779987204424,0,-50.979244232177734,27.288888931274414,-30.287668228149414
0.09296657890081406,0.15302929282188416,9.814000129699707,0.002506646540651766,-0.0008420308093281202,0.011680546518789978,0.10997557640075684,2019-07-26 14:28:20:595,-38.61019250716554,38.65863074836948,0,-50.979244232177734,27.288888931274414,-30.287668228149414
0.06901907920837402,0.12668704986572266,9.837947845458984,-0.001489070633260928,-0.0013747930645065694,0.01008225975325463,0.11996340751647949,2019-07-26 14:28:20:605,-41.42917850165872,41.47153764552365,0,-50.979244232177734,27.288888931274414,-30.287668228149414
0.07141382992267609,0.1961347907781601,9.864290237426758,-0.002554595143617826,-0.003239461087668304,0.009283116890635608,0.1299881935119629,2019-07-26 14:28:20:615,-44.190475608088704,44.22076325077729,0,-50.979244232177734,27.288888931274414,-30.287668228149414
0.07141382992267609,0.14105553925037384,9.758920669555664,-0.0004235460253761578,-0.0013747930645065694,0.005820161711827037,0.13997650146484375,2019-07-26 14:28:20:625,-46.897509622596004,46.92002360584576,0,-50.979244232177734,27.288888931274414,-30.287668228149414
0.0378873348236084,0.1626082956790924,9.837947845458984,-0.0009563083130638975,-0.005104129240867201,0.005287399456648588,0.14995622634887695,2019-07-26 14:28:20:635,-49.55228621737081,49.56322026283578,0,-50.979244232177734,27.288888931274414,-30.287668228149414
0.03309783712029457,0.14584504067897797,9.89781665802002,-0.0038865007815639487,-0.0035058422152575287,0.005553780584237813,0.1599874496459961,2019-07-26 14:28:20:645,-52.155433947015794,52.1572610094385,0,-50.979244232177734,27.288888931274414,-30.287668228149414
0.049861084669828415,0.15781879425048828,9.79005241394043,-0.002554595143617826,0.002620923979368962,0.0023572067930927925,0.17001938819885254,2019-07-26 14:28:20:655,-54.70796547520411,54.697083844146626,0,-50.979244232177734,27.288888931274414,-30.287668228149414
0.04028208553791046,0.19374004006385803,9.8187894821167,0.002240265413062541,-0.0008420308093281202,-0.0024376537635875752,0.17998719215393066,2019-07-26 14:28:20:665,-57.20863373788828,57.17928054197674,0,-50.979244232177734,27.288888931274414,-30.287668228149414
0.07859808206558228,0.18416103720664978,9.845131874084473,-0.002554595143617826,0.0004898749261458747,-0.0005729858704630034,0.18998456001281738,2019-07-26 14:28:20:675,-59.655587893555314,59.61569619058355,0,-50.979244232177734,27.288888931274414,-30.287668228149414
0.09296657890081406,0.12189754843711853,9.761316299438477,-0.004952025291920847,0.002620923979368962,-0.0008393669980522279,0.19997119903564453,2019-07-26 14:28:20:685,-62.05303246773938,62.01184986476909,0,-50.979244232177734,27.288888931274414,-30.287668228149414
0.07141382992267609,0.11950279772281647,9.797237396240234,-0.002554595143617826,-0.005104129240867201,-0.004568702784301372,0.20996475219726562,2019-07-26 14:28:20:695,-64.400755066972,64.35906961582535,0,-50.979244232177734,27.288888931274414,-30.287668228149414
0.07620333135128021,0.08597630262374878,9.814000129699707,0.0027730276682409903,0.001289018341422839,-0.0024376537635875752,0.21996712684631348,2019-07-26 14:28:20:705,-66.70456634166138,66.66029217768512,0,-50.979244232177734,27.288888931274414,-30.287668228149414
0.13367731869220734,0.10034479945898056,9.797237396240234,0.0003755974224100973,0.00075625608624439,-0.003503178534018799,0.2299511432647705,2019-07-26 14:28:20:715,-68.95526462489686,68.91513954192769,0,-50.979244232177734,27.288888931274414,-30.287668228149414
0.1097298264503479,0.0907658040523529,9.787657737731934,-0.0004235460253761578,0.0015553994690120636,-0.0027040348911768,0.23996925354003906,2019-07-26 14:28:20:725,-71.16418790095175,71.1264486633665,0,-50.979244232177734,27.288888931274414,-30.287668228149414
0.090571828186512,0.07879205793142319,9.775684356689453,-0.000689927185474673,0.0018217805966012882,-0.001372129253230677,0.24995732307434082,2019-07-26 14:28:20:735,-73.33130923248473,73.29507073650969,0,-50.979244232177734,27.288888931274414,-30.287668228149414
0.11930882185697556,0.08118680119514465,9.768500328063965,0.001973884285473317,0.001289018341422839,0.0007589198975202821,0.2599961757659912,2019-07-26 14:28:20:745,-75.45141455194886,75.41853310381303,0,-49.92966842651367,26.239316940307617,-29.83785057067871
0.1360720694065094,0.06442355364561081,9.758920669555664,0.0009083597100978372,0.0023545428517797373,0.0028899690482712416,0.27008962631225586,2019-07-26 14:28:20:755,-77.52774381886319,77.5020829761755,0,-49.92966842651367,26.239316940307617,-29.83785057067871
0.12409832328557968,0.07879205793142319,9.742157936096191,0.0017075031578840923,-0.0005756496817388956,0.0023572067930927925,0.27998828887939453,2019-07-26 14:28:20:765,-79.56227278871415,79.5418246044395,0,-49.92966842651367,26.239316940307617,-29.83785057067871
0.1432563215494156,0.08358155190944672,9.746947288513184,0.0014411220302948675,-0.0008420308093281202,0.002623587920682017,0.28997325897216797,2019-07-26 14:28:20:775,-81.55371429631045,81.54035398128191,0,-49.92966842651367,26.239316940307617,-29.83785057067871
0.14086157083511353,0.07639730721712112,9.84034252166748,-0.0017554517608501525,0.0004898749261458747,0.0015580632802879558,0.30004286766052246,2019-07-26 14:28:20:785,-83.50651466925085,83.50164309915178,0,-49.92966842651367,26.239316940307617,-29.83785057067871
0.1097298264503479,0.10992380231618881,9.825974464416504,-0.001489070633260928,-0.0003092685216403804,-0.0024376537635875752,0.30999279022216797,2019-07-26 14:28:20:795,-85.42341531450617,85.41962326530708,0,-49.92966842651367,26.239316940307617,-29.83785057067871
0.1097298264503479,0.11471329629421234,9.809210777282715,-0.002021832888439377,-0.0011084119369173448,-4.022355432963424e-05,0.3200981616973877,2019-07-26 14:28:20:805,-87.3014999345952,87.2989777804071,0,-49.92966842651367,26.239316940307617,-29.83785057067871
0.11930882185697556,0.07639730721712112,9.797237396240234,0.002240265413062541,-0.0013747930645065694,-0.001372129253230677,0.3300039768218994,2019-07-26 14:28:20:815,-89.1407512180633,89.14281667901817,0,-49.92966842651367,26.239316940307617,-29.83785057067871
0.1288878172636032,0.10513430088758469,9.890632629394531,-0.0012226895056717034,0.001289018341422839,-0.004302321916786473,0.3401036262512207,2019-07-26 14:28:20:825,-90.94373526165843,90.94847346319825,0,-49.92966842651367,26.239316940307617,-29.83785057067871
0.11930882185697556,0.1434502899646759,9.859500885009766,-0.0017554517608501525,-0.0008420308093281202,-0.0037695596616080236,0.3499915599822998,2019-07-26 14:28:20:835,-92.7105271240084,92.71380736915508,0,-49.92966842651367,26.239316940307617,-29.83785057067871
0.08099283277988434,0.14105553925037384,9.825974464416504,0.0014411220302948675,-0.0019075553196850185,-0.00616699006998537,0.35996389389038086,2019-07-26 14:28:20:845,-94.44580319872574,94.44227535529575,0,-49.92966842651367,26.239316940307617,-29.83785057067871
0.1097298264503479,0.17458204925060272,9.792448043823242,0.003838552178597889,-0.0008420308093281202,-0.0029704160187660244,0.3699634075164795,2019-07-26 14:28:20:855,-96.14357427449924,96.13084712467992,0,-49.92966842651367,26.239316940307617,-29.83785057067871
0.08578232675790787,0.1242922991514206,9.794842720031738,0.0003755974224100973,0.00075625608624439,-0.0029704160187660244,0.37997889518737793,2019-07-26 14:28:20:865,-97.81109251723967,97.79347856749142,0,-49.92966842651367,26.239316940307617,-29.83785057067871
0.09296657890081406,0.13147655129432678,9.797237396240234,-0.001489070633260928,-0.002173936447274243,-0.0048350839118905965,0.38996458053588867,2019-07-26 14:28:20:875,-99.44277841579492,99.42306692396262,0,-49.92966842651367,26.239316940307617,-29.83785057067871
0.09296657890081406,0.07879205793142319,9.804421424865723,0.0014411220302948675,-4.288736560552649e-05,-0.008031657963109942,0.3999650478363037,2019-07-26 14:28:20:885,-101.04303339585819,101.0245875445254,0,-49.92966842651367,26.239316940307617,-29.83785057067871
0.11691407114267349,0.11950279772281647,9.754131317138672,-0.004152881909153174,-0.0005756496817388956,-0.0029704160187660244,0.4099574089050293,2019-07-26 14:28:20:895,-102.60811533804761,102.59238736060745,0,-49.92966842651367,26.239316940307617,-29.83785057067871
0.11451932787895203,0.09316055476665497,9.785263061523438,0.0009083597100978372,-0.0008420308093281202,0.0039554935586281394,0.4199821949005127,2019-07-26 14:28:20:905,-104.14206874194633,104.12911895162789,0,-49.92966842651367,26.239316940307617,-29.83785057067871
0.13128256797790527,0.1171080470085144,9.773289680480957,0.0017075031578840923,0.00075625608624439,-0.0008393669980522279,0.42995524406433105,2019-07-26 14:28:20:915,-105.64425893932945,105.63185016587605,0,-49.92966842651367,26.239316940307617,-29.83785057067871
0.11212457716464996,0.10513430088758469,9.797237396240234,-0.0012226895056717034,0.0004898749261458747,-0.0008393669980522279,0.4399590492248535,2019-07-26 14:28:20:925,-107.1185350598892,107.10760359695011,0,-49.92966842651367,26.239316940307617,-29.83785057067871
0.11212457716464996,0.10513430088758469,9.77807903289795,0.0009083597100978372,-0.002706698832489855,0.0004925387374217668,0.4499683380126953,2019-07-26 14:28:20:935,-108.56150357785205,108.55262055252965,0,-49.92966842651367,26.239316940307617,-29.83785057067871
0.0833875760436058,0.08597630262374878,9.727788925170898,0.0027730276682409903,-0.0035058422152575287,0.0018244444078771805,0.4599480628967285,2019-07-26 14:28:20:945,-109.97848630982773,109.96988666100691,0,-49.92966842651367,26.239316940307617,-29.83785057067871
0.0378873348236084,0.08597630262374878,9.821184158325195,0.0009083597100978372,-0.0008420308093281202,0.002623587920682017,0.4699692726135254,2019-07-26 14:28:20:955,-111.37402218722409,111.35994652115048,0,-49.92966842651367,26.239316940307617,-29.83785057067871
0.04028208553791046,0.11471329629421234,9.797237396240234,-0.0012226895056717034,0.005817498030588307,0.0039554935586281394,0.47995662689208984,2019-07-26 14:28:20:965,-112.74509263754206,112.72001664749185,0,-49.92966842651367,26.239316940307617,-29.83785057067871
0.07620333135128021,0.07639730721712112,9.761316299438477,-0.0012226895056717034,0.00022349378230200473,0.005553780584237813,0.4899575710296631,2019-07-26 14:28:20:975,-114.08137069009453,114.05733454973027,0,-49.92966842651367,26.239316940307617,-29.83785057067871
0.01393983792513609,0.13147655129432678,9.79005241394043,0.0006419785825086126,0.001289018341422839,-0.009896326376383165,0.49996280670166016,2019-07-26 14:28:20:985,-115.39883579466192,115.36043892954268,0,-49.92966842651367,26.239316940307617,-29.83785057067871
0.07141382992267609,0.12189754843711853,9.804421424865723,0.0009083597100978372,0.00075625608624439,-0.0019048915084091261,0.5099546909332275,2019-07-26 14:28:20:995,-116.68293685351934,116.63847418384584,0,-50.52942657470703,26.83907127380371,-28.938217163085938
0.06901907920837402,0.15781879425048828,9.787657737731934,0.004637695821439887,-0.002173936447274243,-0.0024376537635875752,0.5199811458587646,2019-07-26 14:28:21:005,-117.93997376982978,117.88461830481668,0,-50.52942657470703,26.83907127380371,-28.938217163085938
0.057045333087444305,0.1626082956790924,9.794842720031738,-0.0012226895056717034,-4.288736560552649e-05,-0.005634227814806921,0.5299620628356934,2019-07-26 14:28:21:015,-119.17447650246604,119.10858908875583,0,-50.52942657470703,26.83907127380371,-28.938217163085938
0.06901907920837402,0.1171080470085144,9.835553169250488,0.003039408795830215,-0.0024403177049006305,-0.005101465039479822,0.5400004386901855,2019-07-26 14:28:21:025,-120.38157037141396,120.31106081411279,0,-50.52942657470703,26.83907127380371,-28.938217163085938
0.07380858063697815,0.14823979139328003,9.7373685836792,-0.0004235460253761578,-0.0003092685216403804,-0.00616699006998537,0.550100564956665,2019-07-26 14:28:21:035,-121.56507777679906,121.48763595267475,0,-50.52942657470703,26.83907127380371,-28.938217163085938
0.0833875760436058,0.19134528934955597,9.739763259887695,0.001174740902705643,-0.002173936447274243,-0.0019048915084091261,0.5599687099456787,2019-07-26 14:28:21:045,-122.72276106757073,122.63472280051027,0,-50.52942657470703,26.83907127380371,-28.938217163085938
0.0833875760436058,0.16739779710769653,9.751736640930176,-0.0009563083130638975,-0.002173936447274243,-0.0027040348911768,0.5699741840362549,2019-07-26 14:28:21:055,-123.85728597433092,123.76289680942304,0,-50.52942657470703,26.83907127380371,-28.938217163085938
0.11691407114267349,0.13147655129432678,9.782868385314941,0.0003755974224100973,-0.004038604470435978,-0.0019048915084091261,0.5799953937530518,2019-07-26 14:28:21:065,-124.96417370480539,124.87202795913964,0,-50.52942657470703,26.83907127380371,-28.938217163085938
0.06662432849407196,0.10992380231618881,9.837947845458984,-0.000689927185474673,-0.0003092685216403804,-0.004568702784301372,0.5899715423583984,2019-07-26 14:28:21:075,-126.05695676596352,125.96217057325742,0,-50.52942657470703,26.83907127380371,-28.938217163085938
0.06662432849407196,0.11471329629421234,9.77807903289795,-0.0009563083130638975,-0.004304985598025202,-0.001372129253230677,0.5999948978424072,2019-07-26 14:28:21:085,-127.12558700390449,127.03002248316751,0,-50.52942657470703,26.83907127380371,-28.938217163085938
0.07859808206558228,0.14584504067897797,9.821184158325195,0.003039408795830215,-0.002173936447274243,-0.0027040348911768,0.6101133823394775,2019-07-26 14:28:21:095,-128.17266967155072,128.07067953975374,0,-50.52942657470703,26.83907127380371,-28.938217163085938
0.035492584109306335,0.1362660527229309,9.785263061523438,0.001973884285473317,0.00022349378230200473,-0.0048350839118905965,0.6199676990509033,2019-07-26 14:28:21:105,-129.20518355570928,129.09221718536386,0,-50.52942657470703,26.83907127380371,-28.938217163085938
0.06662432849407196,0.12668704986572266,9.816394805908203,0.0027730276682409903,0.00075625608624439,0.0023572067930927925,0.6299896240234375,2019-07-26 14:28:21:115,-130.2137281893365,130.09402440099777,0,-50.52942657470703,26.83907127380371,-28.938217163085938
0.06662432849407196,0.15781879425048828,9.861895561218262,-0.000689927185474673,0.003153686234547411,-0.0032367971463552496,0.639955997467041,2019-07-26 14:28:21:125,-131.20347708007924,131.07419361164412,0,-50.52942657470703,26.83907127380371,-28.938217163085938
0.11930882185697556,0.10034479945898056,9.823579788208008,0.0027730276682409903,0.0004898749261458747,-4.022355432963424e-05,0.6499631404876709,2019-07-26 14:28:21:135,-132.165766169849,132.03944681315892,0,-50.52942657470703,26.83907127380371,-28.938217163085938
0.08817707747220993,0.13147655129432678,9.814000129699707,-0.0017554517608501525,-0.002173936447274243,0.0015580632802879558,0.6599743366241455,2019-07-26 14:28:21:145,-133.1109332429809,132.9842939392145,0,-50.52942657470703,26.83907127380371,-28.938217163085938
0.09296657890081406,0.1171080470085144,9.837947845458984,0.0075678882249213585,0.0010226372138336143,0.0028899690482712416,0.6699614524841309,2019-07-26 14:28:21:155,-134.03845970393633,133.90672417740998,0,-50.52942657470703,26.83907127380371,-28.938217163085938
0.11691407114267349,0.12908180058002472,9.785263061523438,-0.0004235460253761578,0.0004898749261458747,0.004221874686217364,0.6799609661102295,2019-07-26 14:28:21:165,-134.94427484205605,134.8137120922412,0,-50.52942657470703,26.83907127380371,-28.938217163085938
0.10254557430744171,0.10513430088758469,9.792448043823242,0.002506646540651766,0.00022349378230200473,0.003156350175860466,0.6899652481079102,2019-07-26 14:28:21:175,-135.83351541114223,135.70372739022963,0,-50.52942657470703,26.83907127380371,-28.938217163085938
0.13367731869220734,0.06681830435991287,9.787657737731934,0.00010921627043890474,0.0010226372138336143,0.0015580632802879558,0.6999824047088623,2019-07-26 14:28:21:185,-136.7017706493005,136.58176860647137,0,-50.52942657470703,26.83907127380371,-28.938217163085938
0.090571828186512,0.10752905160188675,9.773289680480957,0.0014411220302948675,0.0004898749261458747,0.005553780584237813,0.7099552154541016,2019-07-26 14:28:21:195,-137.5573903340045,137.4367190026754,0,-50.52942657470703,26.83907127380371,-28.938217163085938
0.06901907920837402,0.06921305507421494,9.794842720031738,0.001973884285473317,-0.003239461087668304,0.0076848296049516086,0.7199609279632568,2019-07-26 14:28:21:205,-138.39634800744543,138.27877843589522,0,-50.52942657470703,26.83907127380371,-28.938217163085938
0.1097298264503479,0.10273955017328262,9.787657737731934,-0.0004235460253761578,-0.003239461087668304,0.00715206734977316,0.7299673557281494,2019-07-26 14:28:21:215,-139.2137545573219,139.10141278117,0,-50.52942657470703,26.83907127380371,-28.938217163085938
0.04746633395552635,0.09316055476665497,9.758920669555664,-0.001489070633260928,-0.0019075553196850185,0.0050210183290593634,0.7399494647979736,2019-07-26 14:28:21:225,-140.02283672727842,139.90928033997716,0,-50.52942657470703,26.83907127380371,-28.938217163085938
0.08578232675790787,0.07400255650281906,9.782868385314941,-0.0036201196539747244,0.003153686234547411,0.008217591860130057,0.7499594688415527,2019-07-26 14:28:21:235,-140.814104705562,140.70446134010825,0,-50.52942657470703,26.83907127380371,-28.938217163085938
0.07141382992267609,0.10273955017328262,9.7373685836792,-0.0009563083130638975,-0.004038604470435978,-0.0005729858704630034,0.7599568367004395,2019-07-26 14:28:21:245,-141.58715154683458,141.47881876344633,0,-50.82930374145508,25.63956069946289,-29.238094329833984
0.05225583165884018,0.0907658040523529,9.77807903289795,0.0003755974224100973,-0.0056368914960456505,0.005553780584237813,0.7699565887451172,2019-07-26 14:28:21:255,-142.34611956457272,142.23839474795494,0,-50.82930374145508,25.63956069946289,-29.238094329833984
0.07380858063697815,0.1171080470085144,9.825974464416504,-0.0004235460253761578,-0.0035058422152575287,0.006352923967005486,0.7799618244171143,2019-07-26 14:28:21:265,-143.08862014372244,142.9802081796496,0,-50.82930374145508,25.63956069946289,-29.238094329833984
0.06662432849407196,0.11231855303049088,9.79005241394043,0.001973884285473317,0.004751973000082759,0.003689112431038915,0.7899572849273682,2019-07-26 14:28:21:275,-143.82171656707257,143.7063499912138,0,-50.82930374145508,25.63956069946289,-29.238094329833984
0.07859808206558228,0.10273955017328262,9.792448043823242,0.00010921627043890474,-0.0016411741920957937,0.0034227313034496903,0.7999727725982666,2019-07-26 14:28:21:285,-144.53516191473219,144.42013939573377,0,-50.82930374145508,25.63956069946289,-29.238094329833984
0.016334587708115578,0.15302929282188416,9.828369140625,0.0017075031578840923,-0.0005756496817388956,0.0004925387374217668,0.810049295425415,2019-07-26 14:28:21:295,-145.24222848541154,145.11292986144576,0,-50.82930374145508,25.63956069946289,-29.238094329833984
0.07620333135128021,0.17937153577804565,9.8187894821167,0.001174740902705643,-0.0037722233428467535,0.0007589198975202821,0.8199503421783447,2019-07-26 14:28:21:305,-145.9263935386458,145.7890866976437,0,-50.82930374145508,25.63956069946289,-29.238094329833984
0.03309783712029457,0.17218729853630066,9.794842720031738,-0.0030873573987962753,0.00395282987738941,-0.001372129253230677,0.8299961090087891,2019-07-26 14:28:21:315,-146.60622317598708,146.4549040294368,0,-50.82930374145508,25.63956069946289,-29.238094329833984
0.06901907920837402,0.14823979139328003,9.806816101074219,0.004637695821439887,0.0004898749261458747,-0.0032367971463552496,0.840097188949585,2019-07-26 14:28:21:325,-147.26631188717252,147.1058552309505,0,-50.82930374145508,25.63956069946289,-29.238094329833984
0.08099283277988434,0.15302929282188416,9.787657737731934,0.002240265413062541,-0.002706698832489855,-0.002171272635998351,0.84995436668396,2019-07-26 14:28:21:335,-147.91000531697392,147.74458334162463,0,-50.82930374145508,25.63956069946289,-29.238094329833984
0.09296657890081406,0.1626082956790924,9.84034252166748,0.0014411220302948675,-0.0035058422152575287,-0.00030660471036448813,0.8599989414215088,2019-07-26 14:28:21:345,-148.53900220153278,148.36994473975446,0,-50.82930374145508,25.63956069946289,-29.238094329833984
0.10254557430744171,0.14584504067897797,9.845131874084473,0.0014411220302948675,-0.0005756496817388956,-0.003503178534018799,0.8699643611907959,2019-07-26 14:28:21:355,-149.1559647770915,148.98476518961508,0,-50.82930374145508,25.63956069946289,-29.238094329833984
0.1097298264503479,0.1434502899646759,9.806816101074219,-0.0012226895056717034,0.0018217805966012882,-0.006966133452753044,0.8799779415130615,2019-07-26 14:28:21:365,-149.76104852450504,149.5889965446464,0,-50.82930374145508,25.63956069946289,-29.238094329833984
0.07141382992267609,0.12668704986572266,9.754131317138672,0.0006419785825086126,-0.004304985598025202,-0.0011057481256414525,0.8900108337402344,2019-07-26 14:28:21:375,-150.35501281098698,150.1819725970041,0,-50.82930374145508,25.63956069946289,-29.238094329833984
0.11691407114267349,0.14105553925037384,9.782868385314941,-0.001489070633260928,-0.0016411741920957937,-0.004568702784301372,0.8999617099761963,2019-07-26 14:28:21:385,-150.9333014950718,150.76264376323167,0,-50.82930374145508,25.63956069946289,-29.238094329833984
0.14565107226371765,0.07639730721712112,9.794842720031738,0.0027730276682409903,-0.002706698832489855,0.0004925387374217668,0.9099643230438232,2019-07-26 14:28:21:395,-151.4960765452771,151.33689575797555,0,-50.82930374145508,25.63956069946289,-29.238094329833984
0.12649306654930115,0.09555530548095703,9.773289680480957,0.0009083597100978372,-0.002173936447274243,-0.007498895707931493,0.9199638366699219,2019-07-26 14:28:21:405,-152.05010396137052,151.8984443479612,0,-50.82930374145508,25.63956069946289,-29.238094329833984
0.16720381379127502,0.07879205793142319,9.792448043823242,0.001973884285473317,-0.0024403177049006305,0.0004925387374217668,0.9299919605255127,2019-07-26 14:28:21:415,-152.5881634476285,152.45014393623725,0,-50.82930374145508,25.63956069946289,-29.238094329833984
0.1432563215494156,0.08358155190944672,9.768500328063965,0.0009083597100978372,-0.0016411741920957937,0.010348641400992505,0.9399802684783936,2019-07-26 14:28:21:425,-153.11867594317974,152.99082713110158,0,-50.82930374145508,25.63956069946289,-29.238094329833984
0.13846682012081146,0.10273955017328262,9.804421424865723,-0.0017554517608501525,0.0018217805966012882,0.006619305094594711,0.9499647617340088,2019-07-26 14:28:21:435,-153.64114119502398,153.51998724856674,0,-50.82930374145508,25.63956069946289,-29.238094329833984
0.15283532440662384,0.1362660527229309,9.766105651855469,-0.0030873573987962753,-0.0024403177049006305,0.0015580632802879558,0.9599616527557373,2019-07-26 14:28:21:445,-154.14901694306326,154.03533263808106,0,-50.82930374145508,25.63956069946289,-29.238094329833984
0.11451932787895203,0.1242922991514206,9.811605453491211,0.004104933306187114,-0.002973079960079079,0.0023572067930927925,0.9699664115905762,2019-07-26 14:28:21:455,-154.65099211212592,154.5378044223741,0,-50.82930374145508,25.63956069946289,-29.238094329833984
0.1097298264503479,0.11950279772281647,9.828369140625,0.001174740902705643,-0.003239461087668304,0.005287399456648588,0.9799561500549316,2019-07-26 14:28:21:465,-155.14336202384243,155.03245693423108,0,-50.82930374145508,25.63956069946289,-29.238094329833984
0.14086157083511353,0.09316055476665497,9.828369140625,-0.0009563083130638975,-0.0003092685216403804,0.002090825535466405,0.989980936050415,2019-07-26 14:28:21:475,-155.62389839982762,155.5214845817357,0,-50.82930374145508,25.63956069946289,-29.238094329833984
0.11212457716464996,0.12668704986572266,9.79963207244873,-0.0012226895056717034,0.00075625608624439,0.004221874686217364,0.999981164932251,2019-07-26 14:28:21:485,-156.09873441316563,155.99692817602724,0,-50.82930374145508,25.63956069946289,-29.238094329833984
0.10733507573604584,0.13866080343723297,9.758920669555664,0.0027730276682409903,-0.0016411741920957937,0.0010253010251095067,1.009962558746338,2019-07-26 14:28:21:495,-156.5632368916611,156.4591546737615,0,-49.17997741699219,25.189743041992188,-30.58754539489746
0.12409832328557968,0.13147655129432678,9.825974464416504,-0.0030873573987962753,-4.288736560552649e-05,-0.0011057481256414525,1.0199661254882812,2019-07-26 14:28:21:505,-157.0174763550377,156.9163737253228,0,-49.17997741699219,25.189743041992188,-30.58754539489746
0.06901907920837402,0.12908180058002472,9.825974464416504,-0.001489070633260928,-0.0024403177049006305,0.0012916821526987312,1.0299766063690186,2019-07-26 14:28:21:515,-157.46770621070513,157.3638304473027,0,-49.17997741699219,25.189743041992188,-30.58754539489746
0.08578232675790787,0.1506345421075821,9.79963207244873,-0.00015716488153228781,0.0034200676222109604,-0.0005729858704630034,1.0399706363677979,2019-07-26 14:28:21:525,-157.91024064156284,157.7990290379002,0,-49.17997741699219,25.189743041992188,-30.58754539489746
0.06901907920837402,0.13147655129432678,9.864290237426758,-0.002288214016028602,0.00075625608624439,-0.005367846167069046,1.0499582290649414,2019-07-26 14:28:21:535,-158.34444225602667,158.22905921878024,0,-49.17997741699219,25.189743041992188,-30.58754539489746
0.049861084669828415,0.10752905160188675,9.806816101074219,0.0014411220302948675,0.0004898749261458747,-0.00616699006998537,1.059969425201416,2019-07-26 14:28:21:545,-158.77200262070747,158.6511037933801,0,-49.17997741699219,25.189743041992188,-30.58754539489746
0.08099283277988434,0.06442355364561081,9.775684356689453,-0.0017554517608501525,-0.002173936447274243,-0.005634227814806921,1.069948673248291,2019-07-26 14:28:21:555,-159.18585059464272,159.0715136711211,0,-49.17997741699219,25.189743041992188,-30.58754539489746
0.04507158324122429,0.10273955017328262,9.86907958984375,0.0003755974224100973,0.0004898749261458747,-0.0048350839118905965,1.0799791812896729,2019-07-26 14:28:21:565,-159.59717618433646,159.47794302412308,0,-49.17997741699219,25.189743041992188,-30.58754539489746
0.07859808206558228,0.15302929282188416,9.804421424865723,-0.0030873573987962753,-0.0003092685216403804,-0.00962994472864529,1.089975357055664,2019-07-26 14:28:21:575,-159.99587292805978,159.87223282922847,0,-49.17997741699219,25.189743041992188,-30.58754539489746
0.07380858063697815,0.1171080470085144,9.837947845458984,-0.001489070633260928,0.002088161724190513,-0.0040359407891972475,1.0999627113342285,2019-07-26 14:28:21:585,-160.3885294889096,160.26198322744168,0,-49.17997741699219,25.189743041992188,-30.58754539489746
0.07620333135128021,0.10034479945898056,9.725394248962402,0.0003755974224100973,0.0010226372138336143,-0.0027040348911768,1.109959363937378,2019-07-26 14:28:21:595,-160.77235427790689,160.64470981277725,0,-49.17997741699219,25.189743041992188,-30.58754539489746
0.1097298264503479,0.1171080470085144,9.758920669555664,0.0014411220302948675,0.0023545428517797373,-0.0019048915084091261,1.1199536323547363,2019-07-26 14:28:21:605,-161.14534431391507,161.01725644787777,0,-49.17997741699219,25.189743041992188,-30.58754539489746
0.07380858063697815,0.07400255650281906,9.751736640930176,0.001174740902705643,-0.004837748113277977,-0.0016385103808199016,1.1299729347229004,2019-07-26 14:28:21:615,-161.5110427978046,161.3875546401359,0,-49.17997741699219,25.189743041992188,-30.58754539489746
0.07380858063697815,0.03089706040918827,9.727788925170898,0.003838552178597889,-0.0019075553196850185,-0.0011057481256414525,1.139955997467041,2019-07-26 14:28:21:625,-161.87105831845983,161.75401225158512,0,-49.17997741699219,25.189743041992188,-30.58754539489746
0.04746633395552635,0.09555530548095703,9.79963207244873,0.003838552178597889,-4.288736560552649e-05,-0.0011057481256414525,1.1499578952789307,2019-07-26 14:28:21:635,-162.22806265521334,162.1056028929204,0,-49.17997741699219,25.189743041992188,-30.58754539489746
0.07141382992267609,0.05963405594229698,9.758920669555664,-0.0012226895056717034,-0.002973079960079079,-0.005101465039479822,1.1599550247192383,2019-07-26 14:28:21:645,-162.5734470695057,162.45717489147634,0,-49.17997741699219,25.189743041992188,-30.58754539489746
0.0833875760436058,0.09316055476665497,9.854711532592773,0.0009083597100978372,-4.288736560552649e-05,-0.0024376537635875752,1.1699576377868652,2019-07-26 14:28:21:655,-162.91225788233496,162.7966887389878,0,-49.17997741699219,25.189743041992188,-30.58754539489746
0.04746633395552635,0.10273955017328262,9.792448043823242,0.001973884285473317,-0.0008420308093281202,-0.001372129253230677,1.1799793243408203,2019-07-26 14:28:21:665,-163.24798441720495,163.12762205138398,0,-49.17997741699219,25.189743041992188,-30.58754539489746
0.06662432849407196,0.08118680119514465,9.79005241394043,-0.0009563083130638975,0.00075625608624439,-0.00030660471036448813,1.1899802684783936,2019-07-26 14:28:21:675,-163.57565121680574,163.45610401291762,0,-49.17997741699219,25.189743041992188,-30.58754539489746
0.0378873348236084,0.12189754843711853,9.775684356689453,-0.0004235460253761578,0.00022349378230200473,0.004221874686217364,1.1999547481536865,2019-07-26 14:28:21:685,-163.8998221942618,163.77293093306514,0,-49.17997741699219,25.189743041992188,-30.58754539489746
0.0378873348236084,0.12668704986572266,9.859500885009766,0.0017075031578840923,-0.003239461087668304,-0.001372129253230677,1.209963083267212,2019-07-26 14:28:21:695,-164.21560186628017,164.0817894254104,0,-49.17997741699219,25.189743041992188,-30.58754539489746
0.10254557430744171,0.14823979139328003,9.814000129699707,0.0027730276682409903,-0.0005756496817388956,0.0004925387374217668,1.219965934753418,2019-07-26 14:28:21:705,-164.5189933806099,164.3812884823421,0,-49.17997741699219,25.189743041992188,-30.58754539489746
0.057045333087444305,0.1506345421075821,9.797237396240234,0.002240265413062541,-0.004304985598025202,-0.004302321916786473,1.2299559116363525,2019-07-26 14:28:21:715,-164.819526566737,164.67478876753472,0,-49.17997741699219,25.189743041992188,-30.58754539489746
0.07380858063697815,0.16500304639339447,9.825974464416504,-0.0004235460253761578,-0.0016411741920957937,-0.003503178534018799,1.2399418354034424,2019-07-26 14:28:21:725,-165.11360834220542,164.96228945566833,0,-49.17997741699219,25.189743041992188,-30.58754539489746
0.0642295852303505,0.14105553925037384,9.823579788208008,-0.0012226895056717034,0.0010226372138336143,-0.0011057481256414525,1.249946117401123,2019-07-26 14:28:21:735,-165.40441838892588,165.24727757272817,0,-49.17997741699219,25.189743041992188,-30.58754539489746
0.07859808206558228,0.16500304639339447,9.780473709106445,0.0003755974224100973,0.0010226372138336143,-0.005634227814806921,1.2599451541900635,2019-07-26 14:28:21:745,-165.68769553857626,165.5227906256626,0,-49.77973175048828,25.189743041992188,-29.687911987304688
0.11930882185697556,0.1506345421075821,9.833158493041992,0.0009083597100978372,0.005018354127671983,-0.00030660471036448813,1.2699456214904785,2019-07-26 14:28:21:755,-165.96285648445868,165.79427179351143,0,-49.77973175048828,25.189743041992188,-29.687911987304688
0.12409832328557968,0.12668704986572266,9.787657737731934,0.0014411220302948675,-0.003239461087668304,-0.0040359407891972475,1.2799561023712158,2019-07-26 14:28:21:765,-166.22725013855688,166.0627449324982,0,-49.77973175048828,25.189743041992188,-29.687911987304688
0.10733507573604584,0.17937153577804565,9.847526550292969,-0.0009563083130638975,-0.005104129240867201,-0.0040359407891972475,1.289968490600586,2019-07-26 14:28:21:775,-166.48734598326712,166.32115725535448,0,-49.77973175048828,25.189743041992188,-29.687911987304688
0.07859808206558228,0.15781879425048828,9.823579788208008,0.004371314693850663,0.0015553994690120636,-0.0005729858704630034,1.2999439239501953,2019-07-26 14:28:21:785,-166.74930204204787,166.5738777542444,0,-49.77973175048828,25.189743041992188,-29.687911987304688
0.0833875760436058,0.1434502899646759,9.859500885009766,0.004104933306187114,-0.004837748113277977,-0.006433371197574595,1.3099474906921387,2019-07-26 14:28:21:795,-167.00190719485036,166.82342320022659,0,-49.77973175048828,25.189743041992188,-29.687911987304688
0.08578232675790787,0.12189754843711853,9.802026748657227,0.002506646540651766,0.00022349378230200473,-0.006966133452753044,1.3199462890625,2019-07-26 14:28:21:805,-167.25196631594918,167.07129760834215,0,-49.77973175048828,25.189743041992188,-29.687911987304688
0.057045333087444305,0.09555530548095703,9.761316299438477,-0.0012226895056717034,-0.0016411741920957937,-0.0029704160187660244,1.3299455642700195,2019-07-26 14:28:21:815,-167.49930886131847,167.3193409265081,0,-49.77973175048828,25.189743041992188,-29.687911987304688
0.07620333135128021,0.1362660527229309,9.797237396240234,0.002240265413062541,-0.0035058422152575287,0.0015580632802879558,1.3399596214294434,2019-07-26 14:28:21:825,-167.73843859054853,167.55575735677752,0,-49.77973175048828,25.189743041992188,-29.687911987304688
0.09296657890081406,0.13147655129432678,9.811605453491211,-0.001489070633260928,0.0015553994690120636,-0.0005729858704630034,1.3499767780303955,2019-07-26 14:28:21:835,-167.97368725761964,167.7901252840807,0,-49.77973175048828,25.189743041992188,-29.687911987304688
0.09775608032941818,0.13387130200862885,9.780473709106445,-0.0033537385263855,-0.002706698832489855,0.0004925387374217668,1.3599543571472168,2019-07-26 14:28:21:845,-168.20124403857747,168.02051781052336,0,-49.77973175048828,25.189743041992188,-29.687911987304688
0.1097298264503479,0.09555530548095703,9.79963207244873,-0.00015716488153228781,0.0015553994690120636,0.0018244444078771805,1.3699417114257812,2019-07-26 14:28:21:855,-168.42526073614883,168.2490222278194,0,-49.77973175048828,25.189743041992188,-29.687911987304688
0.13367731869220734,0.11950279772281647,9.787657737731934,0.001174740902705643,-0.004038604470435978,0.002623587920682017,1.379957914352417,2019-07-26 14:28:21:865,-168.63883452804973,168.46939069211697,0,-49.77973175048828,25.189743041992188,-29.687911987304688
0.10254557430744171,0.10513430088758469,9.787657737731934,-0.00015716488153228781,-0.0035058422152575287,0.0023572067930927925,1.389967441558838,2019-07-26 14:28:21:875,-168.85208208474464,168.68778281074842,0,-49.77973175048828,25.189743041992188,-29.687911987304688
0.05944008380174637,0.13147655129432678,9.787657737731934,-0.002021832888439377,0.00022349378230200473,0.011147784263611528,1.399975299835205,2019-07-26 14:28:21:885,-169.06820701562998,168.89977126821748,0,-49.77973175048828,25.189743041992188,-29.687911987304688
0.09775608032941818,0.08837105333805084,9.816394805908203,-0.002288214016028602,0.001289018341422839,0.010615022008433079,1.4099462032318115,2019-07-26 14:28:21:895,-169.27615338509463,169.11274122856767,0,-49.77973175048828,25.189743041992188,-29.687911987304688
0.06901907920837402,0.12668704986572266,9.792448043823242,0.0006419785825086126,-0.0037722233428467535,0.01301245267688475,1.4199788570404053,2019-07-26 14:28:21:905,-169.48042880040828,169.31530062230425,0,-49.77973175048828,25.189743041992188,-29.687911987304688
0.07859808206558228,0.12908180058002472,9.825974464416504,0.004104933306187114,-0.004038604470435978,0.007418448477362384,1.4299626350402832,2019-07-26 14:28:21:915,-169.67939023568502,169.51164064345883,0,-49.77973175048828,25.189743041992188,-29.687911987304688
0.009150338359177113,0.18176628649234772,9.758920669555664,0.002240265413062541,0.004219211004978634,0.009815879145814057,1.4399447441101074,2019-07-26 14:28:21:925,-169.88709281960416,169.69881121464172,0,-49.77973175048828,25.189743041992188,-29.687911987304688
0.049861084669828415,0.15302929282188416,9.792448043823242,0.0014411220302948675,0.0015553994690120636,0.008217591860130057,1.4499702453613281,2019-07-26 14:28:21:935,-170.08439183445128,169.88611765655827,0,-49.77973175048828,25.189743041992188,-29.687911987304688
0.090571828186512,0.15542404353618622,9.84034252166748,-0.0036201196539747244,0.0034200676222109604,0.006352923967005486,1.4599459171295166,2019-07-26 14:28:21:945,-170.27407282669927,170.07232530380074,0,-49.77973175048828,25.189743041992188,-29.687911987304688
0.08099283277988434,0.13147655129432678,9.833158493041992,0.0006419785825086126,-0.002173936447274243,0.0076848296049516086,1.4699468612670898,2019-07-26 14:28:21:955,-170.45793223650634,170.25519747345643,0,-49.77973175048828,25.189743041992188,-29.687911987304688
0.09536132961511612,0.14584504067897797,9.821184158325195,0.00010921627043890474,-0.0024403177049006305,0.005287399456648588,1.4799542427062988,2019-07-26 14:28:21:965,-170.63627613090136,170.43301650493353,0,-49.77973175048828,25.189743041992188,-29.687911987304688
0.07620333135128021,0.12668704986572266,9.8187894821167,0.0009083597100978372,-0.0005756496817388956,0.00715206734977316,1.4899511337280273,2019-07-26 14:28:21:975,-170.81433424420695,170.60906192129534,0,-49.77973175048828,25.189743041992188,-29.687911987304688
0.0833875760436058,0.13387130200862885,9.792448043823242,0.001174740902705643,-0.0013747930645065694,0.004754637201470138,1.4999465942382812,2019-07-26 14:28:21:985,-170.9875181587434,170.78055667755572,0,-49.77973175048828,25.189743041992188,-29.687911987304688
0.057045333087444305,0.10034479945898056,9.802026748657227,0.001174740902705643,-0.004837748113277977,0.004221874686217364,1.5099461078643799,2019-07-26 14:28:21:995,-171.15838267314987,170.95255546283698,0,-50.52942657470703,25.939437866210938,-28.63833999633789
0.0378873348236084,0.13147655129432678,9.768500328063965,-0.0012226895056717034,-0.0008420308093281202,0.0007589198975202821,1.5199604034423828,2019-07-26 14:28:22:005,-171.3302971091078,171.1187696563586,0,-50.52942657470703,25.939437866210938,-28.63833999633789
0.07620333135128021,0.08597630262374878,9.761316299438477,0.0027730276682409903,0.004485591872493534,0.0015580632802879558,1.5299434661865234,2019-07-26 14:28:22:015,-171.49725995675047,171.28474704664345,0,-50.52942657470703,25.939437866210938,-28.63833999633789
0.07859808206558228,0.09555530548095703,9.849921226501465,0.002506646540651766,-0.0011084119369173448,-0.0024376537635875752,1.5399482250213623,2019-07-26 14:28:22:025,-171.65754837631087,171.44652763697638,0,-50.52942657470703,25.939437866210938,-28.63833999633789
0.10254557430744171,0.11471329629421234,9.7373685836792,-0.0038865007815639487,0.00022349378230200473,-0.0019048915084091261,1.5499475002288818,2019-07-26 14:28:22:035,-171.81245554178756,171.60628009490244,0,-50.52942657470703,25.939437866210938,-28.63833999633789
0.0833875760436058,0.11471329629421234,9.8187894821167,-0.00015716488153228781,-0.0008420308093281202,-0.004302321916786473,1.5599486827850342,2019-07-26 14:28:22:045,-171.9660019458947,171.7608555843253,0,-50.52942657470703,25.939437866210938,-28.63833999633789
0.10015082359313965,0.10992380231618881,9.79963207244873,0.002506646540651766,-0.0005756496817388956,-0.008031657963109942,1.5699570178985596,2019-07-26 14:28:22:055,-172.11464772701748,171.91137646931293,0,-50.52942657470703,25.939437866210938,-28.63833999633789
0.13128256797790527,0.08358155190944672,9.7373685836792,-0.00015716488153228781,-0.0024403177049006305,-0.0016385103808199016,1.5799486637115479,2019-07-26 14:28:22:065,-172.25553698817902,172.06340128928372,0,-50.52942657470703,25.939437866210938,-28.63833999633789
0.19833555817604065,0.05963405594229698,9.825974464416504,-0.004152881909153174,0.0015553994690120636,-0.003503178534018799,1.5899477005004883,2019-07-26 14:28:22:075,-172.38817255579755,172.21751037480354,0,-50.52942657470703,25.939437866210938,-28.63833999633789
0.13128256797790527,0.0907658040523529,9.792448043823242,-0.0036201196539747244,-0.0005756496817388956,-0.005101465039479822,1.599947452545166,2019-07-26 14:28:22:085,-172.52472407587177,172.36457166816047,0,-50.52942657470703,25.939437866210938,-28.63833999633789
0.1815723180770874,0.10992380231618881,9.773289680480957,0.0006419785825086126,-0.002706698832489855,-0.003503178534018799,1.6099462509155273,2019-07-26 14:28:22:095,-172.6514231126204,172.50403181515182,0,-50.52942657470703,25.939437866210938,-28.63833999633789
0.12170357257127762,0.1769767850637436,9.797237396240234,-0.002021832888439377,-0.0016411741920957937,0.0010253010251095067,1.6199572086334229,2019-07-26 14:28:22:105,-172.78323802438828,172.63439017086864,0,-50.52942657470703,25.939437866210938,-28.63833999633789
0.09775608032941818,0.16021354496479034,9.794842720031738,-0.0017554517608501525,-0.004038604470435978,-0.002171272635998351,1.629957675933838,2019-07-26 14:28:22:115,-172.9138692138114,172.76394610891646,0,-50.52942657470703,25.939437866210938,-28.63833999633789
0.12170357257127762,0.12908180058002472,9.79963207244873,-0.0004235460253761578,-0.0035058422152575287,-0.004568702784301372,1.6399469375610352,2019-07-26 14:28:22:125,-173.03939479658868,172.89381150217295,0,-50.52942657470703,25.939437866210938,-28.63833999633789
0.1552300751209259,0.1171080470085144,9.833158493041992,0.00010921627043890474,0.001289018341422839,-0.008830800825728966,1.649946928024292,2019-07-26 14:28:22:135,-173.16124231407252,173.02222730549735,0,-50.52942657470703,25.939437866210938,-28.63833999633789
0.07859808206558228,0.1242922991514206,9.763710975646973,-0.0004235460253761578,0.001289018341422839,-0.003503178534018799,1.6599617004394531,2019-07-26 14:28:22:145,-173.28951787329294,173.14743418333873,0,-50.52942657470703,25.939437866210938,-28.63833999633789
0.1432563215494156,0.12668704986572266,9.742157936096191,0.001174740902705643,-0.0005756496817388956,-0.0024376537635875752,1.669947624206543,2019-07-26 14:28:22:155,-173.40655551820365,173.2689261629892,0,-50.52942657470703,25.939437866210938,-28.63833999633789
0.090571828186512,0.11471329629421234,9.770895004272461,-0.0012226895056717034,-0.007235178261580997,-0.005367846167069046,1.6799507141113281,2019-07-26 14:28:22:165,-173.52373878883202,173.39078160885282,0,-50.52942657470703,25.939437866210938,-28.63833999633789
0.07620333135128021,0.10034479945898056,9.77807903289795,0.002506646540651766,-0.0011084119369173448,-0.004568702784301372,1.6899464130401611,2019-07-26 14:28:22:175,-173.64371164592328,173.50979987817482,0,-50.52942657470703,25.939437866210938,-28.63833999633789
0.06183483079075813,0.11231855303049088,9.835553169250488,-0.000689927185474673,0.0015553994690120636,-0.0027040348911768,1.6999456882476807,2019-07-26 14:28:22:185,-173.76450657851257,173.6269058620639,0,-50.52942657470703,25.939437866210938,-28.63833999633789
0.08099283277988434,0.09316055476665497,9.79963207244873,-0.0036201196539747244,-0.004038604470435978,-0.006699752325163819,1.709958553314209,2019-07-26 14:28:22:195,-173.8774752136412,173.74550969253127,0,-50.52942657470703,25.939437866210938,-28.63833999633789
0.05944008380174637,0.12668704986572266,9.804421424865723,-0.0009563083130638975,0.002620923979368962,0.003689112431038915,1.7199513912200928,2019-07-26 14:28:22:205,-173.9944491814194,173.85633004694984,0,-50.52942657470703,25.939437866210938,-28.63833999633789
0.0833875760436058,0.06442355364561081,9.806816101074219,-0.0004235460253761578,0.001289018341422839,-0.00616699006998537,1.7299633026123047,2019-07-26 14:28:22:215,-174.10554133095636,173.97191383726246,0,-50.52942657470703,25.939437866210938,-28.63833999633789
0.021124087274074554,0.0979500487446785,9.787657737731934,0.0006419785825086126,0.00022349378230200473,-0.0024376537635875752,1.739948034286499,2019-07-26 14:28:22:225,-174.2210826503439,174.08064826584908,0,-50.52942657470703,25.939437866210938,-28.63833999633789
0.057045333087444305,0.1362660527229309,9.833158493041992,-0.002288214016028602,-0.0011084119369173448,-0.0040359407891972475,1.7499499320983887,2019-07-26 14:28:22:235,-174.32939075500394,174.18444150806187,0,-50.52942657470703,25.939437866210938,-28.63833999633789
0.016334587708115578,0.14584504067897797,9.821184158325195,0.002240265413062541,-0.0008420308093281202,-0.0024376537635875752,1.7599515914916992,2019-07-26 14:28:22:245,-174.4404241779168,174.2824789141836,0,-50.82930374145508,26.239316940307617,-29.83785057067871
0.09775608032941818,0.14584504067897797,9.797237396240234,0.0009083597100978372,-0.0037722233428467535,-0.005634227814806921,1.7699449062347412,2019-07-26 14:28:22:255,-174.53806553399124,174.37926240100626,0,-50.82930374145508,26.239316940307617,-29.83785057067871
0.0833875760436058,0.1434502899646759,9.79005241394043,0.0017075031578840923,0.0034200676222109604,-0.0048350839118905965,1.7799537181854248,2019-07-26 14:28:22:265,-174.6394660846503,174.4739280396763,0,-50.82930374145508,26.239316940307617,-29.83785057067871
0.06901907920837402,0.1626082956790924,9.828369140625,0.0035721710510086637,-0.0003092685216403804,-0.00616699006998537,1.7899491786956787,2019-07-26 14:28:22:275,-174.7384562029554,174.56348741791808,0,-50.82930374145508,26.239316940307617,-29.83785057067871
0.1360720694065094,0.14823979139328003,9.821184158325195,0.0035721710510086637,-0.0003092685216403804,-0.00616699006998537,1.7999553680419922,2019-07-26 14:28:22:285,-174.82763772383277,174.6529156579629,0,-50.82930374145508,26.239316940307617,-29.83785057067871
0.10015082359313965,0.1434502899646759,9.835553169250488,-0.002021832888439377,-0.002973079960079079,-0.0024376537635875752,1.8099710941314697,2019-07-26 14:28:22:295,-174.9177450461174,174.7442825385405,0,-50.82930374145508,26.239316940307617,-29.83785057067871
0.13367731869220734,0.14823979139328003,9.814000129699707,-0.002554595143617826,-0.003239461087668304,-0.0024376537635875752,1.819951057434082,2019-07-26 14:28:22:305,-175.00196718964264,174.8335207560925,0,-50.82930374145508,26.239316940307617,-29.83785057067871
0.08817707747220993,0.14105553925037384,9.77807903289795,-0.001489070633260928,0.0034200676222109604,-0.005101465039479822,1.8299610614776611,2019-07-26 14:28:22:315,-175.09351673572192,174.9211578117443,0,-50.82930374145508,26.239316940307617,-29.83785057067871
0.12649306654930115,0.18176628649234772,9.782868385314941,-0.004152881909153174,-0.004571366985688751,-0.002171272635998351,1.8399560451507568,2019-07-26 14:28:22:325,-175.17426494157758,175.00377659185614,0,-50.82930374145508,26.239316940307617,-29.83785057067871
0.0833875760436058,0.13387130200862885,9.809210777282715,-0.0004235460253761578,-0.0013747930645065694,-0.0037695596616080236,1.8499531745910645,2019-07-26 14:28:22:335,-175.2602667874205,175.08830088864013,0,-50.82930374145508,26.239316940307617,-29.83785057067871
0.09296657890081406,0.10513430088758469,9.816394805908203,0.002240265413062541,-0.0005756496817388956,0.000226157593577897,1.8599708080291748,2019-07-26 14:28:22:345,-175.34388553795856,175.17300237684086,0,-50.82930374145508,26.239316940307617,-29.83785057067871
0.08817707747220993,0.12908180058002472,9.837947845458984,0.00010921627043890474,-0.002173936447274243,-0.0008393669980522279,1.86995530128479,2019-07-26 14:28:22:355,-175.4255185435836,175.25444662670435,0,-50.82930374145508,26.239316940307617,-29.83785057067871
0.11930882185697556,0.0907658040523529,9.802026748657227,0.0003755974224100973,-4.288736560552649e-05,0.004221874686217364,1.8799529075622559,2019-07-26 14:28:22:365,-175.50303687071408,175.33853608477025,0,-50.82930374145508,26.239316940307617,-29.83785057067871
0.1097298264503479,0.12908180058002472,9.72060489654541,-0.0012226895056717034,-0.0019075553196850185,0.0007589198975202821,1.8899474143981934,2019-07-26 14:28:22:375,-175.57897065726152,175.41723558306828,0,-50.82930374145508,26.239316940307617,-29.83785057067871
0.10254557430744171,0.1362660527229309,9.806816101074219,0.00010921627043890474,-0.0061696537512241,0.0018244444078771805,1.8999531269073486,2019-07-26 14:28:22:385,-175.65194311297654,175.4929079989955,0,-50.82930374145508,26.239316940307617,-29.83785057067871
0.0833875760436058,0.10752905160188675,9.782868385314941,-0.0017554517608501525,-0.002706698832489855,0.003156350175860466,1.9099700450897217,2019-07-26 14:28:22:395,-175.7276145105448,175.57144228980098,0,-50.82930374145508,26.239316940307617,-29.83785057067871
0.07859808206558228,0.10752905160188675,9.787657737731934,-0.0030873573987962753,0.00022349378230200473,0.0034227313034496903,1.9199504852294922,2019-07-26 14:28:22:405,-175.80398558840554,175.64915486211473,0,-50.82930374145508,26.239316940307617,-29.83785057067871
0.0642295852303505,0.11231855303049088,9.766105651855469,0.0003755974224100973,-0.002973079960079079,0.009815879145814057,1.9299542903900146,2019-07-26 14:28:22:415,-175.87869952830508,175.7227823605563,0,-50.82930374145508,26.239316940307617,-29.83785057067871
0.06901907920837402,0.09316055476665497,9.787657737731934,0.0033057899234194394,-0.005903272623634875,0.0076848296049516086,1.9399497509002686,2019-07-26 14:28:22:425,-175.9497319078801,175.7955646735382,0,-50.82930374145508,26.239316940307617,-29.83785057067871
0.0833875760436058,0.0979500487446785,9.787657737731934,-0.001489070633260928,-0.0008420308093281202,0.006352923967005486,1.949951410293579,2019-07-26 14:28:22:435,-176.02050181007985,175.86902225500032,0,-50.82930374145508,26.239316940307617,-29.83785057067871
0.06662432849407196,0.10992380231618881,9.823579788208008,0.0033057899234194394,0.001289018341422839,0.012213308773968425,1.9599781036376953,2019-07-26 14:28:22:445,-176.09304591303078,175.93695863800363,0,-50.82930374145508,26.239316940307617,-29.83785057067871
0.05225583165884018,0.0979500487446785,9.823579788208008,-0.002288214016028602,0.002088161724190513,0.004488256073880914,1.969956636428833,2019-07-26 14:28:22:455,-176.16625941899193,176.00807609134523,0,-50.82930374145508,26.239316940307617,-29.83785057067871
0.04028208553791046,0.16739779710769653,9.830763816833496,-0.0017554517608501525,-0.002973079960079079,0.0039554935586281394,1.979949951171875,2019-07-26 14:28:22:465,-176.23657054155916,176.06938888159658,0,-50.82930374145508,26.239316940307617,-29.83785057067871
0.049861084669828415,0.15302929282188416,9.830763816833496,-0.0009563083130638975,-0.0024403177049006305,0.003156350175860466,1.9899530410766602,2019-07-26 14:28:22:475,-176.30465650227202,176.13070193183518,0,-50.82930374145508,26.239316940307617,-29.83785057067871
0.06183483079075813,0.13387130200862885,9.821184158325195,0.0006419785825086126,-0.0024403177049006305,0.006352923967005486,1.9999735355377197,2019-07-26 14:28:22:485,-176.3699756632441,176.19210782313388,0,-50.82930374145508,26.239316940307617,-29.83785057067871
0.04507158324122429,0.1506345421075821,9.8187894821167,-0.001489070633260928,-0.0024403177049006305,-4.022355432963424e-05,2.0099503993988037,2019-07-26 14:28:22:495,-176.43594897974648,176.25152120699244,0,-50.67936325073242,25.189743041992188,-29.38803482055664
0.057045333087444305,0.14823979139328003,9.797237396240234,-0.0038865007815639487,-0.004038604470435978,0.006086542839416261,2.0199549198150635,2019-07-26 14:28:22:505,-176.49828917861834,176.31133676663057,0,-50.67936325073242,25.189743041992188,-29.38803482055664
0.04746633395552635,0.0979500487446785,9.780473709106445,-0.002820976271207051,-0.0035058422152575287,0.006619305094594711,2.0299506187438965,2019-07-26 14:28:22:515,-176.56079443279438,176.37521752687044,0,-50.67936325073242,25.189743041992188,-29.38803482055664
0.05944008380174637,0.11471329629421234,9.766105651855469,0.0033057899234194394,-0.0035058422152575287,0.004221874686217364,2.0399529933929443,2019-07-26 14:28:22:525,-176.6206351766057,176.4323971607917,0,-50.67936325073242,25.189743041992188,-29.38803482055664
0.0642295852303505,0.12908180058002472,9.811605453491211,-0.001489070633260928,0.0010226372138336143,0.0004925387374217668,2.0499727725982666,2019-07-26 14:28:22:535,-176.68129643303965,176.4895121493654,0,-50.67936325073242,25.189743041992188,-29.38803482055664
0.08578232675790787,0.08837105333805084,9.792448043823242,0.001973884285473317,0.0010226372138336143,0.0018244444078771805,2.0599489212036133,2019-07-26 14:28:22:545,-176.73820532401342,176.54827528665868,0,-50.67936325073242,25.189743041992188,-29.38803482055664
0.1097298264503479,0.10034479945898056,9.761316299438477,0.001174740902705643,-0.0013747930645065694,0.0010253010251095067,2.0699543952941895,2019-07-26 14:28:22:555,-176.78978781902714,176.6048703869374,0,-50.67936325073242,25.189743041992188,-29.38803482055664
0.07620333135128021,0.10752905160188675,9.861895561218262,0.0035721710510086637,-0.004038604470435978,0.0023572067930927925,2.079987049102783,2019-07-26 14:28:22:565,-176.84286261942174,176.65826667959615,0,-50.67936325073242,25.189743041992188,-29.38803482055664
0.09296657890081406,0.09555530548095703,9.797237396240234,0.00010921627043890474,0.0015553994690120636,-0.0011057481256414525,2.0899484157562256,2019-07-26 14:28:22:575,-176.8960020115785,176.7138641645098,0,-50.67936325073242,25.189743041992188,-29.38803482055664
0.06901907920837402,0.10273955017328262,9.79005241394043,-0.00015716488153228781,-0.0003092685216403804,0.002623587920682017,2.099970817565918,2019-07-26 14:28:22:585,-176.9498294499058,176.76765020927172,0,-50.67936325073242,25.189743041992188,-29.38803482055664
0.15044057369232178,0.1171080470085144,9.782868385314941,0.0006419785825086126,-0.0003092685216403804,-0.0029704160187660244,2.1099510192871094,2019-07-26 14:28:22:595,-176.99303909387783,176.81822066109683,0,-50.67936325073242,25.189743041992188,-29.38803482055664
0.08817707747220993,0.1434502899646759,9.828369140625,-0.000689927185474673,0.00075625608624439,-0.004568702784301372,2.119948387145996,2019-07-26 14:28:22:605,-177.04332231380297,176.8655194773291,0,-50.67936325073242,25.189743041992188,-29.38803482055664
0.14804582297801971,0.10992380231618881,9.825974464416504,-0.0009563083130638975,-0.0003092685216403804,-0.00030660471036448813,2.129951000213623,2019-07-26 14:28:22:615,-177.08501821327172,176.91592729794618,0,-50.67936325073242,25.189743041992188,-29.38803482055664
0.07859808206558228,0.12908180058002472,9.806816101074219,-0.004952025291920847,-0.0037722233428467535,0.0010253010251095067,2.1399755477905273,2019-07-26 14:28:22:625,-177.13201064919087,176.9653139386912,0,-51.27912139892578,25.189743041992188,-29.38803482055664
0.1815723180770874,0.15302929282188416,9.794842720031738,0.002240265413062541,0.00075625608624439,-0.0019048915084091261,2.1499505043029785,2019-07-26 14:28:22:635,-177.16855398276067,177.00685119899794,0,-51.27912139892578,25.189743041992188,-29.38803482055664
0.14804582297801971,0.15302929282188416,9.833158493041992,-0.002288214016028602,0.005018354127671983,-0.002171272635998351,2.1599552631378174,2019-07-26 14:28:22:645,-177.21075069904316,177.05016765462665,0,-51.27912139892578,25.189743041992188,-29.38803482055664
0.1360720694065094,0.11950279772281647,9.785263061523438,0.002506646540651766,-0.0003092685216403804,-0.0027040348911768,2.169973850250244,2019-07-26 14:28:22:655,-177.2504278438799,177.09376037642832,0,-51.27912139892578,25.189743041992188,-29.38803482055664
0.16480906307697296,0.13387130200862885,9.79963207244873,-0.001489070633260928,-0.0005756496817388956,-0.0027040348911768,2.179955005645752,2019-07-26 14:28:22:665,-177.28582661222302,177.13706649731276,0,-51.27912139892578,25.189743041992188,-29.38803482055664
0.16001957654953003,0.10992380231618881,9.756525993347168,0.0006419785825086126,-0.0005756496817388956,-0.0040359407891972475,2.189969539642334,2019-07-26 14:28:22:675,-177.32099357894623,177.18105403818964,0,-51.27912139892578,25.189743041992188,-29.38803482055664
0.13367731869220734,0.12668704986572266,9.802026748657227,0.0003755974224100973,0.00022349378230200473,-0.0029704160187660244,2.199951648712158,2019-07-26 14:28:22:685,-177.35907226445926,177.22241278755894,0,-51.27912139892578,25.189743041992188,-29.38803482055664
0.12170357257127762,0.11471329629421234,9.811605453491211,-0.002554595143617826,-0.002973079960079079,0.002623587920682017,2.2099525928497314,2019-07-26 14:28:22:695,-177.3960080242656,177.2660021007985,0,-51.27912139892578,25.189743041992188,-29.38803482055664
0.10254557430744171,0.0979500487446785,9.775684356689453,-0.002288214016028602,0.00022349378230200473,0.0007589198975202821,2.2199478149414062,2019-07-26 14:28:22:705,-177.43619324039275,177.31048485456859,0,-51.27912139892578,25.189743041992188,-29.38803482055664
0.10494032502174377,0.10034479945898056,9.802026748657227,0.0006419785825086126,-0.0011084119369173448,0.003156350175860466,2.2299511432647705,2019-07-26 14:28:22:715,-177.4745791132864,177.35218406956932,0,-51.27912139892578,25.189743041992188,-29.38803482055664
0.08578232675790787,0.10752905160188675,9.847526550292969,-0.004419263036742399,-4.288736560552649e-05,0.0012916821526987312,2.239973783493042,2019-07-26 14:28:22:725,-177.51508151621732,177.3951152063761,0,-51.27912139892578,25.189743041992188,-29.38803482055664
0.09536132961511612,0.12189754843711853,9.885843276977539,-0.0004235460253761578,-0.0011084119369173448,-0.0029704160187660244,2.249958038330078,2019-07-26 14:28:22:735,-177.5531050469921,177.43332133386042,0,-51.27912139892578,25.189743041992188,-29.38803482055664
0.06183483079075813,0.0907658040523529,9.766105651855469,-0.0038865007815639487,-0.004038604470435978,-0.0037695596616080236,2.2599503993988037,2019-07-26 14:28:22:745,-177.5925216537977,177.47618571700585,0,-50.979244232177734,26.989011764526367,-29.687911987304688
0.07380858063697815,0.08118680119514465,9.775684356689453,-0.0004235460253761578,0.0018217805966012882,-0.0008393669980522279,2.2699546813964844,2019-07-26 14:28:22:755,-177.63304283411986,177.51738334500175,0,-50.979244232177734,26.989011764526367,-29.687911987304688
0.11930882185697556,0.12189754843711853,9.825974464416504,-0.00015716488153228781,-0.0008420308093281202,-0.0040359407891972475,2.279972791671753,2019-07-26 14:28:22:765,-177.66599508409092,177.55290899327693,0,-50.979244232177734,26.989011764526367,-29.687911987304688
0.09536132961511612,0.14823979139328003,9.905000686645508,-0.002288214016028602,-0.0016411741920957937,0.000226157593577897,2.28995418548584,2019-07-26 14:28:22:775,-177.70072331019887,177.5859845799941,0,-50.979244232177734,26.989011764526367,-29.687911987304688
0.0833875760436058,0.13866080343723297,9.8187894821167,-0.002021832888439377,-0.004837748113277977,-0.0032367971463552496,2.299955129623413,2019-07-26 14:28:22:785,-177.73426056855556,177.6192187241964,0,-50.979244232177734,26.989011764526367,-29.687911987304688
0.06901907920837402,0.1626082956790924,9.79005241394043,0.0014411220302948675,0.0018217805966012882,-0.0005729858704630034,2.309950351715088,2019-07-26 14:28:22:795,-177.77251931719408,177.64699416408408,0,-50.979244232177734,26.989011764526367,-29.687911987304688
0.049861084669828415,0.14584504067897797,9.9097900390625,-0.0038865007815639487,-0.004571366985688751,-0.005634227814806921,2.3199515342712402,2019-07-26 14:28:22:805,-177.8087361880943,177.6793732738248,0,-50.979244232177734,26.989011764526367,-29.687911987304688
0.04507158324122429,0.15542404353618622,9.816394805908203,0.003039408795830215,0.002088161724190513,-0.001372129253230677,2.3299720287323,2019-07-26 14:28:22:815,-177.84847497875063,177.70593379687742,0,-50.979244232177734,26.989011764526367,-29.687911987304688
0.035492584109306335,0.12668704986572266,9.804421424865723,0.001174740902705643,0.0023545428517797373,-0.006433371197574595,2.339951992034912,2019-07-26 14:28:22:825,-177.8886766388504,177.7363507942057,0,-50.979244232177734,26.989011764526367,-29.687911987304688
0.08099283277988434,0.1171080470085144,9.792448043823242,0.0014411220302948675,-0.0013747930645065694,-0.002171272635998351,2.3499515056610107,2019-07-26 14:28:22:835,-177.92065360654323,177.76711125950408,0,-50.979244232177734,26.989011764526367,-29.687911987304688
0.090571828186512,0.1434502899646759,9.828369140625,0.001973884285473317,0.001289018341422839,-0.00616699006998537,2.3599507808685303,2019-07-26 14:28:22:845,-177.95240455356688,177.7939367195506,0,-50.979244232177734,26.989011764526367,-29.687911987304688
0.02591358684003353,0.13387130200862885,9.828369140625,0.0003755974224100973,0.00022349378230200473,-0.0037695596616080236,2.3699519634246826,2019-07-26 14:28:22:855,-177.99046064206502,177.82223961825943,0,-50.979244232177734,26.989011764526367,-29.687911987304688
0.07620333135128021,0.08358155190944672,9.775684356689453,-0.0012226895056717034,0.001289018341422839,-0.005634227814806921,2.379972457885742,2019-07-26 14:28:22:865,-178.02244424410523,177.85668549623628,0,-50.979244232177734,26.989011764526367,-29.687911987304688
0.06183483079075813,0.10992380231618881,9.773289680480957,-0.0033537385263855,-0.0003092685216403804,0.0015580632802879558,2.3899500370025635,2019-07-26 14:28:22:875,-178.0545720741511,177.88854269094983,0,-50.67936325073242,26.689132690429688,-29.38803482055664
0.07380858063697815,0.1434502899646759,9.775684356689453,-0.000689927185474673,-0.0035058422152575287,-0.0005729858704630034,2.3999733924865723,2019-07-26 14:28:22:885,-178.0828557575029,177.91434595406625,0,-50.67936325073242,26.689132690429688,-29.38803482055664
0.07141382992267609,0.1362660527229309,9.806816101074219,-0.002288214016028602,0.0004898749261458747,0.0018244444078771805,2.4099509716033936,2019-07-26 14:28:22:895,-178.11312861037322,177.94141947074863,0,-50.67936325073242,26.689132690429688,-29.38803482055664
0.035492584109306335,0.12668704986572266,9.8187894821167,-0.004685644164331623,0.0004898749261458747,-0.0059006089423961445,2.4199564456939697,2019-07-26 14:28:22:905,-178.14699905910285,177.9704391350101,0,-50.67936325073242,26.689132690429688,-29.38803482055664
0.0642295852303505,0.07879205793142319,9.806816101074219,0.0017075031578840923,-0.0003092685216403804,0.0028899690482712416,2.4299728870391846,2019-07-26 14:28:22:915,-178.176380090033,178.00086344874975,0,-50.67936325073242,26.689132690429688,-29.38803482055664
0.12649306654930115,0.10992380231618881,9.785263061523438,0.003039408795830215,-0.0011084119369173448,0.0015580632802879558,2.4399518966674805,2019-07-26 14:28:22:925,-178.1974191175235,178.0262709138748,0,-50.67936325073242,26.689132690429688,-29.38803482055664
0.023518836125731468,0.12908180058002472,9.79963207244873,0.004637695821439887,-0.0003092685216403804,0.003156350175860466,2.4499542713165283,2019-07-26 14:28:22:935,-178.23054688078668,178.04804756763002,0,-50.67936325073242,26.689132690429688,-29.38803482055664
0.090571828186512,0.13387130200862885,9.802026748657227,0.0027730276682409903,-4.288736560552649e-05,0.0010253010251095067,2.4599547386169434,2019-07-26 14:28:22:945,-178.25532377340627,178.06988010881977,0,-50.67936325073242,26.689132690429688,-29.38803482055664
0.1097298264503479,0.13387130200862885,9.782868385314941,0.001174740902705643,-0.0013747930645065694,0.0004925387374217668,2.4699501991271973,2019-07-26 14:28:22:955,-178.27659304751677,178.0921431639412,0,-50.67936325073242,26.689132690429688,-29.38803482055664
0.11451932787895203,0.14823979139328003,9.782868385314941,0.004104933306187114,-0.0037722233428467535,0.0050210183290593634,2.4799537658691406,2019-07-26 14:28:22:965,-178.29552873220152,178.11063183552952,0,-50.67936325073242,26.689132690429688,-29.38803482055664
0.1360720694065094,0.1242922991514206,9.787657737731934,-0.0004235460253761578,0.002088161724190513,0.006086542839416261,2.4899699687957764,2019-07-26 14:28:22:975,-178.3148625906836,178.13410634130244,0,-50.67936325073242,26.689132690429688,-29.38803482055664
0.1432563215494156,0.14584504067897797,9.828369140625,-0.0017554517608501525,-0.002706698832489855,0.005287399456648588,2.499955654144287,2019-07-26 14:28:22:985,-178.3303462554373,178.15540527566185,0,-50.67936325073242,26.689132690429688,-29.38803482055664
0.10254557430744171,0.13387130200862885,9.825974464416504,0.002506646540651766,-4.288736560552649e-05,0.00715206734977316,2.5099494457244873,2019-07-26 14:28:22:995,-178.3517567243036,178.17527931762942,0,-50.52942657470703,25.039804458618164,-30.13772964477539
0.10254557430744171,0.12668704986572266,9.766105651855469,0.0014411220302948675,0.0004898749261458747,0.004488256073880914,2.5199551582336426,2019-07-26 14:28:23:005,-178.37296496763187,178.19609996537233,0,-50.52942657470703,25.039804458618164,-30.13772964477539
0.11691407114267349,0.13147655129432678,9.763710975646973,-0.0004235460253761578,-0.0024403177049006305,0.003689112431038915,2.529973268508911,2019-07-26 14:28:23:015,-178.39041201560318,178.21698643603787,0,-50.52942657470703,25.039804458618164,-30.13772964477539
0.1097298264503479,0.14105553925037384,9.744552612304688,-0.00015716488153228781,-0.0003092685216403804,0.0034227313034496903,2.539952278137207,2019-07-26 14:28:23:025,-178.40952729689798,178.23614843091562,0,-50.52942657470703,25.039804458618164,-30.13772964477539
0.0833875760436058,0.14584504067897797,9.816394805908203,-0.000689927185474673,0.0004898749261458747,0.000226157593577897,2.5499556064605713,2019-07-26 14:28:23:035,-178.43187790273842,178.25478903481155,0,-50.52942657470703,25.039804458618164,-30.13772964477539
0.13846682012081146,0.08358155190944672,9.8187894821167,0.0009083597100978372,-0.0024403177049006305,0.0028899690482712416,2.559950590133667,2019-07-26 14:28:23:045,-178.44571190375768,178.27942920064712,0,-50.52942657470703,25.039804458618164,-30.13772964477539
0.13367731869220734,0.14823979139328003,9.766105651855469,-0.000689927185474673,-0.0013747930645065694,0.0034227313034496903,2.5699517726898193,2019-07-26 14:28:23:055,-178.46034145006362,178.2968355299058,0,-50.52942657470703,25.039804458618164,-30.13772964477539
0.13367731869220734,0.13387130200862885,9.768500328063965,-0.0004235460253761578,-0.0011084119369173448,-0.0019048915084091261,2.579972505569458,2019-07-26 14:28:23:065,-178.47483062339657,178.31543404600316,0,-50.52942657470703,25.039804458618164,-30.13772964477539
0.09536132961511612,0.08837105333805084,9.787657737731934,0.0049040769490291125,-0.0013747930645065694,0.004754637201470138,2.589951753616333,2019-07-26 14:28:23:075,-178.49339934498104,178.33603145615086,0,-50.52942657470703,25.039804458618164,-30.13772964477539
0.15044057369232178,0.1242922991514206,9.797237396240234,0.0014411220302948675,0.0036864487498001856,-0.0032367971463552496,2.599946975708008,2019-07-26 14:28:23:085,-178.50800568684687,178.35396518860279,0,-50.52942657470703,25.039804458618164,-30.13772964477539
0.11451932787895203,0.1362660527229309,9.79005241394043,-0.0004235460253761578,-0.002973079960079079,0.0007589198975202821,2.6099531650543213,2019-07-26 14:28:23:095,-178.52277140102348,178.37117508076878,0,-50.52942657470703,25.039804458618164,-30.13772964477539
0.1097298264503479,0.0979500487446785,9.806816101074219,0.0006419785825086126,0.002088161724190513,0.000226157593577897,2.619953155517578,2019-07-26 14:28:23:105,-178.54066719831258,178.39194613535204,0,-50.52942657470703,25.039804458618164,-30.13772964477539
0.12409832328557968,0.10034479945898056,9.770895004272461,0.0006419785825086126,-0.0061696537512241,-4.022355432963424e-05,2.629969596862793,2019-07-26 14:28:23:115,-178.55183062781379,178.4119782793009,0,-50.52942657470703,25.039804458618164,-30.13772964477539
0.08099283277988434,0.0979500487446785,9.751736640930176,-0.0012226895056717034,0.0010226372138336143,0.0034227313034496903,2.639983654022217,2019-07-26 14:28:23:125,-178.57185187410124,178.43291660442551,0,-50.82930374145508,24.739927291870117,-29.83785057067871
0.12409832328557968,0.12189754843711853,9.785263061523438,-0.001489070633260928,0.0015553994690120636,0.0028899690482712416,2.6499691009521484,2019-07-26 14:28:23:135,-178.5867550084703,178.4508189386417,0,-50.82930374145508,24.739927291870117,-29.83785057067871
0.13128256797790527,0.08358155190944672,9.770895004272461,0.0009083597100978372,-0.0005756496817388956,0.004754637201470138,2.659947156906128,2019-07-26 14:28:23:145,-178.59930169913028,178.47149155914377,0,-50.82930374145508,24.739927291870117,-29.83785057067871
0.12649306654930115,0.1242922991514206,9.804421424865723,-0.001489070633260928,0.0018217805966012882,0.010348641400992505,2.669950246810913,2019-07-26 14:28:23:155,-178.61355554407385,178.48837191094367,0,-50.82930374145508,24.739927291870117,-29.83785057067871
0.06662432849407196,0.11231855303049088,9.8187894821167,0.0014411220302948675,-0.0003092685216403804,-4.022355432963424e-05,2.6799745559692383,2019-07-26 14:28:23:165,-178.63333499087955,178.50468559513362,0,-50.82930374145508,24.739927291870117,-29.83785057067871
0.05944008380174637,0.1171080470085144,9.84034252166748,-0.004419263036742399,-0.0019075553196850185,0.0012916821526987312,2.689958333969116,2019-07-26 14:28:23:175,-178.65267717875943,178.5234325880755,0,-50.82930374145508,24.739927291870117,-29.83785057067871
0.07620333135128021,0.14105553925037384,9.864290237426758,-0.0033537385263855,-0.0008420308093281202,0.0004925387374217668,2.69994854927063,2019-07-26 14:28:23:185,-178.6702990805689,178.53846017988698,0,-50.82930374145508,24.739927291870117,-29.83785057067871
-0.0004286601906642318,0.12668704986572266,9.77807903289795,-0.0012226895056717034,-0.003239461087668304,-0.002171272635998351,2.7099497318267822,2019-07-26 14:28:23:195,-171.495124166538,178.5535316796329,0,-50.82930374145508,24.739927291870117,-29.83785057067871
0.042676832526922226,0.12668704986572266,9.825974464416504,-0.0009563083130638975,-0.0013747930645065694,-0.004302321916786473,2.719970941543579,2019-07-26 14:28:23:205,-171.65947111520637,178.5682255908547,0,-50.82930374145508,24.739927291870117,-29.83785057067871
-0.007612909190356731,0.13866080343723297,9.814000129699707,0.001973884285473317,-0.0003092685216403804,-0.0040359407891972475,2.7299723625183105,2019-07-26 14:28:23:215,-164.62699692301956,178.57956316467522,0,-50.82930374145508,24.739927291870117,-29.83785057067871
0.035492584109306335,0.12189754843711853,9.794842720031738,0.002240265413062541,-0.0024403177049006305,-0.007232514580342268,2.739992380142212,2019-07-26 14:28:23:225,-164.92893168597712,178.5924512085343,0,-50.82930374145508,24.739927291870117,-29.83785057067871
0.04746633395552635,0.10513430088758469,9.802026748657227,-0.001489070633260928,-0.0035058422152575287,-0.0019048915084091261,2.7499642372131348,2019-07-26 14:28:23:235,-165.22284101148986,178.6091455847416,0,-50.82930374145508,24.739927291870117,-29.83785057067871
0.030703086405992508,0.07639730721712112,9.775684356689453,0.001174740902705643,-0.0024403177049006305,-0.0027040348911768,2.759957790374756,2019-07-26 14:28:23:245,-165.5134158046042,178.62734829569473,0,-51.878875732421875,26.989011764526367,-30.58754539489746
0.042676832526922226,0.1434502899646759,9.766105651855469,-0.00628393092986697,0.0015553994690120636,-0.008298039090699167,2.7699694633483887,2019-07-26 14:28:23:255,-165.79901436651235,178.64150319697998,0,-51.878875732421875,26.989011764526367,-30.58754539489746
0.035492584109306335,0.11231855303049088,9.794842720031738,-0.002021832888439377,0.0015553994690120636,-0.002171272635998351,2.779965400695801,2019-07-26 14:28:23:265,-166.07975475842733,178.65666816237982,0,-51.878875732421875,26.989011764526367,-30.58754539489746
0.0642295852303505,0.12668704986572266,9.79963207244873,0.0006419785825086126,0.0010226372138336143,-0.008031657963109942,2.7899742126464844,2019-07-26 14:28:23:275,-166.3512238283988,178.66836074310623,0,-51.878875732421875,26.989011764526367,-30.58754539489746
0.08578232675790787,0.12908180058002472,9.797237396240234,-0.000689927185474673,-0.002706698832489855,-0.0037695596616080236,2.7999539375305176,2019-07-26 14:28:23:285,-166.61264951215497,178.68028319755433,0,-51.878875732421875,26.989011764526367,-30.58754539489746
0.06662432849407196,0.13147655129432678,9.823579788208008,-0.0033537385263855,-0.0003092685216403804,-0.006433371197574595,2.8099544048309326,2019-07-26 14:28:23:295,-166.87245128503451,178.6932249839547,0,-51.878875732421875,26.989011764526367,-30.58754539489746
0.08099283277988434,0.13387130200862885,9.802026748657227,0.0003755974224100973,-0.0037722233428467535,-0.0040359407891972475,2.8199667930603027,2019-07-26 14:28:23:305,-167.12341320571127,178.7034999421351,0,-51.878875732421875,26.989011764526367,-30.58754539489746
0.12170357257127762,0.15302929282188416,9.821184158325195,0.004371314693850663,-0.0003092685216403804,-0.005101465039479822,2.8299977779388428,2019-07-26 14:28:23:315,-167.36657135365883,178.70911415212407,0,-51.878875732421875,26.989011764526367,-30.58754539489746
0.10494032502174377,0.13387130200862885,9.859500885009766,0.0014411220302948675,-0.004304985598025202,-0.001372129253230677,2.8399622440338135,2019-07-26 14:28:23:325,-167.6046350958564,178.71856738689178,0,-51.878875732421875,26.989011764526367,-30.58754539489746
0.11451932787895203,0.13387130200862885,9.780473709106445,-0.001489070633260928,-0.0008420308093281202,0.0039554935586281394,2.84995436668396,2019-07-26 14:28:23:335,-167.83865308268585,178.72934762628014,0,-51.878875732421875,26.989011764526367,-30.58754539489746
0.07620333135128021,0.1889505386352539,9.833158493041992,0.0027730276682409903,-0.0016411741920957937,-0.0048350839118905965,2.8599696159362793,2019-07-26 14:28:23:345,-168.07207685566013,178.7311844439904,0,-51.878875732421875,26.989011764526367,-30.58754539489746
0.12649306654930115,0.1506345421075821,9.787657737731934,0.0017075031578840923,-0.0037722233428467535,-0.0016385103808199016,2.8699615001678467,2019-07-26 14:28:23:355,-168.29371025759377,178.73796823233468,0,-51.878875732421875,26.989011764526367,-30.58754539489746
0.09536132961511612,0.13387130200862885,9.825974464416504,-0.0033537385263855,0.0015553994690120636,-0.0008393669980522279,2.8799922466278076,2019-07-26 14:28:23:365,-168.51759130186147,178.7494865295137,0,-51.878875732421875,26.989011764526367,-30.58754539489746
0.11212457716464996,0.12668704986572266,9.770895004272461,-0.004419263036742399,-0.004571366985688751,-0.0059006089423961445,2.8899755477905273,2019-07-26 14:28:23:375,-168.7315277243709,178.76211723489746,0,-50.82930374145508,27.13895034790039,-29.83785057067871
0.13367731869220734,0.1506345421075821,9.770895004272461,-0.002288214016028602,-0.0019075553196850185,-0.0005729858704630034,2.8999743461608887,2019-07-26 14:28:23:385,-168.94014971585463,178.7704947760403,0,-50.82930374145508,27.13895034790039,-29.83785057067871
0.15044057369232178,0.15781879425048828,9.847526550292969,-0.001489070633260928,0.002887305106958187,0.0023572067930927925,2.9099717140197754,2019-07-26 14:28:23:395,-169.1454627323394,178.7775576287825,0,-50.82930374145508,27.13895034790039,-29.83785057067871
0.17199331521987915,0.11950279772281647,9.775684356689453,0.003838552178597889,-0.003239461087668304,0.0050210183290593634,2.9200336933135986,2019-07-26 14:28:23:405,-169.34056410080262,178.78583023484742,0,-50.82930374145508,27.13895034790039,-29.83785057067871
0.12409832328557968,0.12189754843711853,9.842737197875977,-0.002554595143617826,-0.002973079960079079,0.0028899690482712416,2.930004119873047,2019-07-26 14:28:23:415,-169.5376413098814,178.7973529039394,0,-50.82930374145508,27.13895034790039,-29.83785057067871
0.1360720694065094,0.1171080470085144,9.830763816833496,0.0006419785825086126,-0.0016411741920957937,0.0039554935586281394,2.939981460571289,2019-07-26 14:28:23:425,-169.73010892908238,178.80739622678513,0,-50.82930374145508,27.13895034790039,-29.83785057067871
0.1552300751209259,0.11950279772281647,9.773289680480957,-0.0033537385263855,-0.0016411741920957937,0.002090825535466405,2.9499731063842773,2019-07-26 14:28:23:435,-169.91638684893945,178.81911887597573,0,-50.82930374145508,27.13895034790039,-29.83785057067871
0.13846682012081146,0.11231855303049088,9.823579788208008,-0.004952025291920847,-0.0016411741920957937,0.00715206734977316,2.9599711894989014,2019-07-26 14:28:23:445,-170.10098675689233,178.8324151896611,0,-50.82930374145508,27.13895034790039,-29.83785057067871
0.11451932787895203,0.10513430088758469,9.833158493041992,-0.004952025291920847,-0.0013747930645065694,0.010881403656170954,2.969993829727173,2019-07-26 14:28:23:455,-170.28484832448444,178.84630228713547,0,-50.82930374145508,27.13895034790039,-29.83785057067871
0.10015082359313965,0.09555530548095703,9.809210777282715,-0.0017554517608501525,-0.002173936447274243,0.008483972987719282,2.9799797534942627,2019-07-26 14:28:23:465,-170.46623316453767,178.85919808504164,0,-50.82930374145508,27.13895034790039,-29.83785057067871
0.1097298264503479,0.10513430088758469,9.806816101074219,-0.004419263036742399,-0.0061696537512241,0.012213308773968425,2.989976167678833,2019-07-26 14:28:23:475,-170.64062421773912,178.87221028781883,0,-50.82930374145508,27.13895034790039,-29.83785057067871
0.07620333135128021,0.09316055476665497,9.809210777282715,-0.002021832888439377,0.00022349378230200473,0.009549497498076182,2.9999966621398926,2019-07-26 14:28:23:485,-170.81903556006583,178.88502094223932,0,-50.82930374145508,27.13895034790039,-29.83785057067871
0.09296657890081406,0.07639730721712112,9.715815544128418,0.0009083597100978372,-0.0019075553196850185,0.01301245267688475,3.0099780559539795,2019-07-26 14:28:23:495,-170.99062129922797,178.89780106291485,0,-50.67936325073242,25.489622116088867,-29.687911987304688
0.0642295852303505,0.09555530548095703,9.72060489654541,-0.002288214016028602,-0.004837748113277977,0.010881403656170954,3.0199878215789795,2019-07-26 14:28:23:505,-171.16051822331605,178.9098669305949,0,-50.67936325073242,25.489622116088867,-29.687911987304688
0.049861084669828415,0.06921305507421494,9.780473709106445,0.00010921627043890474,-0.0024403177049006305,0.01008225975325463,3.0299649238586426,2019-07-26 14:28:23:515,-171.33009890732262,178.9234992917081,0,-50.67936325073242,25.489622116088867,-29.687911987304688
0.009150338359177113,0.06681830435991287,9.763710975646973,0.0027730276682409903,-0.0016411741920957937,0.015143501697598547,3.039968729019165,2019-07-26 14:28:23:525,-171.50150113450226,178.93562967033117,0,-50.67936325073242,25.489622116088867,-29.687911987304688
0.03309783712029457,0.08837105333805084,9.802026748657227,-0.0017554517608501525,-0.0019075553196850185,0.009549497498076182,3.049971342086792,2019-07-26 14:28:23:535,-171.6665304216746,178.94757219313885,0,-50.67936325073242,25.489622116088867,-29.687911987304688
0.009150338359177113,0.06681830435991287,9.8187894821167,-0.0004235460253761578,-0.0019075553196850185,0.007951210732540834,3.0599751472473145,2019-07-26 14:28:23:545,-171.8310604132022,178.96106065678657,0,-50.67936325073242,25.489622116088867,-29.687911987304688
0.009150338359177113,0.07400255650281906,9.847526550292969,0.0027730276682409903,-0.0024403177049006305,-0.00030660471036448813,3.0699844360351562,2019-07-26 14:28:23:555,-171.99200291068328,178.971669739341,0,-50.67936325073242,25.489622116088867,-29.687911987304688
-0.03634990379214287,0.10273955017328262,9.825974464416504,0.0049040769490291125,-0.0005756496817388956,0.009016735242897731,3.079965591430664,2019-07-26 14:28:23:565,-164.95607938015831,178.97750674215058,0,-50.67936325073242,25.489622116088867,-29.687911987304688
0.009150338359177113,0.1242922991514206,9.792448043823242,-0.0004235460253761578,-0.004571366985688751,0.0018244444078771805,3.0899529457092285,2019-07-26 14:28:23:575,-165.25332344675212,178.98365018108967,0,-50.67936325073242,25.489622116088867,-29.687911987304688
-0.0028234098572283983,0.14823979139328003,9.787657737731934,0.001973884285473317,-0.0019075553196850185,-0.004302321916786473,3.0999720096588135,2019-07-26 14:28:23:585,-158.347514404254,178.9855124973726,0,-50.67936325073242,25.489622116088867,-29.687911987304688
0.04028208553791046,0.10273955017328262,9.797237396240234,0.004371314693850663,0.0004898749261458747,-0.001372129253230677,3.109992742538452,2019-07-26 14:28:23:595,-158.77612825814168,178.99132637199986,0,-50.67936325073242,25.489622116088867,-29.687911987304688
0.057045333087444305,0.10513430088758469,9.854711532592773,0.0035721710510086637,0.005551116902999083,-0.001372129253230677,3.1199886798858643,2019-07-26 14:28:23:605,-159.1970881576747,178.9972702336749,0,-50.67936325073242,25.489622116088867,-29.687911987304688
0.06901907920837402,0.1242922991514206,9.802026748657227,0.0003755974224100973,-4.288736560552649e-05,-0.0029704160187660244,3.1299779415130615,2019-07-26 14:28:23:615,-159.60505372910248,179.00258442309956,0,-50.67936325073242,25.489622116088867,-29.687911987304688
0.11691407114267349,0.1697925478219986,9.849921226501465,-0.00015716488153228781,-0.0003092685216403804,-0.005367846167069046,3.139967441558838,2019-07-26 14:28:23:625,-159.99917832644496,179.00286959896187,0,-50.379486083984375,26.989011764526367,-30.58754539489746
0.090571828186512,0.12668704986572266,9.823579788208008,-0.000689927185474673,-0.0008420308093281202,-0.014691186672989206,3.149953842163086,2019-07-26 14:28:23:635,-160.3881577453585,179.00842191251115,0,-50.379486083984375,26.989011764526367,-30.58754539489746
0.090571828186512,0.14105553925037384,9.782868385314941,0.003039408795830215,-0.002173936447274243,-0.005634227814806921,3.159989833831787,2019-07-26 14:28:23:645,-160.7685607131977,179.01001932225975,0,-50.379486083984375,26.989011764526367,-30.58754539489746
0.1432563215494156,0.1434502899646759,9.828369140625,0.0003755974224100973,0.0015553994690120636,-0.01149461314191851,3.1699626445770264,2019-07-26 14:28:23:655,-161.13735902775957,179.0128845500331,0,-50.379486083984375,26.989011764526367,-30.58754539489746
0.20551981031894684,0.10513430088758469,9.828369140625,0.0035721710510086637,0.0034200676222109604,-0.010429088631561613,3.1799538135528564,2019-07-26 14:28:23:665,-161.49257190728022,179.01836544205028,0,-50.379486083984375,26.989011764526367,-30.58754539489746
0.11451932787895203,0.0907658040523529,9.854711532592773,0.00010921627043890474,-0.002973079960079079,-0.010162706983823738,3.189971923828125,2019-07-26 14:28:23:675,-161.8477322443133,179.02738265845008,0,-50.379486083984375,26.989011764526367,-30.58754539489746
0.16480906307697296,0.12908180058002472,9.809210777282715,0.0017075031578840923,0.0018217805966012882,-0.013625662162632309,3.1999733448028564,2019-07-26 14:28:23:685,-162.19254942842403,179.03079759551488,0,-50.379486083984375,26.989011764526367,-30.58754539489746
0.17917756736278534,0.11950279772281647,9.804421424865723,0.0009083597100978372,-0.0003092685216403804,-0.01549032953560823,3.2099862098693848,2019-07-26 14:28:23:695,-162.5275850797284,179.03570445628392,0,-50.379486083984375,26.989011764526367,-30.58754539489746
0.15283532440662384,0.09316055476665497,9.806816101074219,0.0027730276682409903,-0.0005756496817388956,-0.013359280514894434,3.219975709915161,2019-07-26 14:28:23:705,-162.8588532983964,179.0425495706706,0,-50.379486083984375,26.989011764526367,-30.58754539489746
0.18396706879138947,0.12908180058002472,9.775684356689453,0.001174740902705643,0.0018217805966012882,-0.011760993749359086,3.2299699783325195,2019-07-26 14:28:23:715,-163.18113631308628,179.04590912221695,0,-50.379486083984375,26.989011764526367,-30.58754539489746
0.1432563215494156,0.11950279772281647,9.830763816833496,-0.002554595143617826,-0.004038604470435978,-0.005101465039479822,3.23996901512146,2019-07-26 14:28:23:725,-163.4985487507928,179.05249613563691,0,-50.379486083984375,26.989011764526367,-30.58754539489746
0.1432563215494156,0.1171080470085144,9.746947288513184,-0.002288214016028602,-0.0035058422152575287,-0.013359280514894434,3.250258445739746,2019-07-26 14:28:23:735,-163.80971132689606,179.05900089474213,0,-50.379486083984375,26.989011764526367,-30.58754539489746
0.1552300751209259,0.15302929282188416,9.770895004272461,0.0009083597100978372,-0.005104129240867201,-0.006699752325163819,3.259956121444702,2019-07-26 14:28:23:745,-164.11253416983385,179.05938068021902,0,-49.77973175048828,27.288888931274414,-29.38803482055664
0.1552300751209259,0.13147655129432678,9.782868385314941,0.001174740902705643,0.0018217805966012882,-0.007498895707931493,3.2699544429779053,2019-07-26 14:28:23:755,-164.41312490408518,179.06213399256472,0,-49.77973175048828,27.288888931274414,-29.38803482055664
0.18636181950569153,0.11471329629421234,9.794842720031738,0.003838552178597889,-0.0005756496817388956,0.004488256073880914,3.2799794673919678,2019-07-26 14:28:23:765,-164.7027382094151,179.065310683881,0,-49.77973175048828,27.288888931274414,-29.38803482055664
0.16720381379127502,0.08597630262374878,9.84034252166748,-0.0033537385263855,0.002620923979368962,-0.0024376537635875752,3.2899720668792725,2019-07-26 14:28:23:775,-164.9906848599132,179.07587444322095,0,-49.77973175048828,27.288888931274414,-29.38803482055664
0.16480906307697296,0.14584504067897797,9.849921226501465,0.0014411220302948675,0.0004898749261458747,0.0012916821526987312,3.3000004291534424,2019-07-26 14:28:23:785,-165.2719753152085,179.0765794580141,0,-49.77973175048828,27.288888931274414,-29.38803482055664
0.18396706879138947,0.10752905160188675,9.768500328063965,-0.001489070633260928,0.00022349378230200473,0.004488256073880914,3.30998158454895,2019-07-26 14:28:23:795,-165.54508294976333,179.0832689799926,0,-49.77973175048828,27.288888931274414,-29.38803482055664
0.16001957654953003,0.1506345421075821,9.754131317138672,0.0017075031578840923,-0.002706698832489855,0.009016735242897731,3.319973945617676,2019-07-26 14:28:23:805,-165.81386522640815,179.0829504289436,0,-49.77973175048828,27.288888931274414,-29.38803482055664
0.1624143123626709,0.12908180058002472,9.809210777282715,-0.0004235460253761578,-0.0003092685216403804,0.009016735242897731,3.329967975616455,2019-07-26 14:28:23:815,-166.0784428058588,179.08645058607365,0,-49.77973175048828,27.288888931274414,-29.38803482055664
0.11451932787895203,0.17937153577804565,9.823579788208008,-0.0004235460253761578,0.00022349378230200473,0.011147784263611528,3.3399698734283447,2019-07-26 14:28:23:825,-166.34364144870443,179.0840381663598,0,-49.77973175048828,27.288888931274414,-29.38803482055664
0.10494032502174377,0.1434502899646759,9.821184158325195,-0.0004235460253761578,0.00075625608624439,0.004488256073880914,3.349954128265381,2019-07-26 14:28:23:835,-166.60494883231723,179.08585855409237,0,-49.77973175048828,27.288888931274414,-29.38803482055664
0.057045333087444305,0.17937153577804565,9.79963207244873,0.001973884285473317,-0.002173936447274243,0.009815879145814057,3.359945774078369,2019-07-26 14:28:23:845,-166.86495971793082,179.0820615872775,0,-49.77973175048828,27.288888931274414,-29.38803482055664
0.06662432849407196,0.1171080470085144,9.758920669555664,0.00010921627043890474,0.00022349378230200473,0.007951210732540834,3.369953155517578,2019-07-26 14:28:23:855,-167.11996304266745,179.08660854110042,0,-49.77973175048828,27.288888931274414,-29.38803482055664
0.0833875760436058,0.1242922991514206,9.746947288513184,0.004104933306187114,-0.0013747930645065694,0.0146107394424201,3.3799562454223633,2019-07-26 14:28:23:865,-167.36698824305654,179.08795891083255,0,-49.77973175048828,27.288888931274414,-29.38803482055664
0.02591358684003353,0.13147655129432678,9.768500328063965,-0.0009563083130638975,-0.0005756496817388956,0.009815879145814057,3.3900539875030518,2019-07-26 14:28:23:875,-167.6162822487685,179.0913197296863,0,-50.82930374145508,25.039804458618164,-30.437606811523438
0.05465058237314224,0.15542404353618622,9.811605453491211,0.002506646540651766,0.00022349378230200473,0.011680546518789978,3.3999531269073486,2019-07-26 14:28:23:885,-167.85769815271016,179.08994930830508,0,-50.82930374145508,25.039804458618164,-30.437606811523438
0.06183483079075813,0.10992380231618881,9.816394805908203,0.006768744842153685,-0.002173936447274243,0.011414165911349403,3.4099457263946533,2019-07-26 14:28:23:895,-168.09210624506943,179.0915210891195,0,-50.82930374145508,25.039804458618164,-30.437606811523438
0.05225583165884018,0.06681830435991287,9.77807903289795,-0.002288214016028602,0.004219211004978634,0.01407797718724165,3.419955253601074,2019-07-26 14:28:23:905,-168.32651153557737,179.10314625146145,0,-50.82930374145508,25.039804458618164,-30.437606811523438
0.04028208553791046,0.13866080343723297,9.852315902709961,-0.002554595143617826,-0.0035058422152575287,0.009283116890635608,3.4299747943878174,2019-07-26 14:28:23:915,-168.55332377904998,179.10639406006285,0,-50.82930374145508,25.039804458618164,-30.437606811523438
0.0067555890418589115,0.14584504067897797,9.787657737731934,0.005436839204207561,-0.0011084119369173448,0.006352923967005486,3.4399750232696533,2019-07-26 14:28:23:925,-168.78084398932594,179.10413940576765,0,-50.82930374145508,25.039804458618164,-30.437606811523438
0.023518836125731468,0.08358155190944672,9.797237396240234,0.002506646540651766,-0.002173936447274243,-0.0032367971463552496,3.4500010013580322,2019-07-26 14:28:23:935,-169.00125244463814,179.1108697595709,0,-50.82930374145508,25.039804458618164,-30.437606811523438
0.028308335691690445,0.08597630262374878,9.761316299438477,-0.0017554517608501525,0.00022349378230200473,-4.022355432963424e-05,3.4599838256835938,2019-07-26 14:28:23:945,-169.21802946490504,179.1195435526328,0,-50.82930374145508,25.039804458618164,-30.437606811523438
0.049861084669828415,0.0979500487446785,9.809210777282715,0.0027730276682409903,-0.0011084119369173448,0.0034227313034496903,3.4699761867523193,2019-07-26 14:28:23:955,-169.42722223925853,179.1241546395156,0,-50.82930374145508,25.039804458618164,-30.437606811523438
0.011545088142156601,0.10273955017328262,9.845131874084473,-0.0033537385263855,-0.003239461087668304,-0.008031657963109942,3.479975938796997,2019-07-26 14:28:23:965,-169.6355151066722,179.13159677282988,0,-50.82930374145508,25.039804458618164,-30.437606811523438
0.04746633395552635,0.06442355364561081,9.806816101074219,0.0003755974224100973,0.0004898749261458747,-0.007232514580342268,3.489978313446045,2019-07-26 14:28:23:975,-169.8375335887674,179.14122617730834,0,-50.82930374145508,25.039804458618164,-30.437606811523438
0.0642295852303505,0.07879205793142319,9.761316299438477,0.0009083597100978372,0.00075625608624439,-0.007232514580342268,3.4999966621398926,2019-07-26 14:28:23:985,-170.0336683025879,179.14864119650798,0,-50.82930374145508,25.039804458618164,-30.437606811523438
0.07620333135128021,0.09316055476665497,9.837947845458984,-0.0009563083130638975,-0.002173936447274243,-0.006966133452753044,3.509981155395508,2019-07-26 14:28:23:995,-170.22290024692288,179.1553535698475,0,-50.52942657470703,26.539194107055664,-28.938217163085938
0.09296657890081406,0.07879205793142319,9.804421424865723,-0.0017554517608501525,0.0004898749261458747,-0.012293756004537536,3.5199787616729736,2019-07-26 14:28:24:005,-170.407851870948,179.16402313119454,0,-50.52942657470703,26.539194107055664,-28.938217163085938
0.0833875760436058,0.047660309821367264,9.744552612304688,-0.0030873573987962753,0.00022349378230200473,-0.019486048009892547,3.5299792289733887,2019-07-26 14:28:24:015,-170.59001456603957,179.1768717030221,0,-50.52942657470703,26.539194107055664,-28.938217163085938
0.06901907920837402,0.1242922991514206,9.79005241394043,-0.0009563083130638975,-0.002173936447274243,-0.010695469239002189,3.539980173110962,2019-07-26 14:28:24:025,-170.7689150185435,179.17932378095418,0,-50.52942657470703,26.539194107055664,-28.938217163085938
0.057045333087444305,0.1961347907781601,9.806816101074219,-0.00015716488153228781,0.00075625608624439,-0.008830800825728966,3.549964189529419,2019-07-26 14:28:24:035,-170.94729506745892,179.17291033423956,0,-50.52942657470703,26.539194107055664,-28.938217163085938
0.0378873348236084,0.1242922991514206,9.821184158325195,-0.006816693705194069,-0.0064360348788133235,-0.015756711183346105,3.559962749481201,2019-07-26 14:28:24:045,-171.12031526723163,179.17877774465646,0,-50.52942657470703,26.539194107055664,-28.938217163085938
0.030703086405992508,0.2152927815914154,9.809210777282715,0.001973884285473317,0.003153686234547411,-0.00962994472864529,3.5699751377105713,2019-07-26 14:28:24:055,-171.29609521204316,179.16894593922535,0,-50.52942657470703,26.539194107055664,-28.938217163085938
0.035492584109306335,0.14584504067897797,9.768500328063965,-0.00015716488153228781,0.002887305106958187,-0.00856442021828839,3.5799803733825684,2019-07-26 14:28:24:065,-171.4676318565536,179.1685479096946,0,-50.52942657470703,26.539194107055664,-28.938217163085938
0.04746633395552635,0.09555530548095703,9.763710975646973,0.0075678882249213585,0.005018354127671983,-0.007232514580342268,3.589977979660034,2019-07-26 14:28:24:075,-171.63552551295268,179.16971414233015,0,-50.52942657470703,26.539194107055664,-28.938217163085938
0.035492584109306335,0.05244980752468109,9.804421424865723,0.002240265413062541,0.005551116902999083,-0.010961850886740064,3.599985122680664,2019-07-26 14:28:24:085,-171.80178590978514,179.17893091468648,0,-50.52942657470703,26.539194107055664,-28.938217163085938
0.05465058237314224,0.08597630262374878,9.940921783447266,0.001973884285473317,0.0036864487498001856,-0.013092899907453858,3.6099753379821777,2019-07-26 14:28:24:095,-171.96151845262335,179.1843345853609,0,-50.52942657470703,26.539194107055664,-28.938217163085938
0.05465058237314224,0.07879205793142319,9.916975021362305,0.005436839204207561,0.0015553994690120636,-0.010695469239002189,3.6199750900268555,2019-07-26 14:28:24:105,-172.11684655543792,179.18849088829685,0,-50.52942657470703,26.539194107055664,-28.938217163085938
0.12170357257127762,0.11231855303049088,9.871474266052246,0.002240265413062541,0.0010226372138336143,-0.01389204277007288,3.6299827098846436,2019-07-26 14:28:24:115,-172.260957206558,179.19042443440455,0,-50.52942657470703,26.539194107055664,-28.938217163085938
0.15044057369232178,0.1961347907781601,9.823579788208008,0.005969601459386011,-4.288736560552649e-05,-0.013625662162632309,3.6401028633117676,2019-07-26 14:28:24:125,-172.39816624710323,179.18034776380043,0,-49.479854583740234,26.08937644958496,-29.987789154052734
0.265388548374176,0.21289803087711334,9.797237396240234,0.0075678882249213585,0.0036864487498001856,-0.007765276835520717,3.649958610534668,2019-07-26 14:28:24:135,-172.52120991122342,179.16765544528909,0,-49.479854583740234,26.08937644958496,-29.987789154052734
0.3060992956161499,0.22008228302001953,9.72060489654541,0.005703220331796786,-0.005903272623634875,-0.008298039090699167,3.65995454788208,2019-07-26 14:28:24:145,-172.63139971917505,179.15516127158787,0,-49.479854583740234,26.08937644958496,-29.987789154052734
0.3276520371437073,0.15302929282188416,9.660736083984375,-0.005484787547099296,-0.002973079960079079,-0.0016385103808199016,3.6699740886688232,2019-07-26 14:28:24:155,-172.73824927721031,179.15699359636903,0,-49.479854583740234,26.08937644958496,-29.987789154052734
0.2989150583744049,0.08837105333805084,9.742157936096191,-0.0012226895056717034,-0.0037722233428467535,-4.022355432963424e-05,3.679987668991089,2019-07-26 14:28:24:165,-172.84621463639985,179.16414688725294,0,-49.479854583740234,26.08937644958496,-29.987789154052734
0.2917307913303375,0.0979500487446785,9.682289123535156,0.001973884285473317,-0.004038604470435978,-0.0005729858704630034,3.689964771270752,2019-07-26 14:28:24:175,-172.95251146627896,179.1681659925071,0,-49.479854583740234,26.08937644958496,-29.987789154052734
0.23186205327510834,0.062028806656599045,9.689473152160645,-0.00015716488153228781,0.0018217805966012882,0.005820161711827037,3.6999659538269043,2019-07-26 14:28:24:185,-173.0670685896979,179.17755525805813,0,-49.479854583740234,26.08937644958496,-29.987789154052734
0.1743880659341812,0.07879205793142319,9.814000129699707,-0.007615837087961743,-0.0005756496817388956,0.0034227313034496903,3.70996356010437,2019-07-26 14:28:24:195,-173.18504407564868,179.18907958399254,0,-49.479854583740234,26.08937644958496,-29.987789154052734
0.13367731869220734,0.1171080470085144,9.811605453491211,-0.004685644164331623,0.00075625608624439,0.006086542839416261,3.7199995517730713,2019-07-26 14:28:24:205,-173.30615790327687,179.1942618280018,0,-49.479854583740234,26.08937644958496,-29.987789154052734
0.049861084669828415,0.17218729853630066,9.816394805908203,0.0009083597100978372,0.0004898749261458747,0.006086542839416261,3.7299811840057373,2019-07-26 14:28:24:215,-173.43448882680804,179.18976928439383,0,-49.479854583740234,26.08937644958496,-29.987789154052734
0.01872933655977249,0.1961347907781601,9.866684913635254,0.0006419785825086126,-0.0008420308093281202,0.009549497498076182,3.739989995956421,2019-07-26 14:28:24:225,-173.56315061422413,179.18283703983192,0,-49.479854583740234,26.08937644958496,-29.987789154052734
0.030703086405992508,0.2344507873058319,9.785263061523438,0.0035721710510086637,-0.002973079960079079,0.008483972987719282,3.7499725818634033,2019-07-26 14:28:24:235,-173.68662561674793,179.16972761907726,0,-49.479854583740234,26.08937644958496,-29.987789154052734
0.01872933655977249,0.17458204925060272,9.811605453491211,-0.004685644164331623,-0.0008420308093281202,0.007418448477362384,3.759984016418457,2019-07-26 14:28:24:245,-173.81023233335307,179.16857944817792,0,-50.379486083984375,26.989011764526367,-29.687911987304688
0.0642295852303505,0.12908180058002472,9.809210777282715,-0.0004235460253761578,-0.0013747930645065694,0.0039554935586281394,3.7699947357177734,2019-07-26 14:28:24:255,-173.9257516983769,179.1703674218291,0,-50.379486083984375,26.989011764526367,-29.687911987304688
0.04028208553791046,0.1242922991514206,9.828369140625,-0.0012226895056717034,-0.005370510368456426,0.0050210183290593634,3.7799880504608154,2019-07-26 14:28:24:265,-174.03952657735837,179.17315535701306,0,-50.379486083984375,26.989011764526367,-29.687911987304688
0.04028208553791046,0.054844558238983154,9.79963207244873,0.00010921627043890474,-0.002173936447274243,0.007951210732540834,3.789987087249756,2019-07-26 14:28:24:275,-174.15280515991677,179.1832177740789,0,-50.379486083984375,26.989011764526367,-29.687911987304688
0.05225583165884018,0.033291809260845184,9.84034252166748,-0.000689927185474673,-0.004571366985688751,0.0004925387374217668,3.7999696731567383,2019-07-26 14:28:24:285,-174.26110153494895,179.19606329470324,0,-50.379486083984375,26.989011764526367,-29.687911987304688
0.05465058237314224,0.0979500487446785,9.816394805908203,0.0006419785825086126,-0.004038604470435978,0.002090825535466405,3.809985399246216,2019-07-26 14:28:24:295,-174.3672287043529,179.2003471848943,0,-50.379486083984375,26.989011764526367,-29.687911987304688
0.01872933655977249,0.12908180058002472,9.852315902709961,-0.00015716488153228781,0.0018217805966012882,0.004488256073880914,3.8199944496154785,2019-07-26 14:28:24:305,-174.47872959069252,179.20141601893368,0,-50.379486083984375,26.989011764526367,-29.687911987304688
0.03309783712029457,0.16021354496479034,9.828369140625,-0.0004235460253761578,-0.004038604470435978,0.0015580632802879558,3.8299577236175537,2019-07-26 14:28:24:315,-174.5830367063042,179.19894657839578,0,-50.379486083984375,26.989011764526367,-29.687911987304688
-0.03156040608882904,0.1506345421075821,9.792448043823242,-0.0017554517608501525,-0.0019075553196850185,-0.004568702784301372,3.839956760406494,2019-07-26 14:28:24:325,-167.49399818226422,179.19832732064535,0,-50.379486083984375,26.989011764526367,-29.687911987304688
-0.041139405220746994,0.16500304639339447,9.802026748657227,0.0014411220302948675,-0.0005756496817388956,0.0018244444078771805,3.84997296333313,2019-07-26 14:28:24:335,-160.5486038828273,179.19426225315289,0,-50.379486083984375,26.989011764526367,-29.687911987304688
-0.09621864557266235,0.18655578792095184,9.821184158325195,-0.0030873573987962753,-0.0008420308093281202,-0.006966133452753044,3.8599839210510254,2019-07-26 14:28:24:345,-153.74838472266046,179.19034812599003,0,-50.379486083984375,26.989011764526367,-29.687911987304688
-0.08424489945173264,0.14823979139328003,9.780473709106445,0.001174740902705643,0.0004898749261458747,-0.005101465039479822,3.8699634075164795,2019-07-26 14:28:24:355,-147.08356172035786,179.18851592210848,0,-50.379486083984375,26.989011764526367,-29.687911987304688
-0.1057976484298706,0.13147655129432678,9.830763816833496,0.0014411220302948675,-4.288736560552649e-05,-0.00909718247346684,3.8799843788146973,2019-07-26 14:28:24:365,-140.55419810150082,179.18861016694606,0,-50.379486083984375,26.989011764526367,-29.687911987304688
-0.09621864557266235,0.16739779710769653,9.816394805908203,-0.0033537385263855,-0.0003092685216403804,-0.0016385103808199016,3.889965772628784,2019-07-26 14:28:24:375,-134.15417252029667,179.1871783129196,0,-50.07960891723633,27.288888931274414,-29.08815574645996
-0.07706064730882645,0.10992380231618881,9.792448043823242,0.0003755974224100973,-0.005104129240867201,-0.0019048915084091261,3.8999805450439453,2019-07-26 14:28:24:385,-127.87723635148603,179.1903607573124,0,-50.07960891723633,27.288888931274414,-29.08815574645996
-0.005218159407377243,0.12189754843711853,9.823579788208008,-0.00015716488153228781,-0.0011084119369173448,-0.0040359407891972475,3.909996271133423,2019-07-26 14:28:24:395,-121.7196769695005,179.19242337146974,0,-50.07960891723633,27.288888931274414,-29.08815574645996
-0.0004286601906642318,0.16739779710769653,9.823579788208008,0.0017075031578840923,0.003153686234547411,-0.005101465039479822,3.9199883937835693,2019-07-26 14:28:24:405,-115.68710282871945,179.18809192033564,0,-50.07960891723633,27.288888931274414,-29.08815574645996
0.05944008380174637,0.13866080343723297,9.794842720031738,0.001973884285473317,-0.0003092685216403804,-0.0037695596616080236,3.929962158203125,2019-07-26 14:28:24:415,-116.96623366103736,179.18700357270112,0,-50.07960891723633,27.288888931274414,-29.08815574645996
0.08099283277988434,0.1171080470085144,9.802026748657227,0.0033057899234194394,-0.0056368914960456505,-0.002171272635998351,3.939966917037964,2019-07-26 14:28:24:425,-118.21427404329008,179.18771644114312,0,-50.07960891723633,27.288888931274414,-29.08815574645996
0.06183483079075813,0.12668704986572266,9.830763816833496,-0.0033537385263855,-0.0016411741920957937,-0.0027040348911768,3.949965715408325,2019-07-26 14:28:24:435,-119.4418595205893,179.191078642354,0,-50.07960891723633,27.288888931274414,-29.08815574645996
0.11451932787895203,0.09555530548095703,9.804421424865723,-0.001489070633260928,0.0015553994690120636,-0.0008393669980522279,3.9599809646606445,2019-07-26 14:28:24:445,-120.64051290044955,179.19692655060294,0,-50.07960891723633,27.288888931274414,-29.08815574645996
0.090571828186512,0.0979500487446785,9.873868942260742,-0.0036201196539747244,-0.0003092685216403804,-0.0024376537635875752,3.9699721336364746,2019-07-26 14:28:24:455,-121.8170180890036,179.20365165973436,0,-50.07960891723633,27.288888931274414,-29.08815574645996
0.14086157083511353,0.08118680119514465,9.782868385314941,-0.0017554517608501525,-0.002973079960079079,-0.005101465039479822,3.9799721240997314,2019-07-26 14:28:24:465,-122.96250967855008,179.21105471751838,0,-50.07960891723633,27.288888931274414,-29.08815574645996
0.12649306654930115,0.12189754843711853,9.847526550292969,0.0003755974224100973,-0.0037722233428467535,-0.009896326376383165,3.98996639251709,2019-07-26 14:28:24:475,-124.08642393964537,179.212438861759,0,-50.07960891723633,27.288888931274414,-29.08815574645996
0.1288878172636032,0.16021354496479034,9.79005241394043,-0.0012226895056717034,0.00075625608624439,-0.0019048915084091261,4.000005006790161,2019-07-26 14:28:24:485,-125.19003642204932,179.2101281167827,0,-50.07960891723633,27.288888931274414,-29.08815574645996
0.15762482583522797,0.17458204925060272,9.821184158325195,-0.0038865007815639487,-0.0024403177049006305,0.000226157593577897,4.009961128234863,2019-07-26 14:28:24:495,-126.26648170895903,179.20773051419417,0,-50.379486083984375,26.08937644958496,-29.08815574645996
0.11212457716464996,0.1362660527229309,9.761316299438477,0.002240265413062541,-0.005370510368456426,0.0028899690482712416,4.019986629486084,2019-07-26 14:28:24:505,-127.32496672703418,179.20631907320498,0,-50.379486083984375,26.08937644958496,-29.08815574645996
0.13846682012081146,0.1626082956790924,9.806816101074219,0.0014411220302948675,0.0004898749261458747,0.0039554935586281394,4.029974937438965,2019-07-26 14:28:24:515,-128.36256351561465,179.20238559171437,0,-50.379486083984375,26.08937644958496,-29.08815574645996
0.15044057369232178,0.12908180058002472,9.77807903289795,0.003039408795830215,0.0015553994690120636,0.0015580632802879558,4.039967775344849,2019-07-26 14:28:24:525,-129.378555888275,179.20150596358982,0,-50.379486083984375,26.08937644958496,-29.08815574645996
0.13367731869220734,0.11471329629421234,9.816394805908203,0.003838552178597889,0.00075625608624439,0.008217591860130057,4.049983263015747,2019-07-26 14:28:24:535,-130.37580622475724,179.2019267319319,0,-50.379486083984375,26.08937644958496,-29.08815574645996
0.13367731869220734,0.13387130200862885,9.751736640930176,-0.002554595143617826,-0.0024403177049006305,0.0076848296049516086,4.059963941574097,2019-07-26 14:28:24:545,-131.35121522531773,179.20358974968156,0,-50.379486083984375,26.08937644958496,-29.08815574645996
0.14086157083511353,0.10992380231618881,9.758920669555664,0.002506646540651766,0.00022349378230200473,0.0039554935586281394,4.069990396499634,2019-07-26 14:28:24:555,-132.3077775933608,179.20519978508656,0,-50.379486083984375,26.08937644958496,-29.08815574645996
0.13128256797790527,0.11231855303049088,9.816394805908203,0.002240265413062541,-0.0005756496817388956,0.009016735242897731,4.0799736976623535,2019-07-26 14:28:24:565,-133.2459750145617,179.20672906419108,0,-50.379486083984375,26.08937644958496,-29.08815574645996
0.19115132093429565,0.14584504067897797,9.766105651855469,0.0003755974224100973,-0.002973079960079079,0.009283116890635608,4.0899858474731445,2019-07-26 14:28:24:575,-134.1569580413454,179.20527173025258,0,-50.379486083984375,26.08937644958496,-29.08815574645996
0.1695985645055771,0.1362660527229309,9.761316299438477,-0.002021832888439377,0.00022349378230200473,0.008483972987719282,4.099991083145142,2019-07-26 14:28:24:585,-135.05403666287592,179.20630642953944,0,-50.379486083984375,26.08937644958496,-29.08815574645996
0.17917756736278534,0.13866080343723297,9.806816101074219,0.0009083597100978372,-0.0011084119369173448,0.0076848296049516086,4.1099817752838135,2019-07-26 14:28:24:595,-135.9313997662203,179.20546945135993,0,-50.379486083984375,26.08937644958496,-29.08815574645996
0.1887565702199936,0.10752905160188675,9.811605453491211,-0.001489070633260928,-0.002173936447274243,0.015676263952776995,4.119985342025757,2019-07-26 14:28:24:605,-136.7895081624694,179.20963845716184,0,-50.379486083984375,26.08937644958496,-29.08815574645996
0.13128256797790527,0.16739779710769653,9.835553169250488,0.0003755974224100973,-0.003239461087668304,0.01407797718724165,4.129965782165527,2019-07-26 14:28:24:615,-137.6366081101543,179.20573398911537,0,-50.379486083984375,26.08937644958496,-29.08815574645996
0.12649306654930115,0.14584504067897797,9.758920669555664,-0.0017554517608501525,-0.0008420308093281202,0.009815879145814057,4.139983177185059,2019-07-26 14:28:24:625,-138.46855004247388,179.20548251223065,0,-51.57899856567383,26.689132690429688,-29.687911987304688
0.0833875760436058,0.15542404353618622,9.79005241394043,-0.0009563083130638975,-0.0008420308093281202,0.007951210732540834,4.149975776672363,2019-07-26 14:28:24:635,-139.2889463981747,179.20371873374,0,-51.57899856567383,26.689132690429688,-29.687911987304688
0.090571828186512,0.1362660527229309,9.79963207244873,-0.002288214016028602,-0.0011084119369173448,0.004488256073880914,4.160013437271118,2019-07-26 14:28:24:645,-140.09195207988662,179.20500084384778,0,-51.57899856567383,26.689132690429688,-29.687911987304688
0.08099283277988434,0.14584504067897797,9.85710620880127,-0.0030873573987962753,-0.005104129240867201,0.0135452149320632,4.169982671737671,2019-07-26 14:28:24:655,-140.87784046722905,179.20567539231587,0,-51.57899856567383,26.689132690429688,-29.687911987304688
0.11212457716464996,0.14105553925037384,9.835553169250488,0.0006419785825086126,0.00075625608624439,0.009016735242897731,4.1799867153167725,2019-07-26 14:28:24:665,-141.64764567940685,179.20476836865413,0,-51.57899856567383,26.689132690429688,-29.687911987304688
0.07859808206558228,0.12908180058002472,9.825974464416504,0.001174740902705643,-0.0003092685216403804,0.014877120049860672,4.189990997314453,2019-07-26 14:28:24:675,-142.40535304118978,179.2049603124495,0,-51.57899856567383,26.689132690429688,-29.687911987304688
0.07141382992267609,0.10992380231618881,9.811605453491211,-0.006816693705194069,-0.00909984667485422,0.0050210183290593634,4.199988603591919,2019-07-26 14:28:24:685,-143.14379724561798,179.21185008666959,0,-51.57899856567383,26.689132690429688,-29.687911987304688
0.07859808206558228,0.1171080470085144,9.833158493041992,-0.0017554517608501525,-0.0011084119369173448,0.006885686222183935,4.209967374801636,2019-07-26 14:28:24:695,-143.87114095003494,179.21495003432037,0,-51.57899856567383,26.689132690429688,-29.687911987304688
0.05944008380174637,0.10513430088758469,9.861895561218262,-0.0009563083130638975,-0.0005756496817388956,0.011946928166527853,4.219966411590576,2019-07-26 14:28:24:705,-144.58648830259327,179.21897219569254,0,-51.57899856567383,26.689132690429688,-29.687911987304688
0.08817707747220993,0.09555530548095703,9.833158493041992,-0.004152881909153174,0.00022349378230200473,0.009283116890635608,4.229959726333618,2019-07-26 14:28:24:715,-145.2846084278896,179.2257877611426,0,-51.57899856567383,26.689132690429688,-29.687911987304688
0.08578232675790787,0.06921305507421494,9.802026748657227,-0.002554595143617826,-0.0013747930645065694,0.006086542839416261,4.239984035491943,2019-07-26 14:28:24:725,-145.9681142269855,179.2346186086337,0,-51.57899856567383,26.689132690429688,-29.687911987304688
0.0833875760436058,0.13147655129432678,9.837947845458984,0.00010921627043890474,-0.003239461087668304,0.009549497498076182,4.249959945678711,2019-07-26 14:28:24:735,-146.63722469169676,179.2345516969295,0,-51.57899856567383,26.689132690429688,-29.687911987304688
0.09296657890081406,0.12189754843711853,9.782868385314941,0.0009083597100978372,-0.002973079960079079,0.005287399456648588,4.259967803955078,2019-07-26 14:28:24:745,-147.29192019986525,179.23507249769145,0,-50.52942657470703,26.239316940307617,-29.238094329833984
0.11451932787895203,0.1242922991514206,9.8187894821167,0.003039408795830215,-0.0005756496817388956,0.00715206734977316,4.269964694976807,2019-07-26 14:28:24:755,-147.93239413713493,179.2341600221444,0,-50.52942657470703,26.239316940307617,-29.238094329833984
0.10254557430744171,0.0907658040523529,9.763710975646973,-0.0036201196539747244,0.00075625608624439,0.003689112431038915,4.279979944229126,2019-07-26 14:28:24:765,-148.56213674452613,179.24086021375678,0,-50.52942657470703,26.239316940307617,-29.238094329833984
0.08099283277988434,0.10513430088758469,9.756525993347168,-0.0009563083130638975,-0.004571366985688751,0.0034227313034496903,4.289965391159058,2019-07-26 14:28:24:775,-149.17881844269894,179.24423152298948,0,-50.52942657470703,26.239316940307617,-29.238094329833984
0.09775608032941818,0.10752905160188675,9.837947845458984,0.002506646540651766,0.0015553994690120636,0.0004925387374217668,4.299980878829956,2019-07-26 14:28:24:785,-149.78473061285518,179.24541284257197,0,-50.52942657470703,26.239316940307617,-29.238094329833984
0.06662432849407196,0.0979500487446785,9.715815544128418,-0.002554595143617826,-0.004038604470435978,-0.0008393669980522279,4.309977769851685,2019-07-26 14:28:24:795,-150.3789112630326,179.2503863783974,0,-50.52942657470703,26.239316940307617,-29.238094329833984
0.05944008380174637,0.12189754843711853,9.842737197875977,0.0017075031578840923,-0.0011084119369173448,0.0028899690482712416,4.3199663162231445,2019-07-26 14:28:24:805,-150.96379130269105,179.25023010237004,0,-50.52942657470703,26.239316940307617,-29.238094329833984
0.08099283277988434,0.12668704986572266,9.79005241394043,0.0033057899234194394,-0.004571366985688751,-0.0024376537635875752,4.330497741699219,2019-07-26 14:28:24:815,-151.53233234143008,179.2484428991795,0,-50.52942657470703,26.239316940307617,-29.238094329833984
0.09296657890081406,0.14105553925037384,9.780473709106445,-0.0012226895056717034,0.0010226372138336143,-0.001372129253230677,4.339959144592285,2019-07-26 14:28:24:825,-152.0913370054477,179.24759817267326,0,-50.52942657470703,26.239316940307617,-29.238094329833984
0.07380858063697815,0.10752905160188675,9.842737197875977,-0.000689927185474673,-0.004571366985688751,-0.007498895707931493,4.349984169006348,2019-07-26 14:28:24:835,-152.63834421087898,179.25051627407154,0,-50.52942657470703,26.239316940307617,-29.238094329833984
0.12649306654930115,0.08358155190944672,9.794842720031738,-0.0004235460253761578,-0.002173936447274243,-0.0059006089423961445,4.359968900680542,2019-07-26 14:28:24:845,-153.169560708036,179.25596529300972,0,-50.52942657470703,26.239316940307617,-29.238094329833984
0.12170357257127762,0.07400255650281906,9.833158493041992,0.006235982586975235,-0.0019075553196850185,-0.004568702784301372,4.369977712631226,2019-07-26 14:28:24:855,-153.6909153538566,179.25871761709047,0,-50.52942657470703,26.239316940307617,-29.238094329833984
0.10254557430744171,0.09316055476665497,9.79963207244873,-0.0009563083130638975,-0.004304985598025202,-0.005634227814806921,4.380007743835449,2019-07-26 14:28:24:865,-154.20268186076396,179.26318848351514,0,-50.52942657470703,26.239316940307617,-29.238094329833984
0.10733507573604584,0.08597630262374878,9.775684356689453,0.00010921627043890474,0.001289018341422839,-0.010961850886740064,4.38994836807251,2019-07-26 14:28:24:875,-154.70676628770667,179.2677857840191,0,-49.92966842651367,26.239316940307617,-30.437606811523438
0.090571828186512,0.1362660527229309,9.768500328063965,0.002240265413062541,-0.002706698832489855,-0.006433371197574595,4.399991750717163,2019-07-26 14:28:24:885,-155.20048013622915,179.26518275049392,0,-49.92966842651367,26.239316940307617,-30.437606811523438
0.12649306654930115,0.07879205793142319,9.804421424865723,-0.005751168674688521,0.0023545428517797373,-0.012560137652275411,4.409982442855835,2019-07-26 14:28:24:895,-155.6830080110704,179.27389654802036,0,-49.92966842651367,26.239316940307617,-30.437606811523438
0.08817707747220993,0.14823979139328003,9.88105297088623,0.00010921627043890474,0.002088161724190513,-0.00616699006998537,4.420072555541992,2019-07-26 14:28:24:905,-156.16030520414674,179.27116651247545,0,-49.92966842651367,26.239316940307617,-30.437606811523438
0.10494032502174377,0.13147655129432678,9.842737197875977,0.00010921627043890474,-0.005104129240867201,-0.007765276835520717,4.429973363876343,2019-07-26 14:28:24:915,-156.62204461942517,179.27037655365854,0,-49.92966842651367,26.239316940307617,-30.437606811523438
0.10494032502174377,0.10513430088758469,9.773289680480957,-0.0012226895056717034,0.005018354127671983,-0.00962994472864529,4.439987897872925,2019-07-26 14:28:24:925,-157.08012186934457,179.2733300658083,0,-49.92966842651367,26.239316940307617,-30.437606811523438
0.11930882185697556,0.1506345421075821,9.797237396240234,0.006502363714564459,-0.0005756496817388956,-0.005367846167069046,4.4499900341033936,2019-07-26 14:28:24:935,-157.524242092442,179.2665943161688,0,-49.92966842651367,26.239316940307617,-30.437606811523438
0.11691407114267349,0.1434502899646759,9.785263061523438,-0.0017554517608501525,-4.288736560552649e-05,-0.008031657963109942,4.459967136383057,2019-07-26 14:28:24:945,-157.96004250600862,179.26544813250302,0,-49.92966842651367,26.239316940307617,-30.437606811523438
0.07859808206558228,0.16021354496479034,9.837947845458984,0.002240265413062541,0.00022349378230200473,-0.012027375397096961,4.470015048980713,2019-07-26 14:28:24:955,-158.39181290728922,179.26021535232024,0,-49.92966842651367,26.239316940307617,-30.437606811523438
0.13128256797790527,0.11950279772281647,9.79005241394043,0.006502363714564459,-0.0011084119369173448,-0.0011057481256414525,4.479962110519409,2019-07-26 14:28:24:965,-158.80799200318734,179.25739231988842,0,-49.92966842651367,26.239316940307617,-30.437606811523438
0.05944008380174637,0.14584504067897797,9.780473709106445,0.001973884285473317,0.0015553994690120636,-0.003503178534018799,4.489987134933472,2019-07-26 14:28:24:975,-159.22574357437364,179.25404690179195,0,-49.92966842651367,26.239316940307617,-30.437606811523438
0.1097298264503479,0.13387130200862885,9.854711532592773,0.0014411220302948675,0.002887305106958187,-0.0048350839118905965,4.49999213218689,2019-07-26 14:28:24:985,-159.6300917656215,179.25259064155185,0,-49.92966842651367,26.239316940307617,-30.437606811523438
0.10494032502174377,0.1242922991514206,9.79963207244873,0.0009083597100978372,-0.0013747930645065694,-0.001372129253230677,4.50998067855835,2019-07-26 14:28:24:995,-160.02444818912218,179.252496085072,0,-50.229549407958984,26.239316940307617,-29.238094329833984
0.07859808206558228,0.12189754843711853,9.852315902709961,0.0049040769490291125,0.00022349378230200473,0.0007589198975202821,4.520010709762573,2019-07-26 14:28:25:005,-160.41494360267745,179.25050717083712,0,-50.229549407958984,26.239316940307617,-29.238094329833984
