ACCELEROMETER X (m/s²),ACCELEROMETER Y (m/s²),ACCELEROMETER Z (m/s²),GYROSCOPE X (rad/s),GYROSCOPE Y (rad/s),GYROSCOPE Z (rad/s),Time since start in ms ,YYYY-MO-DD HH-MI-SS_SSS,Pitch (Deg),Roll (Deg),Heading (Deg),MagX,MagY,MagZ
-0.02437615767121315,0.040476057678461075,9.806816101074219,-0.002820976271207051,-0.004837748113277977,0.002090825535466405,0.0,2019-07-26 14:12:55:822,3.5971516788638134,3.5952704443849557,0,-23.840293884277344,35.83540725708008,-37.93455505371094
-0.012402408756315708,0.05963405594229698,9.835553169250488,-0.004152881909153174,-0.0003092685216403804,-0.0024376537635875752,0.009967327117919922,2019-07-26 14:12:55:832,7.123936759043177,7.118741525346433,0,-23.840293884277344,35.83540725708008,-37.93455505371094
0.02591358684003353,0.03808131068944931,9.830763816833496,0.0003755974224100973,0.0004898749261458747,0.0050210183290593634,0.020014286041259766,2019-07-26 14:12:55:842,3.3842022588499883,10.571715909910438,0,-23.840293884277344,35.83540725708008,-37.93455505371094
-0.029165657237172127,0.05244980752468109,9.861895561218262,0.0003755974224100973,-0.0008420308093281202,0.0015580632802879558,0.029998779296875,2019-07-26 14:12:55:852,6.9136013486381085,13.953976606178598,0,-23.840293884277344,35.83540725708008,-37.93455505371094
-0.033955156803131104,0.07400255650281906,9.797237396240234,-0.0030873573987962753,-0.002973079960079079,0.006619305094594711,0.04000210762023926,2019-07-26 14:12:55:862,10.37302777198773,17.26797579168831,0,-23.840293884277344,35.83540725708008,-37.93455505371094
0.01393983792513609,0.028502311557531357,9.85710620880127,-0.0036201196539747244,-0.0035058422152575287,0.003156350175860466,0.04999542236328125,2019-07-26 14:12:55:872,6.569154969423655,20.52133414667018,0,-23.840293884277344,35.83540725708008,-37.93455505371094
-0.0028234098572283983,0.040476057678461075,9.823579788208008,-0.0038865007815639487,0.002887305106958187,0.003689112431038915,0.05999922752380371,2019-07-26 14:12:55:882,10.035820685931151,23.708369074182784,0,-23.840293884277344,35.83540725708008,-37.93455505371094
-0.0028234098572283983,0.08837105333805084,9.8187894821167,0.0003755974224100973,-0.0013747930645065694,-0.0032367971463552496,0.07000184059143066,2019-07-26 14:12:55:892,13.435546908365678,26.823677550954685,0,-23.840293884277344,35.83540725708008,-37.93455505371094
0.009150338359177113,0.071607805788517,9.823579788208008,0.001973884285473317,-0.0003092685216403804,0.0018244444078771805,0.08000016212463379,2019-07-26 14:12:55:902,9.568076976916185,29.877742986410226,0,-23.840293884277344,35.83540725708008,-37.93455505371094
-0.029165657237172127,0.06681830435991287,9.852315902709961,-0.0009563083130638975,-0.003239461087668304,-0.004568702784301372,0.09000039100646973,2019-07-26 14:12:55:912,12.975142205847009,32.87295363627888,0,-23.840293884277344,35.83540725708008,-37.93455505371094
-0.021981406956911087,0.0452655591070652,9.854711532592773,-0.001489070633260928,-0.0035058422152575287,0.000226157593577897,0.09998536109924316,2019-07-26 14:12:55:922,16.3150489132151,35.811065931116396,0,-23.840293884277344,35.83540725708008,-37.93455505371094
0.004360839258879423,0.08358155190944672,9.785263061523438,0.001973884285473317,-0.003239461087668304,0.0012916821526987312,0.11000442504882812,2019-07-26 14:12:55:932,12.391081037141802,38.6839464810542,0,-23.840293884277344,35.83540725708008,-37.93455505371094
-0.014797158539295197,0.05723930895328522,9.77807903289795,0.0017075031578840923,0.0015553994690120636,-0.0027040348911768,0.12000226974487305,2019-07-26 14:12:55:942,15.740652138200733,41.502601067619274,0,-23.240537643432617,36.735042572021484,-38.53430938720703
-0.012402408756315708,0.08118680119514465,9.766105651855469,0.002506646540651766,-0.0016411741920957937,0.0050210183290593634,0.13000106811523438,2019-07-26 14:12:55:952,19.025305253760358,44.26161582321899,0,-23.240537643432617,36.735042572021484,-38.53430938720703
0.0067555890418589115,0.062028806656599045,9.809210777282715,0.0006419785825086126,-0.0037722233428467535,0.0012916821526987312,0.14000320434570312,2019-07-26 14:12:55:962,15.047706889691264,46.96877682835428,0,-23.240537643432617,36.735042572021484,-38.53430938720703
0.009150338359177113,-0.0074189347214996815,9.823579788208008,-0.0004235460253761578,0.00075625608624439,-0.001372129253230677,0.14996814727783203,2019-07-26 14:12:55:972,11.147396985797073,42.430503693375755,0,-23.240537643432617,36.735042572021484,-38.53430938720703
-0.033955156803131104,0.03089706040918827,9.809210777282715,-0.002554595143617826,-0.003239461087668304,-0.005634227814806921,0.16003108024597168,2019-07-26 14:12:55:982,14.52231280829273,45.179727654361166,0,-23.240537643432617,36.735042572021484,-38.53430938720703
0.016334587708115578,0.06442355364561081,9.811605453491211,-0.001489070633260928,-0.002973079960079079,0.004221874686217364,0.17000508308410645,2019-07-26 14:12:55:992,10.635439337581605,47.869443000620976,0,-23.240537643432617,36.735042572021484,-38.53430938720703
-0.029165657237172127,0.07879205793142319,9.766105651855469,0.0017075031578840923,-0.0008420308093281202,-0.0024376537635875752,0.18000340461730957,2019-07-26 14:12:56:002,14.019781099787014,50.501850597981274,0,-23.240537643432617,36.735042572021484,-38.53430938720703
0.023518836125731468,0.054844558238983154,9.809210777282715,-0.002288214016028602,-0.004038604470435978,-0.002171272635998351,0.18999147415161133,2019-07-26 14:12:56:012,10.144397917041196,53.08668998762752,0,-23.240537643432617,36.735042572021484,-38.53430938720703
-0.014797158539295197,0.0907658040523529,9.821184158325195,0.0006419785825086126,0.0010226372138336143,-0.0040359407891972475,0.19996047019958496,2019-07-26 14:12:56:022,13.53921102882082,55.614006769331006,0,-23.240537643432617,36.735042572021484,-38.53430938720703
0.04746633395552635,0.03568655997514725,9.833158493041992,-0.002288214016028602,0.0034200676222109604,-0.003503178534018799,0.2103731632232666,2019-07-26 14:12:56:033,9.671958680001095,58.09890574126894,0,-23.240537643432617,36.735042572021484,-38.53430938720703
0.016334587708115578,0.05963405594229698,9.780473709106445,-0.0009563083130638975,-0.005104129240867201,-0.0032367971463552496,0.2199687957763672,2019-07-26 14:12:56:042,5.883183395321746,60.53045602452245,0,-23.240537643432617,36.735042572021484,-38.53430938720703
-0.019586658105254173,0.03568655997514725,9.72060489654541,-0.0033537385263855,-0.0016411741920957937,-0.0040359407891972475,0.23000288009643555,2019-07-26 14:12:56:052,9.364135411158118,62.91752954326981,0,-23.240537643432617,36.735042572021484,-38.53430938720703
0.049861084669828415,0.054844558238983154,9.837947845458984,0.002240265413062541,0.0015553994690120636,-0.0011057481256414525,0.23997735977172852,2019-07-26 14:12:56:062,5.581789303035007,65.25153607647684,0,-25.489622116088867,35.08571243286133,-37.484737396240234
0.02591358684003353,0.071607805788517,9.734973907470703,-0.001489070633260928,-0.007235178261580997,-0.0005729858704630034,0.24995064735412598,2019-07-26 14:12:56:072,1.8772555202326946,67.53891034294189,0,-25.489622116088867,35.08571243286133,-37.484737396240234
0.0067555890418589115,0.0069495635107159615,9.811605453491211,0.0017075031578840923,-0.0003092685216403804,-0.001372129253230677,0.25997400283813477,2019-07-26 14:12:56:082,-1.759326533097486,69.78635948388118,0,-25.489622116088867,35.08571243286133,-37.484737396240234
-0.005218159407377243,0.0452655591070652,9.828369140625,0.0003755974224100973,0.00075625608624439,-0.0040359407891972475,0.26999902725219727,2019-07-26 14:12:56:092,1.8748258992031646,71.98514327488859,0,-25.489622116088867,35.08571243286133,-37.484737396240234
0.009150338359177113,0.062028806656599045,9.828369140625,0.0006419785825086126,-4.288736560552649e-05,-4.022355432963424e-05,0.2799980640411377,2019-07-26 14:12:56:102,-1.7615796780256787,74.1378479671679,0,-25.489622116088867,35.08571243286133,-37.484737396240234
0.01872933655977249,0.054844558238983154,9.864290237426758,0.0014411220302948675,-0.0064360348788133235,0.0023572067930927925,0.28999924659729004,2019-07-26 14:12:56:112,-5.320558083957918,76.24791060306774,0,-25.489622116088867,35.08571243286133,-37.484737396240234
0.01393983792513609,0.062028806656599045,9.806816101074219,-0.002820976271207051,-0.0037722233428467535,0.003689112431038915,0.2999899387359619,2019-07-26 14:12:56:122,-8.8104019419896,78.31728699035897,0,-25.489622116088867,35.08571243286133,-37.484737396240234
-0.0028234098572283983,0.06442355364561081,9.797237396240234,-0.002021832888439377,-0.0013747930645065694,-4.022355432963424e-05,0.3099949359893799,2019-07-26 14:12:56:132,-5.033751807810952,80.34454200215029,0,-25.489622116088867,35.08571243286133,-37.484737396240234
-0.007612909190356731,0.05723930895328522,9.809210777282715,0.002506646540651766,0.002620923979368962,-0.005634227814806921,0.31999778747558594,2019-07-26 14:12:56:142,-1.3354381791974017,82.32955664103389,0,-25.489622116088867,35.08571243286133,-37.484737396240234
-0.007612909190356731,0.062028806656599045,9.794842720031738,-0.00015716488153228781,0.00022349378230200473,0.004754637201470138,0.32999730110168457,2019-07-26 14:12:56:152,2.290254451801921,84.27579699142521,0,-25.489622116088867,35.08571243286133,-37.484737396240234
0.0019660894758999348,0.054844558238983154,9.804421424865723,0.00010921627043890474,0.0004898749261458747,-0.0011057481256414525,0.3399949073791504,2019-07-26 14:12:56:162,-1.3555958440115123,86.18380971726691,0,-25.489622116088867,35.08571243286133,-37.484737396240234
-0.026770906522870064,0.03568655997514725,9.873868942260742,0.001174740902705643,-0.0061696537512241,-0.0005729858704630034,0.3499631881713867,2019-07-26 14:12:56:172,2.271862436664002,88.05533440058494,0,-25.489622116088867,35.08571243286133,-37.484737396240234
-0.05311315506696701,0.0452655591070652,9.893027305603027,-0.0012226895056717034,-0.0024403177049006305,-0.0048350839118905965,0.35999345779418945,2019-07-26 14:12:56:182,5.8216474995199645,89.88967322753044,0,-25.489622116088867,35.08571243286133,-37.484737396240234
-0.041139405220746994,0.06442355364561081,9.814000129699707,-0.00734945596037252,0.002887305106958187,0.000226157593577897,0.3699960708618164,2019-07-26 14:12:56:192,9.29878936112717,91.68848534856085,0,-23.990232467651367,35.08571243286133,-39.58388137817383
-0.007612909190356731,0.047660309821367264,9.845131874084473,-0.00015716488153228781,-0.0024403177049006305,-0.0029704160187660244,0.37999844551086426,2019-07-26 14:12:56:202,12.713298036568585,93.4492565732993,0,-23.990232467651367,35.08571243286133,-39.58388137817383
0.021124087274074554,0.03089706040918827,9.825974464416504,0.0017075031578840923,-0.005370510368456426,-0.0024376537635875752,0.38999438285827637,2019-07-26 14:12:56:212,8.86450989471874,95.1757098344818,0,-23.990232467651367,35.08571243286133,-39.58388137817383
-0.007612909190356731,0.062028806656599045,9.751736640930176,0.0009083597100978372,0.0018217805966012882,0.0004925387374217668,0.3999965190887451,2019-07-26 14:12:56:222,12.285301966773993,96.86439664918119,0,-23.990232467651367,35.08571243286133,-39.58388137817383
-0.019586658105254173,0.026107560843229294,9.794842720031738,0.0033057899234194394,0.0036864487498001856,-4.022355432963424e-05,0.40999865531921387,2019-07-26 14:12:56:232,15.635234075342854,98.52219776166413,0,-23.990232467651367,35.08571243286133,-39.58388137817383
0.021124087274074554,0.07400255650281906,9.883447647094727,0.0003755974224100973,0.0023545428517797373,0.006352923967005486,0.4200012683868408,2019-07-26 14:12:56:242,11.72365615998844,100.14296294314784,0,-23.990232467651367,35.08571243286133,-39.58388137817383
-0.01000765897333622,0.07879205793142319,9.833158493041992,0.0006419785825086126,-0.0024403177049006305,-0.0005729858704630034,0.42999768257141113,2019-07-26 14:12:56:252,15.089386529766967,101.73056143964911,0,-23.990232467651367,35.08571243286133,-39.58388137817383
-0.0028234098572283983,0.05244980752468109,9.830763816833496,-0.0009563083130638975,-0.002706698832489855,-0.00030660471036448813,0.4399995803833008,2019-07-26 14:12:56:262,18.388789786676412,103.29037356422256,0,-23.990232467651367,35.08571243286133,-39.58388137817383
-0.005218159407377243,0.054844558238983154,9.761316299438477,-0.0009563083130638975,-0.0008420308093281202,-0.0011057481256414525,0.44997501373291016,2019-07-26 14:12:56:272,21.62087305037922,104.81866340987128,0,-23.990232467651367,35.08571243286133,-39.58388137817383
0.009150338359177113,0.03568655997514725,9.782868385314941,-0.0038865007815639487,0.0023545428517797373,-0.0024376537635875752,0.45999622344970703,2019-07-26 14:12:56:282,17.588202536604012,106.32029691098126,0,-23.990232467651367,35.08571243286133,-39.58388137817383
0.004360839258879423,0.062028806656599045,9.8187894821167,-0.004152881909153174,-0.0064360348788133235,-0.0008393669980522279,0.4699978828430176,2019-07-26 14:12:56:292,13.64056184819925,107.78898413471491,0,-23.990232467651367,35.08571243286133,-39.58388137817383
-0.014797158539295197,0.0907658040523529,9.864290237426758,0.00010921627043890474,-0.0016411741920957937,-0.0005729858704630034,0.4799659252166748,2019-07-26 14:12:56:302,16.966950227254184,109.22259953220737,0,-23.990232467651367,35.08571243286133,-39.58388137817383
-0.026770906522870064,0.05005505681037903,9.84034252166748,-0.00015716488153228781,0.001289018341422839,-0.0011057481256414525,0.49000096321105957,2019-07-26 14:12:56:312,20.223767419345958,110.63240719835483,0,-23.690353393554688,35.08571243286133,-39.58388137817383
0.009150338359177113,0.040476057678461075,9.809210777282715,0.001973884285473317,0.0010226372138336143,-0.0029704160187660244,0.4999978542327881,2019-07-26 14:12:56:322,16.21978698563887,112.01392266460176,0,-23.690353393554688,35.08571243286133,-39.58388137817383
0.03309783712029457,0.05005505681037903,9.792448043823242,-0.0012226895056717034,-0.0005756496817388956,-0.00616699006998537,0.5099968910217285,2019-07-26 14:12:56:332,12.299587546678623,113.3684732749705,0,-23.690353393554688,35.08571243286133,-39.58388137817383
0.004360839258879423,0.047660309821367264,9.787657737731934,0.0014411220302948675,-0.004837748113277977,-0.00030660471036448813,0.5200097560882568,2019-07-26 14:12:56:342,8.456826235990928,114.69471366925046,0,-23.690353393554688,35.08571243286133,-39.58388137817383
-0.021981406956911087,0.07639730721712112,9.773289680480957,0.0014411220302948675,0.00022349378230200473,-0.0027040348911768,0.5299961566925049,2019-07-26 14:12:56:352,11.88498708076088,115.9910539269429,0,-23.690353393554688,35.08571243286133,-39.58388137817383
-0.014797158539295197,0.047660309821367264,9.84034252166748,0.0003755974224100973,0.001289018341422839,-4.022355432963424e-05,0.5399978160858154,2019-07-26 14:12:56:362,15.244840297599877,117.26547187897376,0,-23.690353393554688,35.08571243286133,-39.58388137817383
-0.021981406956911087,0.08358155190944672,9.837947845458984,-0.002820976271207051,-0.002173936447274243,-0.0024376537635875752,0.549999475479126,2019-07-26 14:12:56:372,18.538603985698114,118.51201140648237,0,-23.690353393554688,35.08571243286133,-39.58388137817383
0.0067555890418589115,0.06921305507421494,9.86907958984375,0.0006419785825086126,-0.005903272623634875,-0.0029704160187660244,0.5599987506866455,2019-07-26 14:12:56:382,14.571930748076905,119.73337442077128,0,-23.690353393554688,35.08571243286133,-39.58388137817383
0.009150338359177113,0.08118680119514465,9.8187894821167,0.0027730276682409903,-0.0024403177049006305,0.0028899690482712416,0.5699560642242432,2019-07-26 14:12:56:392,10.682924421892956,120.92768172407692,0,-23.690353393554688,35.08571243286133,-39.58388137817383
-0.01000765897333622,0.08118680119514465,9.792448043823242,0.0014411220302948675,-0.0019075553196850185,0.0015580632802879558,0.5799617767333984,2019-07-26 14:12:56:402,14.069166535793848,122.09881814995305,0,-23.690353393554688,35.08571243286133,-39.58388137817383
0.004360839258879423,0.04287080839276314,9.849921226501465,0.00010921627043890474,-0.0011084119369173448,-0.0037695596616080236,0.5899958610534668,2019-07-26 14:12:56:412,10.188915027456375,123.25179280031486,0,-23.690353393554688,35.08571243286133,-39.58388137817383
0.042676832526922226,0.08118680119514465,9.873868942260742,-0.002021832888439377,-0.002973079960079079,-0.004568702784301372,0.600001335144043,2019-07-26 14:12:56:422,6.391759866172622,124.37847086961857,0,-23.690353393554688,35.08571243286133,-39.58388137817383
0.04507158324122429,0.09316055476665497,9.859500885009766,0.0033057899234194394,-0.002173936447274243,-0.0005729858704630034,0.6100006103515625,2019-07-26 14:12:56:432,2.670383628605719,125.47821817325107,0,-23.690353393554688,35.08571243286133,-39.58388137817383
0.0378873348236084,0.00934431329369545,9.768500328063965,-0.0017554517608501525,-0.002173936447274243,0.0012916821526987312,0.620006799697876,2019-07-26 14:12:56:442,-0.9773581905675113,126.5685439485795,0,-23.840293884277344,36.43516540527344,-38.83418655395508
0.05225583165884018,0.03808131068944931,9.79005241394043,0.00010921627043890474,-0.0003092685216403804,0.0018244444078771805,0.6300017833709717,2019-07-26 14:12:56:452,-4.551521026618651,127.6326544197198,0,-23.840293884277344,36.43516540527344,-38.83418655395508
0.023518836125731468,0.011739063076674938,9.833158493041992,-0.0009563083130638975,-0.002706698832489855,-0.0019048915084091261,0.639967679977417,2019-07-26 14:12:56:462,-8.056235198846375,128.67916844473442,0,-23.840293884277344,36.43516540527344,-38.83418655395508
0.01872933655977249,0.05723930895328522,9.780473709106445,0.003039408795830215,-0.0011084119369173448,0.000226157593577897,0.649960994720459,2019-07-26 14:12:56:472,-11.49229414517739,129.69717330545163,0,-23.840293884277344,36.43516540527344,-38.83418655395508
0.02591358684003353,0.05723930895328522,9.833158493041992,-0.0030873573987962753,-0.002706698832489855,-0.0029704160187660244,0.6599628925323486,2019-07-26 14:12:56:482,-14.857908310971418,130.69829335850994,0,-23.840293884277344,36.43516540527344,-38.83418655395508
-0.007612909190356731,0.03089706040918827,9.775684356689453,-0.002288214016028602,0.001289018341422839,0.0007589198975202821,0.6699953079223633,2019-07-26 14:12:56:492,-10.962368665685588,131.68199471266306,0,-23.840293884277344,36.43516540527344,-38.83418655395508
0.004360839258879423,0.0452655591070652,9.85710620880127,-0.004685644164331623,-0.002706698832489855,-0.001372129253230677,0.6800010204315186,2019-07-26 14:12:56:502,-14.341093656996248,132.64572509596803,0,-23.840293884277344,36.43516540527344,-38.83418655395508
-0.005218159407377243,0.04287080839276314,9.830763816833496,0.0009083597100978372,-0.002173936447274243,-0.001372129253230677,0.6899750232696533,2019-07-26 14:12:56:512,-10.453662545644539,133.58730470541556,0,-23.840293884277344,36.43516540527344,-38.83418655395508
0.0019660894758999348,0.07639730721712112,9.821184158325195,-0.002288214016028602,-0.0013747930645065694,0.002623587920682017,0.7000133991241455,2019-07-26 14:12:56:522,-13.843584988616268,134.50793466994168,0,-23.840293884277344,36.43516540527344,-38.83418655395508
-0.01000765897333622,0.08358155190944672,9.811605453491211,-0.0009563083130638975,0.00022349378230200473,-0.0008393669980522279,0.7100014686584473,2019-07-26 14:12:56:532,-9.968007443220397,135.408550893453,0,-23.840293884277344,36.43516540527344,-38.83418655395508
-0.019586658105254173,0.05963405594229698,9.773289680480957,0.0033057899234194394,-0.0013747930645065694,-0.0029704160187660244,0.7199969291687012,2019-07-26 14:12:56:542,-6.170172227672355,136.2915325313879,0,-23.840293884277344,36.43516540527344,-38.83418655395508
0.028308335691690445,0.03568655997514725,9.792448043823242,-0.0030873573987962753,0.0015553994690120636,0.006885686222183935,0.7299947738647461,2019-07-26 14:12:56:552,-9.64432930775683,137.16325901924537,0,-23.840293884277344,36.43516540527344,-38.83418655395508
-0.0004286601906642318,0.03089706040918827,9.823579788208008,-0.0004235460253761578,0.002088161724190513,0.0007589198975202821,0.7400004863739014,2019-07-26 14:12:56:562,-5.85266589435337,138.01662768072097,0,-23.990232467651367,35.68547058105469,-38.08449172973633
-0.02437615767121315,0.028502311557531357,9.77807903289795,0.003039408795830215,-0.0011084119369173448,0.002090825535466405,0.7499978542327881,2019-07-26 14:12:56:572,-2.137847060600748,138.85124871036996,0,-23.990232467651367,35.68547058105469,-38.08449172973633
-0.048323653638362885,0.07639730721712112,9.785263061523438,-0.0036201196539747244,0.00022349378230200473,-0.0032367971463552496,0.7599952220916748,2019-07-26 14:12:56:582,1.4991254656954927,139.66730947200642,0,-23.990232467651367,35.68547058105469,-38.08449172973633
0.016334587708115578,0.03808131068944931,9.830763816833496,-0.006017549802277746,-0.002706698832489855,-0.0005729858704630034,0.7699987888336182,2019-07-26 14:12:56:592,-2.1274326666528203,140.47290443660313,0,-23.990232467651367,35.68547058105469,-38.08449172973633
-0.03156040608882904,0.06442355364561081,9.806816101074219,0.001973884285473317,-0.0061696537512241,0.0015580632802879558,0.7799968719482422,2019-07-26 14:12:56:602,1.5148917890740874,141.25481051444297,0,-23.990232467651367,35.68547058105469,-38.08449172973633
-0.005218159407377243,0.047660309821367264,9.837947845458984,-0.0036201196539747244,-0.0013747930645065694,-0.0005729858704630034,0.7899975776672363,2019-07-26 14:12:56:612,5.084758145602522,142.02619575194672,0,-23.990232467651367,35.68547058105469,-38.08449172973633
-0.01719190739095211,0.07400255650281906,9.766105651855469,0.00010921627043890474,-0.0024403177049006305,-0.0011057481256414525,0.800020694732666,2019-07-26 14:12:56:622,8.582419158101805,142.77692737395392,0,-23.990232467651367,35.68547058105469,-38.08449172973633
-0.01719190739095211,0.028502311557531357,9.802026748657227,0.002240265413062541,-0.004571366985688751,0.0010253010251095067,0.8099889755249023,2019-07-26 14:12:56:632,12.011319614740023,143.516802829061,0,-23.990232467651367,35.68547058105469,-38.08449172973633
-0.03156040608882904,0.05723930895328522,9.794842720031738,0.0017075031578840923,-0.004038604470435978,0.0007589198975202821,0.8199977874755859,2019-07-26 14:12:56:642,15.369670597905309,144.23881071740132,0,-23.990232467651367,35.68547058105469,-38.08449172973633
-0.03874465450644493,0.047660309821367264,9.79005241394043,0.0009083597100978372,0.0018217805966012882,-0.00030660471036448813,0.8299531936645508,2019-07-26 14:12:56:652,18.656723821862805,144.94794818849272,0,-23.990232467651367,35.68547058105469,-38.08449172973633
-0.007612909190356731,0.0452655591070652,9.852315902709961,-0.0033537385263855,-0.0005756496817388956,-0.004568702784301372,0.8400111198425293,2019-07-26 14:12:56:662,21.883028992593857,145.64561848581025,0,-23.990232467651367,35.68547058105469,-38.08449172973633
0.0019660894758999348,0.03808131068944931,9.823579788208008,-0.002820976271207051,-0.0005756496817388956,-0.0008393669980522279,0.8499951362609863,2019-07-26 14:12:56:672,17.84592046595841,146.32984541538434,0,-23.990232467651367,35.68547058105469,-38.08449172973633
-0.01000765897333622,0.06442355364561081,9.79005241394043,-0.002021832888439377,-0.002973079960079079,-0.0048350839118905965,0.8599967956542969,2019-07-26 14:12:56:682,21.08950032820025,146.99684334986424,0,-23.990232467651367,35.68547058105469,-38.08449172973633
0.011545088142156601,0.06442355364561081,9.773289680480957,-0.0009563083130638975,0.002887305106958187,0.002090825535466405,0.8700017929077148,2019-07-26 14:12:56:692,17.06744195143838,147.64989018205955,0,-22.790719985961914,35.08571243286133,-37.18486022949219
-0.01000765897333622,0.05963405594229698,9.763710975646973,-0.002021832888439377,-0.0003092685216403804,-0.0027040348911768,0.879995584487915,2019-07-26 14:12:56:702,20.325092112375057,148.291028080415,0,-22.790719985961914,35.08571243286133,-37.18486022949219
0.01872933655977249,0.011739063076674938,9.780473709106445,0.0009083597100978372,-0.003239461087668304,0.0004925387374217668,0.8899974822998047,2019-07-26 14:12:56:712,16.322603962292487,148.92332198894186,0,-22.790719985961914,35.08571243286133,-37.18486022949219
0.023518836125731468,0.02371281199157238,9.787657737731934,-0.0038865007815639487,-0.002706698832489855,-0.0037695596616080236,0.8999993801116943,2019-07-26 14:12:56:722,12.400425503048433,149.54426199425757,0,-22.790719985961914,35.08571243286133,-37.18486022949219
0.03309783712029457,0.03808131068944931,9.809210777282715,-0.0017554517608501525,-0.005370510368456426,-0.004568702784301372,0.9100136756896973,2019-07-26 14:12:56:732,8.559303324895009,150.14991519694726,0,-22.790719985961914,35.08571243286133,-37.18486022949219
-0.005218159407377243,0.054844558238983154,9.756525993347168,-0.00015716488153228781,-0.0016411741920957937,0.0004925387374217668,0.9200038909912109,2019-07-26 14:12:56:742,11.988424994821358,150.74056356373384,0,-22.790719985961914,35.08571243286133,-37.18486022949219
0.021124087274074554,0.10034479945898056,9.835553169250488,-0.0038865007815639487,-0.0011084119369173448,0.0010253010251095067,0.9299967288970947,2019-07-26 14:12:56:752,8.151739531525589,151.31624247950307,0,-22.790719985961914,35.08571243286133,-37.18486022949219
0.03309783712029457,0.05723930895328522,9.816394805908203,0.003039408795830215,-0.0024403177049006305,-0.0008393669980522279,0.9399991035461426,2019-07-26 14:12:56:762,4.393938958484039,151.88152885307485,0,-22.790719985961914,35.08571243286133,-37.18486022949219
0.01872933655977249,0.02371281199157238,9.873868942260742,-0.000689927185474673,0.00022349378230200473,0.004488256073880914,0.9499967098236084,2019-07-26 14:12:56:772,0.7081083555219676,152.44153358239478,0,-22.790719985961914,35.08571243286133,-37.18486022949219
0.02591358684003353,0.00934431329369545,9.787657737731934,-0.00015716488153228781,-0.003239461087668304,-0.004302321916786473,0.9599967002868652,2019-07-26 14:12:56:782,-2.9012009665664333,152.99169714898056,0,-22.790719985961914,35.08571243286133,-37.18486022949219
0.030703086405992508,0.07400255650281906,9.811605453491211,0.0006419785825086126,-0.0064360348788133235,-0.0019048915084091261,0.9699959754943848,2019-07-26 14:12:56:792,-6.435977525659887,153.52286003014666,0,-22.790719985961914,35.08571243286133,-37.18486022949219
0.011545088142156601,0.06681830435991287,9.821184158325195,-0.002021832888439377,-0.0037722233428467535,-0.0027040348911768,0.9799602031707764,2019-07-26 14:12:56:802,-9.903800397257607,154.04573792269258,0,-22.790719985961914,35.08571243286133,-37.18486022949219
0.009150338359177113,0.05005505681037903,9.797237396240234,-0.0017554517608501525,-0.0008420308093281202,0.0004925387374217668,0.9899947643280029,2019-07-26 14:12:56:812,-13.304179704169924,154.55995770927436,0,-23.240537643432617,35.83540725708008,-37.33479690551758
0.01393983792513609,0.07639730721712112,9.809210777282715,-0.0012226895056717034,-0.005903272623634875,-0.0037695596616080236,1.000000238418579,2019-07-26 14:12:56:822,-16.63315116018773,155.06052088847815,0,-23.240537643432617,35.83540725708008,-37.33479690551758
0.004360839258879423,0.05963405594229698,9.849921226501465,0.0014411220302948675,0.0018217805966012882,-0.0016385103808199016,1.010002851486206,2019-07-26 14:12:56:832,-19.90100400233559,155.55156347668512,0,-23.240537643432617,35.83540725708008,-37.33479690551758
0.0067555890418589115,0.062028806656599045,9.739763259887695,0.0017075031578840923,0.00075625608624439,0.0023572067930927925,1.0199980735778809,2019-07-26 14:12:56:842,-23.10261353873877,156.03227610748377,0,-23.240537643432617,35.83540725708008,-37.33479690551758
0.028308335691690445,0.03808131068944931,9.816394805908203,-0.00015716488153228781,-0.003239461087668304,0.0004925387374217668,1.0299992561340332,2019-07-26 14:12:56:852,-26.235437539089585,156.5072734490117,0,-23.240537643432617,35.83540725708008,-37.33479690551758
-0.041139405220746994,0.05005505681037903,9.833158493041992,-0.000689927185474673,-0.0013747930645065694,0.000226157593577897,1.0399971008300781,2019-07-26 14:12:56:862,-22.114751198282388,156.97168213095858,0,-23.240537643432617,35.83540725708008,-37.33479690551758
-0.0004286601906642318,0.07639730721712112,9.861895561218262,0.001174740902705643,-0.005370510368456426,0.003689112431038915,1.0499939918518066,2019-07-26 14:12:56:872,-18.06949138629598,157.4227121725678,0,-23.240537643432617,35.83540725708008,-37.33479690551758
-0.019586658105254173,0.06442355364561081,9.830763816833496,0.005436839204207561,-0.0013747930645065694,0.002090825535466405,1.0599980354309082,2019-07-26 14:12:56:882,-14.10961240304254,157.86369454130718,0,-23.240537643432617,35.83540725708008,-37.33479690551758
0.004360839258879423,0.028502311557531357,9.84034252166748,-0.0009563083130638975,-0.004571366985688751,0.003689112431038915,1.0699923038482666,2019-07-26 14:12:56:892,-17.424346986719435,158.30363820131885,0,-23.240537643432617,35.83540725708008,-37.33479690551758
-0.019586658105254173,0.0452655591070652,9.835553169250488,0.0009083597100978372,0.0015553994690120636,0.0010253010251095067,1.0799987316131592,2019-07-26 14:12:56:902,-13.47901595235465,158.73178132736865,0,-23.240537643432617,35.83540725708008,-37.33479690551758
-0.03156040608882904,0.03808131068944931,9.837947845458984,-0.0009563083130638975,-0.002173936447274243,-0.005634227814806921,1.0900006294250488,2019-07-26 14:12:56:912,-9.611890855274186,159.15324711282028,0,-23.240537643432617,35.83540725708008,-37.33479690551758
0.009150338359177113,0.08597630262374878,9.845131874084473,-0.001489070633260928,-0.003239461087668304,0.0039554935586281394,1.099994421005249,2019-07-26 14:12:56:922,-13.016770169063827,159.5610108797698,0,-23.240537643432617,35.83540725708008,-37.33479690551758
-0.021981406956911087,0.07879205793142319,9.845131874084473,-0.000689927185474673,-0.0011084119369173448,-0.0032367971463552496,1.109961748123169,2019-07-26 14:12:56:932,-9.158372929913124,159.96100605213593,0,-23.240537643432617,35.83540725708008,-37.33479690551758
0.023518836125731468,0.033291809260845184,9.744552612304688,-0.004952025291920847,-0.0011084119369173448,-4.022355432963424e-05,1.1199946403503418,2019-07-26 14:12:56:942,-12.571815348348505,160.3606606805153,0,-23.240537643432617,36.43516540527344,-38.83418655395508
0.016334587708115578,0.09555530548095703,9.804421424865723,0.0003755974224100973,-0.0037722233428467535,-0.001372129253230677,1.1299984455108643,2019-07-26 14:12:56:952,-15.9163509942531,160.74206858416832,0,-23.240537643432617,36.43516540527344,-38.83418655395508
-0.012402408756315708,0.07879205793142319,9.730184555053711,0.0014411220302948675,-0.0013747930645065694,-4.022355432963424e-05,1.1399955749511719,2019-07-26 14:12:56:962,-11.998712871903495,161.11713918562364,0,-23.240537643432617,36.43516540527344,-38.83418655395508
-0.014797158539295197,0.05963405594229698,9.835553169250488,-0.0009563083130638975,-0.002173936447274243,-0.0011057481256414525,1.1500017642974854,2019-07-26 14:12:56:972,-8.159241175064698,161.488385971168,0,-23.240537643432617,36.43516540527344,-38.83418655395508
-0.029165657237172127,0.05005505681037903,9.761316299438477,-0.005218406419510072,0.006083879158177532,-0.0040359407891972475,1.1599979400634766,2019-07-26 14:12:56:982,-4.402894984943071,161.85567116990023,0,-23.240537643432617,36.43516540527344,-38.83418655395508
0.05465058237314224,0.040476057678461075,9.8187894821167,-0.0033537385263855,0.0010226372138336143,-0.0024376537635875752,1.1699974536895752,2019-07-26 14:12:56:992,-7.909033259758219,162.215716986239,0,-23.240537643432617,36.43516540527344,-38.83418655395508
-0.007612909190356731,0.05963405594229698,9.854711532592773,0.0009083597100978372,-0.003239461087668304,0.0028899690482712416,1.1799957752227783,2019-07-26 14:12:57:002,-4.1499191832993505,162.5639584670975,0,-23.240537643432617,36.43516540527344,-38.83418655395508
0.004360839258879423,0.026107560843229294,9.871474266052246,-0.0036201196539747244,-0.004304985598025202,-0.0040359407891972475,1.1900060176849365,2019-07-26 14:12:57:012,-7.663994858638683,162.91168342120676,0,-23.240537643432617,36.43516540527344,-38.83418655395508
-0.01719190739095211,0.026107560843229294,9.79963207244873,-0.004419263036742399,-0.004837748113277977,-0.0008393669980522279,1.2000176906585693,2019-07-26 14:12:57:022,-3.9100057275832594,163.25288119078846,0,-23.240537643432617,36.43516540527344,-38.83418655395508
0.0019660894758999348,0.062028806656599045,9.84034252166748,0.0006419785825086126,-0.0003092685216403804,0.0012916821526987312,1.209995985031128,2019-07-26 14:12:57:032,-7.431403383448531,163.58024067186898,0,-23.240537643432617,36.43516540527344,-38.83418655395508
-0.033955156803131104,0.0452655591070652,9.888237953186035,-0.002021832888439377,-0.0013747930645065694,0.003156350175860466,1.2199978828430176,2019-07-26 14:12:57:042,-3.6859381615637914,163.9045256891824,0,-23.240537643432617,36.43516540527344,-38.83418655395508
-0.04353415593504906,0.07639730721712112,9.773289680480957,0.0009083597100978372,-0.0003092685216403804,0.0012916821526987312,1.230003833770752,2019-07-26 14:12:57:052,-0.017149975470520218,164.2169674478244,0,-23.240537643432617,36.43516540527344,-38.83418655395508
-0.01000765897333622,0.08597630262374878,9.766105651855469,0.002240265413062541,-0.0008420308093281202,0.0007589198975202821,1.2399954795837402,2019-07-26 14:12:57:062,3.582491170132009,164.52128339053246,0,-22.940658569335938,36.13528823852539,-37.63467788696289
0.004360839258879423,0.054844558238983154,9.782868385314941,0.001174740902705643,0.0034200676222109604,0.0007589198975202821,1.2499876022338867,2019-07-26 14:12:57:072,-0.09056669728761646,164.8237744807913,0,-22.940658569335938,36.13528823852539,-37.63467788696289
-0.012402408756315708,0.08118680119514465,9.8187894821167,-0.00015716488153228781,-0.0024403177049006305,-0.0029704160187660244,1.2599997520446777,2019-07-26 14:12:57:082,3.511169096808891,165.11791254274436,0,-22.940658569335938,36.13528823852539,-37.63467788696289
0.01393983792513609,0.062028806656599045,9.852315902709961,0.00010921627043890474,-0.0011084119369173448,-0.0011057481256414525,1.2699995040893555,2019-07-26 14:12:57:092,-0.15681059758742233,165.40827853922698,0,-22.940658569335938,36.13528823852539,-37.63467788696289
0.0378873348236084,0.028502311557531357,9.835553169250488,-0.0009563083130638975,0.002620923979368962,-0.001372129253230677,1.2799968719482422,2019-07-26 14:12:57:102,-3.75073150716143,165.69732906950316,0,-22.940658569335938,36.13528823852539,-37.63467788696289
0.030703086405992508,0.0069495635107159615,9.845131874084473,-0.0030873573987962753,-0.0019075553196850185,-0.0008393669980522279,1.2899954319000244,2019-07-26 14:12:57:112,-7.271072294002066,165.98430689716594,0,-22.940658569335938,36.13528823852539,-37.63467788696289
0.05225583165884018,0.05723930895328522,9.84034252166748,-0.002554595143617826,-0.0013747930645065694,0.002623587920682017,1.2999944686889648,2019-07-26 14:12:57:122,-10.718793802736156,166.25938953559367,0,-22.940658569335938,36.13528823852539,-37.63467788696289
-0.02437615767121315,0.03808131068944931,9.79963207244873,-0.0004235460253761578,0.003153686234547411,0.002090825535466405,1.3099985122680664,2019-07-26 14:12:57:132,-6.909039842451913,166.52998666295704,0,-22.940658569335938,36.13528823852539,-37.63467788696289
0.02591358684003353,0.06921305507421494,9.787657737731934,0.00010921627043890474,0.001289018341422839,-0.003503178534018799,1.3199951648712158,2019-07-26 14:12:57:142,-10.368548691604781,166.7912224613308,0,-22.940658569335938,36.13528823852539,-37.63467788696289
-0.014797158539295197,0.040476057678461075,9.821184158325195,-0.004952025291920847,-0.0035058422152575287,0.0004925387374217668,1.330005407333374,2019-07-26 14:12:57:152,-6.560933676636183,167.05345877902542,0,-22.940658569335938,36.13528823852539,-37.63467788696289
-0.007612909190356731,0.05244980752468109,9.854711532592773,-0.002554595143617826,-0.0019075553196850185,0.0007589198975202821,1.3399927616119385,2019-07-26 14:12:57:162,-2.829530504281056,167.307723333402,0,-22.940658569335938,36.13528823852539,-37.63467788696289
-0.012402408756315708,0.03568655997514725,9.852315902709961,0.0049040769490291125,-4.288736560552649e-05,0.004488256073880914,1.349994421005249,2019-07-26 14:12:57:172,0.8256416767522361,167.55466411796755,0,-22.940658569335938,36.13528823852539,-37.63467788696289
-0.0004286601906642318,0.047660309821367264,9.854711532592773,-0.0009563083130638975,-0.003239461087668304,-0.003503178534018799,1.3599979877471924,2019-07-26 14:12:57:182,4.410898599953031,167.79856604825557,0,-22.940658569335938,36.13528823852539,-37.63467788696289
0.011545088142156601,0.08597630262374878,9.77807903289795,0.001973884285473317,0.0034200676222109604,0.0015580632802879558,1.369994878768921,2019-07-26 14:12:57:192,0.7221138565013789,168.03141123736233,0,-24.290109634399414,35.08571243286133,-39.88376235961914
-0.007612909190356731,0.028502311557531357,9.842737197875977,0.0006419785825086126,-0.0013747930645065694,0.0010253010251095067,1.3800139427185059,2019-07-26 14:12:57:202,4.307558682065954,168.2671035556174,0,-24.290109634399414,35.08571243286133,-39.88376235961914
0.0067555890418589115,0.07400255650281906,9.79963207244873,0.002240265413062541,0.0004898749261458747,0.000226157593577897,1.3899767398834229,2019-07-26 14:12:57:212,0.6219234292924569,168.4918549669539,0,-24.290109634399414,35.08571243286133,-39.88376235961914
-0.007612909190356731,0.06681830435991287,9.79005241394043,-0.0009563083130638975,-0.0037722233428467535,-0.0016385103808199016,1.3999991416931152,2019-07-26 14:12:57:222,4.210716720873804,168.71473514380037,0,-24.290109634399414,35.08571243286133,-39.88376235961914
0.011545088142156601,0.033291809260845184,9.792448043823242,-0.000689927185474673,0.0010226372138336143,0.006086542839416261,1.4100000858306885,2019-07-26 14:12:57:232,0.5272791323419104,168.9369320668775,0,-24.290109634399414,35.08571243286133,-39.88376235961914
-0.005218159407377243,0.04287080839276314,9.849921226501465,-0.0012226895056717034,-0.0008420308093281202,0.008483972987719282,1.4199988842010498,2019-07-26 14:12:57:242,4.116599224271404,169.15389242870657,0,-24.290109634399414,35.08571243286133,-39.88376235961914
0.0378873348236084,0.071607805788517,9.802026748657227,0.0027730276682409903,-0.0008420308093281202,-0.0027040348911768,1.4299931526184082,2019-07-26 14:12:57:252,0.43916900208273946,169.36088718916992,0,-24.290109634399414,35.08571243286133,-39.88376235961914
0.011545088142156601,0.06921305507421494,9.811605453491211,0.004104933306187114,0.00022349378230200473,-0.0011057481256414525,1.4399960041046143,2019-07-26 14:12:57:262,-3.16839153357247,169.56328048674376,0,-24.290109634399414,35.08571243286133,-39.88376235961914
-0.03634990379214287,0.05244980752468109,9.816394805908203,-0.0004235460253761578,-0.003239461087668304,-0.0040359407891972475,1.4499974250793457,2019-07-26 14:12:57:272,0.4925522265917701,169.7661300680204,0,-24.290109634399414,35.08571243286133,-39.88376235961914
-0.021981406956911087,0.05723930895328522,9.885843276977539,-0.0030873573987962753,-0.005104129240867201,-0.0024376537635875752,1.459998369216919,2019-07-26 14:12:57:282,4.083019447979508,169.96590636814688,0,-24.290109634399414,35.08571243286133,-39.88376235961914
-0.0004286601906642318,0.07879205793142319,9.816394805908203,-0.002021832888439377,-0.002173936447274243,-0.003503178534018799,1.4700093269348145,2019-07-26 14:12:57:292,7.602531019351792,170.15852715790916,0,-24.290109634399414,35.08571243286133,-39.88376235961914
-0.005218159407377243,0.08597630262374878,9.821184158325195,-0.000689927185474673,0.0034200676222109604,0.0004925387374217668,1.4799606800079346,2019-07-26 14:12:57:302,11.047960533564394,170.3457108412691,0,-24.290109634399414,35.08571243286133,-39.88376235961914
0.0019660894758999348,0.054844558238983154,9.821184158325195,0.004104933306187114,0.004485591872493534,0.002623587920682017,1.4900023937225342,2019-07-26 14:12:57:312,7.224701562197978,170.53008301146187,0,-24.589988708496094,35.38559341430664,-38.38437271118164
0.009150338359177113,0.08837105333805084,9.809210777282715,0.0006419785825086126,0.00075625608624439,0.004221874686217364,1.499995231628418,2019-07-26 14:12:57:322,3.480852143882897,170.7087978798146,0,-24.589988708496094,35.38559341430664,-38.38437271118164
0.03309783712029457,0.09316055476665497,9.766105651855469,-0.0033537385263855,0.0004898749261458747,-0.0024376537635875752,1.5100131034851074,2019-07-26 14:12:57:332,-0.18515690236033944,170.88557765375126,0,-24.589988708496094,35.38559341430664,-38.38437271118164
0.0067555890418589115,0.08837105333805084,9.734973907470703,0.0017075031578840923,-4.288736560552649e-05,0.0010253010251095067,1.5199997425079346,2019-07-26 14:12:57:342,-3.7806345068353986,171.05650664278073,0,-24.589988708496094,35.38559341430664,-38.38437271118164
0.011545088142156601,0.03568655997514725,9.770895004272461,0.0003755974224100973,-0.0016411741920957937,-4.022355432963424e-05,1.529998779296875,2019-07-26 14:12:57:352,-7.302746398772586,171.23098038634998,0,-24.589988708496094,35.38559341430664,-38.38437271118164
-0.012402408756315708,0.047660309821367264,9.792448043823242,0.0014411220302948675,-0.0013747930645065694,0.0007589198975202821,1.5399954319000244,2019-07-26 14:12:57:362,-3.557371118064359,171.39997467985404,0,-24.589988708496094,35.38559341430664,-38.38437271118164
-0.014797158539295197,0.018923312425613403,9.768500328063965,0.001973884285473317,-0.005104129240867201,0.0018244444078771805,1.5500025749206543,2019-07-26 14:12:57:372,0.11490850091850957,171.56864622288668,0,-24.589988708496094,35.38559341430664,-38.38437271118164
-0.007612909190356731,0.03808131068944931,9.828369140625,0.00010921627043890474,0.0023545428517797373,0.0010253010251095067,1.5600030422210693,2019-07-26 14:12:57:382,3.710400587443247,171.73277199211643,0,-24.589988708496094,35.38559341430664,-38.38437271118164
0.028308335691690445,0.03808131068944931,9.785263061523438,-0.004685644164331623,0.001289018341422839,-0.005101465039479822,1.5699756145477295,2019-07-26 14:12:57:392,0.038785852973829194,171.89628078144864,0,-24.589988708496094,35.38559341430664,-38.38437271118164
0.04507158324122429,0.03089706040918827,9.806816101074219,-0.0009563083130638975,0.006083879158177532,-0.00030660471036448813,1.5799822807312012,2019-07-26 14:12:57:402,-3.5601417037247343,172.05528221427417,0,-24.589988708496094,35.38559341430664,-38.38437271118164
0.0378873348236084,0.10034479945898056,9.785263061523438,-0.0004235460253761578,-0.0016411741920957937,0.0010253010251095067,1.5899710655212402,2019-07-26 14:12:57:412,-7.083581564047984,172.2026635311824,0,-24.589988708496094,35.38559341430664,-38.38437271118164
0.02591358684003353,0.05723930895328522,9.770895004272461,-0.000689927185474673,0.0018217805966012882,-0.0032367971463552496,1.5999901294708252,2019-07-26 14:12:57:422,-10.539895711575012,172.35228553062515,0,-24.589988708496094,35.38559341430664,-38.38437271118164
0.009150338359177113,0.06681830435991287,9.8187894821167,-0.002288214016028602,-0.0003092685216403804,-0.0029704160187660244,1.610002040863037,2019-07-26 14:12:57:432,-13.92785603388775,172.4987281759783,0,-24.589988708496094,35.38559341430664,-38.38437271118164
-0.0004286601906642318,0.033291809260845184,9.780473709106445,-0.00015716488153228781,-0.0035058422152575287,0.0034227313034496903,1.620013952255249,2019-07-26 14:12:57:442,-10.04737826616331,172.64494139200752,0,-23.840293884277344,34.93577575683594,-38.53430938720703
-0.012402408756315708,0.03089706040918827,9.806816101074219,0.001174740902705643,0.0023545428517797373,-0.0011057481256414525,1.6299664974212646,2019-07-26 14:12:57:452,-6.249195706515826,172.78777580362987,0,-23.840293884277344,34.93577575683594,-38.53430938720703
0.04028208553791046,0.062028806656599045,9.792448043823242,-0.0033537385263855,-0.002173936447274243,-0.0016385103808199016,1.6400296688079834,2019-07-26 14:12:57:462,-9.718269622215953,172.9266567681973,0,-23.840293884277344,34.93577575683594,-38.53430938720703
0.016334587708115578,0.08118680119514465,9.792448043823242,-0.002288214016028602,-0.004571366985688751,0.000226157593577897,1.6499664783477783,2019-07-26 14:12:57:472,-13.11944215604132,173.05990005366175,0,-23.840293884277344,34.93577575683594,-38.53430938720703
0.0019660894758999348,0.08118680119514465,9.794842720031738,-0.002554595143617826,0.001289018341422839,-0.0037695596616080236,1.6600022315979004,2019-07-26 14:12:57:482,-16.457549666516094,173.1906436159602,0,-23.840293884277344,34.93577575683594,-38.53430938720703
0.016334587708115578,0.05005505681037903,9.849921226501465,0.004104933306187114,0.004219211004978634,0.003156350175860466,1.6699848175048828,2019-07-26 14:12:57:492,-19.72886330489866,173.31870661100118,0,-23.840293884277344,34.93577575683594,-38.53430938720703
0.0019660894758999348,0.062028806656599045,9.833158493041992,0.0003755974224100973,-0.0011084119369173448,0.0007589198975202821,1.679980754852295,2019-07-26 14:12:57:502,-22.933434799927834,173.44489318251482,0,-23.840293884277344,34.93577575683594,-38.53430938720703
0.030703086405992508,0.06921305507421494,9.890632629394531,-0.0009563083130638975,-0.0008420308093281202,-0.004568702784301372,1.690002202987671,2019-07-26 14:12:57:512,-26.07073508322983,173.56851463441777,0,-23.840293884277344,34.93577575683594,-38.53430938720703
-0.007612909190356731,0.071607805788517,9.802026748657227,0.0006419785825086126,0.001289018341422839,0.002090825535466405,1.6999902725219727,2019-07-26 14:12:57:522,-21.950933294571467,173.68841306954945,0,-23.840293884277344,34.93577575683594,-38.53430938720703
0.028308335691690445,0.05963405594229698,9.806816101074219,-0.0012226895056717034,-0.0019075553196850185,0.0015580632802879558,1.7099978923797607,2019-07-26 14:12:57:532,-25.107534934351023,173.80836378233963,0,-23.840293884277344,34.93577575683594,-38.53430938720703
0.009150338359177113,0.047660309821367264,9.885843276977539,0.0006419785825086126,-0.0024403177049006305,0.0010253010251095067,1.7199816703796387,2019-07-26 14:12:57:542,-28.202955564010125,173.9263121286551,0,-23.840293884277344,34.93577575683594,-38.53430938720703
-0.005218159407377243,0.011739063076674938,9.814000129699707,-0.002021832888439377,-0.0003092685216403804,-0.0024376537635875752,1.7299916744232178,2019-07-26 14:12:57:552,-24.03933191489857,174.04755158646645,0,-23.840293884277344,34.93577575683594,-38.53430938720703
-0.019586658105254173,0.026107560843229294,9.849921226501465,0.002240265413062541,-0.004038604470435978,-0.0005729858704630034,1.739989995956421,2019-07-26 14:12:57:562,-19.9585566468958,174.16230557763848,0,-23.690353393554688,36.28522491455078,-38.38437271118164
0.023518836125731468,0.05005505681037903,9.854711532592773,0.0017075031578840923,-0.0008420308093281202,0.002090825535466405,1.7499942779541016,2019-07-26 14:12:57:572,-23.156177724050238,174.2722798934547,0,-23.690353393554688,36.28522491455078,-38.38437271118164
0.0019660894758999348,0.06681830435991287,9.876263618469238,-0.0009563083130638975,0.0004898749261458747,0.004754637201470138,1.7599806785583496,2019-07-26 14:12:57:582,-26.29310073967439,174.37961790613704,0,-23.690353393554688,36.28522491455078,-38.38437271118164
-0.033955156803131104,0.05963405594229698,9.830763816833496,0.004104933306187114,-0.0013747930645065694,-0.0011057481256414525,1.7699975967407227,2019-07-26 14:12:57:592,-22.170423416030992,174.48276562043384,0,-23.690353393554688,36.28522491455078,-38.38437271118164
-0.0028234098572283983,0.033291809260845184,9.727788925170898,0.0009083597100978372,-0.0016411741920957937,-0.0005729858704630034,1.7799873352050781,2019-07-26 14:12:57:602,-18.126426968716224,174.5886790902604,0,-23.690353393554688,36.28522491455078,-38.38437271118164
0.004360839258879423,0.04287080839276314,9.837947845458984,-0.004152881909153174,0.00022349378230200473,-0.0024376537635875752,1.7899928092956543,2019-07-26 14:12:57:612,-21.363516042769007,174.6942450996778,0,-23.690353393554688,36.28522491455078,-38.38437271118164
-0.02437615767121315,0.071607805788517,9.787657737731934,0.004104933306187114,0.0010226372138336143,-0.0011057481256414525,1.7999811172485352,2019-07-26 14:12:57:622,-17.339673156366832,174.7896744568441,0,-23.690353393554688,36.28522491455078,-38.38437271118164
0.011545088142156601,0.08358155190944672,9.806816101074219,-0.0038865007815639487,0.0004898749261458747,-0.002171272635998351,1.8099794387817383,2019-07-26 14:12:57:632,-20.591805681047205,174.8862966910946,0,-23.690353393554688,36.28522491455078,-38.38437271118164
0.030703086405992508,0.0907658040523529,9.842737197875977,0.001174740902705643,0.00022349378230200473,0.0004925387374217668,1.820000410079956,2019-07-26 14:12:57:642,-23.77652080507042,174.9773428806917,0,-23.690353393554688,36.28522491455078,-38.38437271118164
0.030703086405992508,0.05723930895328522,9.802026748657227,0.00010921627043890474,-0.002973079960079079,-0.0029704160187660244,1.8299834728240967,2019-07-26 14:12:57:652,-26.895734473274988,175.0710432604348,0,-23.690353393554688,36.28522491455078,-38.38437271118164
0.016334587708115578,0.040476057678461075,9.802026748657227,0.004371314693850663,-0.0013747930645065694,0.0034227313034496903,1.8399975299835205,2019-07-26 14:12:57:662,-29.955137144945038,175.16243259117272,0,-23.690353393554688,36.28522491455078,-38.38437271118164
0.004360839258879423,0.054844558238983154,9.828369140625,0.0006419785825086126,0.0015553994690120636,0.002090825535466405,1.8499798774719238,2019-07-26 14:12:57:672,-32.9563977732748,175.25242969962972,0,-23.690353393554688,36.28522491455078,-38.38437271118164
0.0067555890418589115,0.09316055476665497,9.8187894821167,0.0017075031578840923,-0.002973079960079079,-0.004302321916786473,1.8599905967712402,2019-07-26 14:12:57:682,-35.89481022763409,175.33554921031364,0,-23.690353393554688,36.28522491455078,-38.38437271118164
0.042676832526922226,0.06921305507421494,9.895421981811523,-0.0030873573987962753,-0.0003092685216403804,-0.002171272635998351,1.869985580444336,2019-07-26 14:12:57:692,-38.77179839882658,175.42255598247476,0,-22.940658569335938,35.53553009033203,-38.83418655395508
-0.007612909190356731,0.07639730721712112,9.775684356689453,-0.0012226895056717034,-4.288736560552649e-05,-0.004568702784301372,1.8799903392791748,2019-07-26 14:12:57:702,-34.397230730914,175.50583654085406,0,-22.940658569335938,35.53553009033203,-38.83418655395508
0.009150338359177113,0.05005505681037903,9.804421424865723,0.0006419785825086126,-0.004038604470435978,0.0012916821526987312,1.889988660812378,2019-07-26 14:12:57:712,-37.30594935827097,175.58950914481102,0,-22.940658569335938,35.53553009033203,-38.83418655395508
0.03309783712029457,0.01652856171131134,9.802026748657227,-0.0038865007815639487,0.0010226372138336143,0.000226157593577897,1.8999924659729004,2019-07-26 14:12:57:722,-40.15653547846705,175.67796977124877,0,-22.940658569335938,35.53553009033203,-38.83418655395508
-0.012402408756315708,0.071607805788517,9.792448043823242,-0.002021832888439377,0.0015553994690120636,-0.0029704160187660244,1.9099922180175781,2019-07-26 14:12:57:732,-35.75572943522945,175.75716618373445,0,-22.940658569335938,35.53553009033203,-38.83418655395508
0.04028208553791046,0.06921305507421494,9.849921226501465,0.0003755974224100973,-0.004038604470435978,-0.006966133452753044,1.919985055923462,2019-07-26 14:12:57:742,-38.633662507184525,175.83376016972394,0,-22.940658569335938,35.53553009033203,-38.83418655395508
0.01872933655977249,0.06442355364561081,9.794842720031738,0.00010921627043890474,-0.0019075553196850185,-0.003503178534018799,1.9299798011779785,2019-07-26 14:12:57:752,-41.45772755534853,175.90948675948658,0,-22.940658569335938,35.53553009033203,-38.83418655395508
-0.014797158539295197,0.04287080839276314,9.845131874084473,-0.00015716488153228781,-0.0037722233428467535,-0.0037695596616080236,1.9399938583374023,2019-07-26 14:12:57:762,-37.0281742296676,175.98639551717386,0,-22.940658569335938,35.53553009033203,-38.83418655395508
-0.04353415593504906,0.054844558238983154,9.811605453491211,-0.0004235460253761578,-0.0011084119369173448,-0.002171272635998351,1.949983835220337,2019-07-26 14:12:57:772,-32.692073398503,176.06049985805805,0,-22.940658569335938,35.53553009033203,-38.83418655395508
0.009150338359177113,0.0452655591070652,9.785263061523438,0.00010921627043890474,0.0010226372138336143,0.0004925387374217668,1.9599907398223877,2019-07-26 14:12:57:782,-35.63773497478697,176.13392765110513,0,-22.940658569335938,35.53553009033203,-38.83418655395508
0.04028208553791046,0.047660309821367264,9.802026748657227,0.0014411220302948675,-0.003239461087668304,0.0010253010251095067,1.9699952602386475,2019-07-26 14:12:57:792,-38.51845130968622,176.20486781268946,0,-22.940658569335938,35.53553009033203,-38.83418655395508
-0.04353415593504906,0.00934431329369545,9.758920669555664,-0.004419263036742399,-0.0019075553196850185,-0.0005729858704630034,1.9799854755401611,2019-07-26 14:12:57:802,-34.1521240916472,176.28215220755777,0,-22.940658569335938,35.53553009033203,-38.83418655395508
0.021124087274074554,0.09555530548095703,9.816394805908203,-0.0017554517608501525,-4.288736560552649e-05,0.0018244444078771805,1.9899938106536865,2019-07-26 14:12:57:812,-37.066591594729125,176.34634138471674,0,-23.690353393554688,35.08571243286133,-37.78461456298828
-0.021981406956911087,-0.01460318360477686,9.833158493041992,0.0033057899234194394,-0.004304985598025202,-4.022355432963424e-05,1.9999940395355225,2019-07-26 14:12:57:822,-32.7254040818694,169.2192601113159,0,-23.690353393554688,35.08571243286133,-37.78461456298828
0.035492584109306335,0.03089706040918827,9.79963207244873,0.0003755974224100973,0.00022349378230200473,0.0015580632802879558,2.0099942684173584,2019-07-26 14:12:57:832,-35.66687120326919,169.4310510848625,0,-23.690353393554688,35.08571243286133,-37.78461456298828
-0.021981406956911087,0.07400255650281906,9.833158493041992,0.0006419785825086126,-0.005370510368456426,-0.0016385103808199016,2.0200142860412598,2019-07-26 14:12:57:842,-31.353073826473242,169.6334450826678,0,-23.690353393554688,35.08571243286133,-37.78461456298828
0.01872933655977249,0.08597630262374878,9.828369140625,0.004637695821439887,-0.0011084119369173448,-0.00030660471036448813,2.0299861431121826,2019-07-26 14:12:57:852,-34.32320802937193,169.82815550054653,0,-23.690353393554688,35.08571243286133,-37.78461456298828
0.04028208553791046,0.05723930895328522,9.854711532592773,-0.002021832888439377,-0.003239461087668304,0.002623587920682017,2.0399882793426514,2019-07-26 14:12:57:862,-37.23024051261712,170.02607212093616,0,-23.690353393554688,35.08571243286133,-37.78461456298828
-0.01719190739095211,0.06681830435991287,9.770895004272461,-0.00015716488153228781,-0.005104129240867201,-0.0029704160187660244,2.0500028133392334,2019-07-26 14:12:57:872,-32.88478181382208,170.21780282847354,0,-23.690353393554688,35.08571243286133,-37.78461456298828
-0.0028234098572283983,0.06681830435991287,9.825974464416504,-0.000689927185474673,0.0010226372138336143,0.000226157593577897,2.0599851608276367,2019-07-26 14:12:57:882,-28.627988642376504,170.4060411796394,0,-23.690353393554688,35.08571243286133,-37.78461456298828
0.01393983792513609,0.0907658040523529,9.792448043823242,0.0027730276682409903,-0.0008420308093281202,0.0010253010251095067,2.069995403289795,2019-07-26 14:12:57:892,-31.653324342654116,170.5857405689756,0,-23.690353393554688,35.08571243286133,-37.78461456298828
0.0067555890418589115,0.047660309821367264,9.751736640930176,0.0003755974224100973,0.00022349378230200473,0.003156350175860466,2.079986810684204,2019-07-26 14:12:57:902,-34.619589397892646,170.76821457662962,0,-23.690353393554688,35.08571243286133,-37.78461456298828
0.0378873348236084,0.08118680119514465,9.861895561218262,0.00010921627043890474,-0.008833465027116346,-0.00030660471036448813,2.0899930000305176,2019-07-26 14:12:57:912,-37.51783221568551,170.94335553107115,0,-23.690353393554688,35.08571243286133,-37.78461456298828
0.021124087274074554,0.05005505681037903,9.79963207244873,0.001973884285473317,0.00022349378230200473,0.0010253010251095067,2.0999948978424072,2019-07-26 14:12:57:922,-40.36513095477761,171.1175267620067,0,-23.690353393554688,35.08571243286133,-37.78461456298828
-0.0004286601906642318,0.05963405594229698,9.864290237426758,-0.002288214016028602,0.00075625608624439,-0.003503178534018799,2.1100013256073,2019-07-26 14:12:57:932,-35.95830304202029,171.28953439269864,0,-23.690353393554688,35.08571243286133,-37.78461456298828
-0.01000765897333622,0.05005505681037903,9.854711532592773,0.0003755974224100973,0.0010226372138336143,0.002623587920682017,2.119985580444336,2019-07-26 14:12:57:942,-31.640873986551505,171.45771273807426,0,-23.240537643432617,34.336021423339844,-37.63467788696289
-0.029165657237172127,0.040476057678461075,9.797237396240234,0.001174740902705643,-0.002173936447274243,0.003689112431038915,2.130000352859497,2019-07-26 14:12:57:952,-27.410245337848597,171.62316371386035,0,-23.240537643432617,34.336021423339844,-37.63467788696289
-0.01000765897333622,0.05723930895328522,9.837947845458984,-0.000689927185474673,-0.0064360348788133235,-0.0029704160187660244,2.139979839324951,2019-07-26 14:12:57:962,-23.25959970248962,171.78441992849184,0,-23.240537643432617,34.336021423339844,-37.63467788696289
0.011545088142156601,0.08597630262374878,9.816394805908203,0.001973884285473317,0.00395282987738941,-0.0005729858704630034,2.1499879360198975,2019-07-26 14:12:57:972,-26.39528130034145,171.9375861231448,0,-23.240537643432617,34.336021423339844,-37.63467788696289
-0.01719190739095211,0.054844558238983154,9.873868942260742,0.0006419785825086126,0.00022349378230200473,-0.004302321916786473,2.159991979598999,2019-07-26 14:12:57:982,-22.269496427823533,172.09210884435464,0,-23.240537643432617,34.336021423339844,-37.63467788696289
-0.05071840435266495,0.040476057678461075,9.811605453491211,0.0003755974224100973,-0.003239461087668304,-0.003503178534018799,2.1699869632720947,2019-07-26 14:12:57:992,-18.228211902430452,172.24532862882225,0,-23.240537643432617,34.336021423339844,-37.63467788696289
-0.021981406956911087,0.10034479945898056,9.797237396240234,-0.0017554517608501525,-0.002706698832489855,-0.0019048915084091261,2.179990768432617,2019-07-26 14:12:58:002,-14.264698288292397,172.38967188323744,0,-23.240537643432617,34.336021423339844,-37.63467788696289
-0.005218159407377243,0.05005505681037903,9.852315902709961,-0.0017554517608501525,-0.002173936447274243,-0.0019048915084091261,2.190000295639038,2019-07-26 14:12:58:012,-10.3787894174316,172.5370432518092,0,-23.240537643432617,34.336021423339844,-37.63467788696289
0.023518836125731468,0.05723930895328522,9.837947845458984,0.0006419785825086126,0.0023545428517797373,0.000226157593577897,2.199988842010498,2019-07-26 14:12:58:022,-13.76979473912326,172.6792752199548,0,-23.240537643432617,34.336021423339844,-37.63467788696289
-0.007612909190356731,0.047660309821367264,9.814000129699707,0.003039408795830215,-0.0005756496817388956,-0.0027040348911768,2.209987163543701,2019-07-26 14:12:58:032,-9.894964580727494,172.8184184441324,0,-23.240537643432617,34.336021423339844,-37.63467788696289
-0.019586658105254173,0.09316055476665497,9.806816101074219,-0.002554595143617826,-0.0008420308093281202,0.0012916821526987312,2.2199995517730713,2019-07-26 14:12:58:042,-6.098880580488905,172.95260087379427,0,-23.240537643432617,34.336021423339844,-37.63467788696289
-0.07466590404510498,0.08837105333805084,9.802026748657227,0.0035721710510086637,-0.0008420308093281202,0.0010253010251095067,2.229982376098633,2019-07-26 14:12:58:052,-2.385159704010087,173.08121570705154,0,-23.240537643432617,34.336021423339844,-37.63467788696289
-0.0004286601906642318,0.03568655997514725,9.849921226501465,-0.0012226895056717034,0.00075625608624439,-0.0011057481256414525,2.2400267124176025,2019-07-26 14:12:58:062,1.2620671013522666,173.21612930688212,0,-24.589988708496094,35.68547058105469,-38.68424987792969
0.004360839258879423,0.06921305507421494,9.756525993347168,0.00010921627043890474,0.0004898749261458747,-0.0024376537635875752,2.249980926513672,2019-07-26 14:12:58:072,-2.3629358596461647,173.34361665740465,0,-24.589988708496094,35.68547058105469,-38.68424987792969
0.028308335691690445,0.02371281199157238,9.768500328063965,-0.0030873573987962753,0.002088161724190513,0.000226157593577897,2.2599825859069824,2019-07-26 14:12:58:082,-5.913529074194387,173.47569648037415,0,-24.589988708496094,35.68547058105469,-38.68424987792969
-0.0004286601906642318,0.071607805788517,9.821184158325195,0.001174740902705643,-0.005903272623634875,-0.004568702784301372,2.2699944972991943,2019-07-26 14:12:58:092,-2.191989880110865,173.5971672460408,0,-24.589988708496094,35.68547058105469,-38.68424987792969
0.01872933655977249,0.033291809260845184,9.845131874084473,-0.002288214016028602,-0.004304985598025202,-0.0029704160187660244,2.279987335205078,2019-07-26 14:12:58:102,-5.743554587942502,173.72263285345946,0,-24.589988708496094,35.68547058105469,-38.68424987792969
0.0019660894758999348,0.062028806656599045,9.85710620880127,0.001973884285473317,-0.0005756496817388956,0.0004925387374217668,2.289987802505493,2019-07-26 14:12:58:112,-9.22813169128366,173.83986088780065,0,-24.589988708496094,35.68547058105469,-38.68424987792969
0.03309783712029457,0.062028806656599045,9.821184158325195,0.00010921627043890474,-0.003239461087668304,-0.0019048915084091261,2.300002098083496,2019-07-26 14:12:58:122,-12.637885731149929,173.95576496009554,0,-24.589988708496094,35.68547058105469,-38.68424987792969
-0.02437615767121315,0.0452655591070652,9.782868385314941,0.0017075031578840923,-0.0019075553196850185,-0.0029704160187660244,2.3099820613861084,2019-07-26 14:12:58:132,-8.786914366501016,174.07039068103592,0,-24.589988708496094,35.68547058105469,-38.68424987792969
-0.0028234098572283983,0.04287080839276314,9.725394248962402,-0.000689927185474673,-0.005903272623634875,0.007418448477362384,2.3199973106384277,2019-07-26 14:12:58:142,-5.0081890193447505,174.18431953842847,0,-24.589988708496094,35.68547058105469,-38.68424987792969
-0.0004286601906642318,0.0452655591070652,9.8187894821167,-0.002554595143617826,-0.0013747930645065694,0.002090825535466405,2.329983949661255,2019-07-26 14:12:58:152,-1.3073043533045143,174.29678288975265,0,-24.589988708496094,35.68547058105469,-38.68424987792969
0.023518836125731468,0.06681830435991287,9.85710620880127,0.0017075031578840923,-0.0008420308093281202,-0.0019048915084091261,2.339991807937622,2019-07-26 14:12:58:162,-4.877950971629028,174.40212002595035,0,-24.589988708496094,35.68547058105469,-38.68424987792969
0.021124087274074554,0.05244980752468109,9.775684356689453,-0.000689927185474673,0.00022349378230200473,0.005553780584237813,2.3499908447265625,2019-07-26 14:12:58:172,-8.378041248579613,174.50831682089412,0,-24.589988708496094,35.68547058105469,-38.68424987792969
0.016334587708115578,0.06442355364561081,9.809210777282715,-0.001489070633260928,0.0004898749261458747,0.0018244444078771805,2.359992027282715,2019-07-26 14:12:58:182,-11.808847309494464,174.61146081959475,0,-24.589988708496094,35.68547058105469,-38.68424987792969
0.009150338359177113,0.040476057678461075,9.811605453491211,-0.0017554517608501525,-0.0024403177049006305,0.0039554935586281394,2.3699936866760254,2019-07-26 14:12:58:192,-15.17023121618751,174.71549020354473,0,-22.940658569335938,35.83540725708008,-38.234432220458984
0.01872933655977249,0.03568655997514725,9.837947845458984,-0.0030873573987962753,-0.002973079960079079,0.0010253010251095067,2.3799901008605957,2019-07-26 14:12:58:202,-18.46297623595852,174.81875660366444,0,-22.940658569335938,35.83540725708008,-38.234432220458984
-0.012402408756315708,0.00934431329369545,9.845131874084473,-0.006550312577604846,-0.002706698832489855,-0.0048350839118905965,2.3900036811828613,2019-07-26 14:12:58:212,-14.493638406432824,174.92497683510197,0,-22.940658569335938,35.83540725708008,-38.234432220458984
-0.007612909190356731,0.07639730721712112,9.825974464416504,-0.0030873573987962753,-0.0019075553196850185,-0.00962994472864529,2.3999838829040527,2019-07-26 14:12:58:222,-10.603584494548334,175.0192980575747,0,-22.940658569335938,35.83540725708008,-38.234432220458984
0.004360839258879423,0.054844558238983154,9.828369140625,-0.0009563083130638975,0.002620923979368962,0.0023572067930927925,2.409994602203369,2019-07-26 14:12:58:232,-13.992477585639623,175.1130552318901,0,-22.940658569335938,35.83540725708008,-38.234432220458984
0.004360839258879423,0.03568655997514725,9.842737197875977,0.007834269352510583,-0.002173936447274243,0.0028899690482712416,2.4199886322021484,2019-07-26 14:12:58:242,-17.31090040074328,175.20224312325516,0,-22.940658569335938,35.83540725708008,-38.234432220458984
0.0067555890418589115,0.08358155190944672,9.837947845458984,-0.000689927185474673,0.0010226372138336143,0.0012916821526987312,2.4300005435943604,2019-07-26 14:12:58:252,-20.564470401096024,175.28885084331196,0,-22.940658569335938,35.83540725708008,-38.234432220458984
0.02591358684003353,0.05963405594229698,9.828369140625,-0.0004235460253761578,-0.0005756496817388956,0.0018244444078771805,2.4399852752685547,2019-07-26 14:12:58:262,-23.74983693334868,175.37635847663884,0,-22.940658569335938,35.83540725708008,-38.234432220458984
-0.005218159407377243,0.07639730721712112,9.782868385314941,0.00010921627043890474,-0.0013747930645065694,-0.001372129253230677,2.4499850273132324,2019-07-26 14:12:58:272,-19.67467949805941,175.45982137261748,0,-22.940658569335938,35.83540725708008,-38.234432220458984
0.01872933655977249,0.018923312425613403,9.816394805908203,0.0014411220302948675,-0.002706698832489855,0.0015580632802879558,2.459988594055176,2019-07-26 14:12:58:282,-22.8774791942596,175.5476064607739,0,-22.940658569335938,35.83540725708008,-38.234432220458984
-0.021981406956911087,0.062028806656599045,9.763710975646973,0.002506646540651766,0.004485591872493534,0.0007589198975202821,2.4699912071228027,2019-07-26 14:12:58:292,-18.825028760430015,175.62796658711838,0,-22.940658569335938,35.83540725708008,-38.234432220458984
0.030703086405992508,0.062028806656599045,9.823579788208008,0.002506646540651766,-0.0011084119369173448,-0.007765276835520717,2.479992151260376,2019-07-26 14:12:58:302,-22.044324266901555,175.7067641112531,0,-22.940658569335938,35.83540725708008,-38.234432220458984
0.02591358684003353,0.04287080839276314,9.802026748657227,-0.000689927185474673,-0.002173936447274243,0.0004925387374217668,2.4899909496307373,2019-07-26 14:12:58:312,-25.199187819553046,175.78800435353529,0,-24.88986587524414,35.38559341430664,-38.08449172973633
-0.005218159407377243,0.054844558238983154,9.79963207244873,-0.0030873573987962753,-0.004571366985688751,-0.00030660471036448813,2.4999892711639404,2019-07-26 14:12:58:322,-21.093247860728784,175.8675643655592,0,-24.88986587524414,35.38559341430664,-38.08449172973633
0.01393983792513609,0.0907658040523529,9.768500328063965,-0.001489070633260928,-0.003239461087668304,-0.0040359407891972475,2.5100018978118896,2019-07-26 14:12:58:332,-24.267926411307727,175.94040306761718,0,-24.88986587524414,35.38559341430664,-38.08449172973633
-0.01000765897333622,0.047660309821367264,9.775684356689453,-0.006816693705194069,-0.0019075553196850185,-0.0024376537635875752,2.5199830532073975,2019-07-26 14:12:58:342,-20.182671919270746,176.01982861223803,0,-24.88986587524414,35.38559341430664,-38.08449172973633
0.06901907920837402,0.08837105333805084,9.878658294677734,-0.000689927185474673,-0.0035058422152575287,0.0007589198975202821,2.529985189437866,2019-07-26 14:12:58:352,-23.369043513094507,176.0895688256389,0,-24.88986587524414,35.38559341430664,-38.08449172973633
-0.04353415593504906,0.08597630262374878,9.770895004272461,0.0027730276682409903,-0.0011084119369173448,0.0012916821526987312,2.5399997234344482,2019-07-26 14:12:58:362,-19.306144951782496,176.15613522607245,0,-24.88986587524414,35.38559341430664,-38.08449172973633
0.028308335691690445,0.06681830435991287,9.833158493041992,0.001973884285473317,0.00075625608624439,-0.004568702784301372,2.549980640411377,2019-07-26 14:12:58:372,-22.51714695201832,176.22411969447077,0,-24.88986587524414,35.38559341430664,-38.08449172973633
-0.0028234098572283983,0.05244980752468109,9.773289680480957,0.007035125969742908,0.0015553994690120636,-0.002171272635998351,2.560002565383911,2019-07-26 14:12:58:382,-18.46801032652928,176.28952875928212,0,-24.88986587524414,35.38559341430664,-38.08449172973633
-0.005218159407377243,0.07879205793142319,9.88105297088623,0.0027730276682409903,-0.002173936447274243,0.0012916821526987312,2.5699872970581055,2019-07-26 14:12:58:392,-14.498036476495189,176.35304611013652,0,-24.88986587524414,35.38559341430664,-38.08449172973633
-0.0004286601906642318,0.05005505681037903,9.849921226501465,0.002240265413062541,-0.0003092685216403804,0.005287399456648588,2.579986095428467,2019-07-26 14:12:58:402,-10.607951983249405,176.4189042011328,0,-24.88986587524414,35.38559341430664,-38.08449172973633
0.028308335691690445,0.06681830435991287,9.842737197875977,-0.0030873573987962753,0.0018217805966012882,-0.0016385103808199016,2.5899927616119385,2019-07-26 14:12:58:412,-13.993520836071367,176.48448178842693,0,-24.88986587524414,35.38559341430664,-38.08449172973633
0.04028208553791046,0.0452655591070652,9.866684913635254,0.0017075031578840923,0.0004898749261458747,0.0015580632802879558,2.5999817848205566,2019-07-26 14:12:58:422,-17.30924685098166,176.54857734470292,0,-24.88986587524414,35.38559341430664,-38.08449172973633
-0.0004286601906642318,0.03808131068944931,9.852315902709961,-0.004152881909153174,-0.0008420308093281202,-0.0005729858704630034,2.609994649887085,2019-07-26 14:12:58:432,-13.362638363699473,176.61551144819435,0,-24.88986587524414,35.38559341430664,-38.08449172973633
0.02591358684003353,0.05244980752468109,9.8187894821167,-0.0004235460253761578,-0.0024403177049006305,0.0010253010251095067,2.6199915409088135,2019-07-26 14:12:58:442,-16.69099151290241,176.67731779572068,0,-23.090599060058594,35.38559341430664,-38.984127044677734
-0.005218159407377243,0.05723930895328522,9.74934196472168,0.0033057899234194394,-0.002173936447274243,0.0023572067930927925,2.6299896240234375,2019-07-26 14:12:58:452,-12.756564584863103,176.73518789754138,0,-23.090599060058594,35.38559341430664,-38.984127044677734
-0.02437615767121315,0.062028806656599045,9.775684356689453,-0.00015716488153228781,-0.0008420308093281202,0.004488256073880914,2.639997720718384,2019-07-26 14:12:58:462,-8.903817503092432,176.79330147714566,0,-23.090599060058594,35.38559341430664,-38.984127044677734
0.01872933655977249,0.07400255650281906,9.775684356689453,0.0017075031578840923,0.005018354127671983,0.0023572067930927925,2.6499829292297363,2019-07-26 14:12:58:472,-12.32635931504502,176.84780361636055,0,-23.090599060058594,35.38559341430664,-38.984127044677734
0.0019660894758999348,0.0452655591070652,9.79963207244873,-0.002288214016028602,0.0018217805966012882,0.003156350175860466,2.6599884033203125,2019-07-26 14:12:58:482,-15.680625712239975,176.90684000616687,0,-23.090599060058594,35.38559341430664,-38.984127044677734
-0.005218159407377243,0.06442355364561081,9.837947845458984,-0.000689927185474673,-0.0003092685216403804,0.0012916821526987312,2.669992208480835,2019-07-26 14:12:58:492,-11.767447284665648,176.96158685451246,0,-23.090599060058594,35.38559341430664,-38.984127044677734
-0.007612909190356731,0.06681830435991287,9.809210777282715,-0.001489070633260928,-0.0016411741920957937,-0.0011057481256414525,2.6799895763397217,2019-07-26 14:12:58:502,-7.932066407110154,177.01538539045598,0,-23.090599060058594,35.38559341430664,-38.984127044677734
0.0019660894758999348,0.08118680119514465,9.792448043823242,-0.002554595143617826,-0.0019075553196850185,-0.0029704160187660244,2.6899945735931396,2019-07-26 14:12:58:512,-11.372123381547034,177.06701251181673,0,-23.090599060058594,35.38559341430664,-38.984127044677734
-0.01000765897333622,0.07879205793142319,9.811605453491211,-0.0004235460253761578,-0.002706698832489855,0.0023572067930927925,2.6999943256378174,2019-07-26 14:12:58:522,-7.544329956528258,177.1167080034921,0,-23.090599060058594,35.38559341430664,-38.984127044677734
-0.02437615767121315,0.047660309821367264,9.802026748657227,-0.002288214016028602,0.0015553994690120636,0.002623587920682017,2.7100884914398193,2019-07-26 14:12:58:532,-3.797174648941464,177.17009903962645,0,-23.090599060058594,35.38559341430664,-38.984127044677734
-0.01000765897333622,0.047660309821367264,9.766105651855469,-0.004419263036742399,-0.0005756496817388956,-0.0029704160187660244,2.7200071811676025,2019-07-26 14:12:58:542,-0.12208481568849461,177.2235660677739,0,-23.090599060058594,35.38559341430664,-38.984127044677734
-0.0004286601906642318,0.0452655591070652,9.816394805908203,-0.002554595143617826,0.0015553994690120636,-0.005101465039479822,2.729990243911743,2019-07-26 14:12:58:552,3.479434965570731,177.27524268684016,0,-23.090599060058594,35.38559341430664,-38.984127044677734
0.030703086405992508,0.06921305507421494,9.833158493041992,0.0006419785825086126,-0.0019075553196850185,-0.0048350839118905965,2.7399890422821045,2019-07-26 14:12:58:562,-0.18550477375117547,177.3213117365598,0,-24.739927291870117,35.83540725708008,-37.33479690551758
0.016334587708115578,0.08358155190944672,9.806816101074219,0.002240265413062541,-0.0035058422152575287,-0.0016385103808199016,2.7500011920928955,2019-07-26 14:12:58:572,-3.777915084220334,177.3638598922888,0,-24.739927291870117,35.83540725708008,-37.33479690551758
0.016334587708115578,0.07639730721712112,9.866684913635254,0.004371314693850663,0.0018217805966012882,-0.0005729858704630034,2.759981632232666,2019-07-26 14:12:58:582,-7.301480613726458,177.40526041144204,0,-24.739927291870117,35.83540725708008,-37.33479690551758
0.02591358684003353,0.08118680119514465,9.821184158325195,0.0009083597100978372,0.0010226372138336143,-0.002171272635998351,2.7699978351593018,2019-07-26 14:12:58:592,-10.753002604185909,177.44717184064962,0,-24.739927291870117,35.83540725708008,-37.33479690551758
0.01393983792513609,0.062028806656599045,9.837947845458984,0.003039408795830215,-0.004038604470435978,0.0004925387374217668,2.7799949645996094,2019-07-26 14:12:58:602,-14.134051833051261,177.48929730423413,0,-24.739927291870117,35.83540725708008,-37.33479690551758
0.05225583165884018,0.01652856171131134,9.859500885009766,-0.0033537385263855,-0.0016411741920957937,-0.001372129253230677,2.7899880409240723,2019-07-26 14:12:58:612,-17.4443765661468,177.53947215188666,0,-24.739927291870117,35.83540725708008,-37.33479690551758
0.04507158324122429,0.0452655591070652,9.780473709106445,-0.0004235460253761578,-0.0024403177049006305,-0.0011057481256414525,2.800004720687866,2019-07-26 14:12:58:622,-20.68883580229229,177.5836174876759,0,-24.739927291870117,35.83540725708008,-37.33479690551758
-0.0004286601906642318,0.040476057678461075,9.84034252166748,0.003039408795830215,0.0023545428517797373,-0.0008393669980522279,2.809985637664795,2019-07-26 14:12:58:632,-16.676428553754263,177.62552832875224,0,-24.739927291870117,35.83540725708008,-37.33479690551758
-0.012402408756315708,0.018923312425613403,9.849921226501465,0.0027730276682409903,0.001289018341422839,-0.0008393669980522279,2.8199996948242188,2019-07-26 14:12:58:642,-12.745067647099887,177.66925703326308,0,-24.739927291870117,35.83540725708008,-37.33479690551758
0.042676832526922226,0.0452655591070652,9.792448043823242,-0.001489070633260928,-0.003239461087668304,-0.00030660471036448813,2.8299968242645264,2019-07-26 14:12:58:652,-16.083353837512192,177.7114108103745,0,-24.739927291870117,35.83540725708008,-37.33479690551758
-0.029165657237172127,0.07639730721712112,9.816394805908203,-0.0009563083130638975,-0.003239461087668304,0.002623587920682017,2.8399877548217773,2019-07-26 14:12:58:662,-12.163274096701901,177.74880102316357,0,-24.739927291870117,35.83540725708008,-37.33479690551758
-0.005218159407377243,0.0979500487446785,9.849921226501465,-0.0033537385263855,0.0010226372138336143,-0.007765276835520717,2.8500139713287354,2019-07-26 14:12:58:672,-8.321191397312685,177.78431816722693,0,-24.739927291870117,35.83540725708008,-37.33479690551758
-0.005218159407377243,0.004554813727736473,9.79963207244873,-0.0017554517608501525,-0.0019075553196850185,-0.0029704160187660244,2.8599956035614014,2019-07-26 14:12:58:682,-4.554308630079924,177.82908306211004,0,-24.739927291870117,35.83540725708008,-37.33479690551758
0.01393983792513609,0.05963405594229698,9.763710975646973,0.0006419785825086126,0.0036864487498001856,0.003156350175860466,2.8699793815612793,2019-07-26 14:12:58:692,-8.063652990971185,177.8651426659178,0,-23.840293884277344,35.235652923583984,-38.83418655395508
0.004360839258879423,0.05723930895328522,9.768500328063965,0.00010921627043890474,-0.0011084119369173448,-0.0016385103808199016,2.8799960613250732,2019-07-26 14:12:58:702,-11.501244963371647,177.90106387831898,0,-23.840293884277344,35.235652923583984,-38.83418655395508
-0.01719190739095211,0.0452655591070652,9.79005241394043,-0.00015716488153228781,0.0023545428517797373,0.006619305094594711,2.889981985092163,2019-07-26 14:12:58:712,-7.674552568783701,177.93783247490484,0,-23.840293884277344,35.235652923583984,-38.83418655395508
0.01393983792513609,0.06442355364561081,9.85710620880127,0.0014411220302948675,-0.0024403177049006305,-0.0016385103808199016,2.900009870529175,2019-07-26 14:12:58:722,-11.118066918124633,177.9707750729941,0,-23.840293884277344,35.235652923583984,-38.83418655395508
0.0019660894758999348,0.047660309821367264,9.835553169250488,-0.0017554517608501525,-0.0003092685216403804,-0.0008393669980522279,2.9099833965301514,2019-07-26 14:12:58:732,-14.495303321496829,178.0067899063089,0,-23.840293884277344,35.235652923583984,-38.83418655395508
-0.01719190739095211,0.033291809260845184,9.802026748657227,0.004637695821439887,-0.003239461087668304,0.0023572067930927925,2.9199941158294678,2019-07-26 14:12:58:742,-10.605586187087717,178.04015526013765,0,-23.840293884277344,35.235652923583984,-38.83418655395508
-0.005218159407377243,0.05244980752468109,9.866684913635254,-0.0033537385263855,-4.288736560552649e-05,0.0028899690482712416,2.9299848079681396,2019-07-26 14:12:58:752,-6.7940564409077275,178.07514206485948,0,-23.840293884277344,35.235652923583984,-38.83418655395508
-0.05311315506696701,0.026107560843229294,9.785263061523438,0.0009083597100978372,-0.0019075553196850185,0.003689112431038915,2.939993143081665,2019-07-26 14:12:58:762,-3.063323151635569,178.11007140406116,0,-23.840293884277344,35.235652923583984,-38.83418655395508
-0.0028234098572283983,0.07879205793142319,9.842737197875977,0.002240265413062541,0.0018217805966012882,0.0015580632802879558,2.949997663497925,2019-07-26 14:12:58:772,0.5965912133783839,178.13743853279635,0,-23.840293884277344,35.235652923583984,-38.83418655395508
-0.01000765897333622,0.07639730721712112,9.86907958984375,0.0009083597100978372,-0.004571366985688751,-0.0048350839118905965,2.959981679916382,2019-07-26 14:12:58:782,4.186060096881349,178.16531009073805,0,-23.840293884277344,35.235652923583984,-38.83418655395508
-0.041139405220746994,0.062028806656599045,9.830763816833496,0.0003755974224100973,-0.0024403177049006305,0.002623587920682017,2.9700140953063965,2019-07-26 14:12:58:792,7.698918215849835,178.19456206260423,0,-23.840293884277344,35.235652923583984,-38.83418655395508
-0.021981406956911087,0.04287080839276314,9.842737197875977,0.0033057899234194394,-4.288736560552649e-05,-0.0011057481256414525,2.9799787998199463,2019-07-26 14:12:58:802,11.142404722712126,178.22383008331212,0,-23.840293884277344,35.235652923583984,-38.83418655395508
-0.029165657237172127,0.07400255650281906,9.854711532592773,0.001174740902705643,0.0018217805966012882,0.003156350175860466,2.9899935722351074,2019-07-26 14:12:58:812,14.515140788293246,178.25008796319852,0,-24.14017105102539,35.83540725708008,-37.33479690551758
0.021124087274074554,0.09316055476665497,9.828369140625,0.0006419785825086126,-0.0011084119369173448,-0.002171272635998351,2.999990940093994,2019-07-26 14:12:58:822,10.627923089998301,178.2738643181644,0,-24.14017105102539,35.83540725708008,-37.33479690551758
-0.0028234098572283983,0.08358155190944672,9.825974464416504,0.0003755974224100973,0.002088161724190513,-0.0011057481256414525,3.00999116897583,2019-07-26 14:12:58:832,14.013862832344627,178.29842899515498,0,-24.14017105102539,35.83540725708008,-37.33479690551758
-0.005218159407377243,0.028502311557531357,9.806816101074219,-0.004419263036742399,-0.0013747930645065694,0.0015580632802879558,3.0199952125549316,2019-07-26 14:12:58:842,17.333748096189794,178.33161237467885,0,-24.14017105102539,35.83540725708008,-37.33479690551758
-0.01000765897333622,0.03089706040918827,9.806816101074219,-0.0036201196539747244,-0.002973079960079079,0.0012916821526987312,3.0300028324127197,2019-07-26 14:12:58:852,20.587574403210667,178.3634040930142,0,-24.14017105102539,35.83540725708008,-37.33479690551758
0.004360839258879423,0.0452655591070652,9.79005241394043,0.001973884285473317,-0.0011084119369173448,-0.0032367971463552496,3.039985179901123,2019-07-26 14:12:58:862,16.576954620025383,178.38973138480523,0,-24.14017105102539,35.83540725708008,-37.33479690551758
-0.005218159407377243,0.054844558238983154,9.849921226501465,0.003039408795830215,-0.0064360348788133235,0.0012916821526987312,3.0500004291534424,2019-07-26 14:12:58:872,19.848427795499667,178.41384711576123,0,-24.14017105102539,35.83540725708008,-37.33479690551758
-0.007612909190356731,0.04287080839276314,9.821184158325195,0.001174740902705643,-0.0011084119369173448,0.0007589198975202821,3.05998158454895,2019-07-26 14:12:58:882,23.051192180123,178.43990975497059,0,-24.14017105102539,35.83540725708008,-37.33479690551758
0.01393983792513609,0.071607805788517,9.86907958984375,0.0003755974224100973,-0.0016411741920957937,-0.00030660471036448813,3.070016384124756,2019-07-26 14:12:58:892,18.99271163761336,178.46258557048978,0,-24.14017105102539,35.83540725708008,-37.33479690551758
0.01872933655977249,0.040476057678461075,9.837947845458984,0.0035721710510086637,-0.007235178261580997,-0.0008393669980522279,3.079982042312622,2019-07-26 14:12:58:902,15.019087570263881,178.48662038875287,0,-24.14017105102539,35.83540725708008,-37.33479690551758
0.049861084669828415,0.071607805788517,9.835553169250488,0.002240265413062541,0.005284735255261208,0.000226157593577897,3.0899927616119385,2019-07-26 14:12:58:912,11.12154440633657,178.5072860284566,0,-24.14017105102539,35.83540725708008,-37.33479690551758
-0.03156040608882904,0.06442355364561081,9.809210777282715,-0.001489070633260928,-4.288736560552649e-05,-0.001372129253230677,3.099991798400879,2019-07-26 14:12:58:922,14.49545071162867,178.530450463596,0,-24.14017105102539,35.83540725708008,-37.33479690551758
0.035492584109306335,0.07879205793142319,9.845131874084473,0.002240265413062541,-0.004038604470435978,-0.0005729858704630034,3.1099915504455566,2019-07-26 14:12:58:932,10.611940422746448,178.54941284204443,0,-24.14017105102539,35.83540725708008,-37.33479690551758
-0.0028234098572283983,0.10752905160188675,9.79005241394043,-0.001489070633260928,0.001289018341422839,-0.00030660471036448813,3.120008707046509,2019-07-26 14:12:58:942,13.998646113265151,178.56667647174098,0,-23.840293884277344,35.53553009033203,-38.83418655395508
0.05225583165884018,0.06442355364561081,9.797237396240234,-0.0033537385263855,0.0034200676222109604,0.0004925387374217668,3.1299853324890137,2019-07-26 14:12:58:952,10.122869264329474,178.58968658808274,0,-23.840293884277344,35.53553009033203,-38.83418655395508
-0.0028234098572283983,0.054844558238983154,9.814000129699707,0.0006419785825086126,-0.0005756496817388956,0.0012916821526987312,3.140012264251709,2019-07-26 14:12:58:962,13.520406305260824,178.6111276473996,0,-23.840293884277344,35.53553009033203,-38.83418655395508
0.02591358684003353,0.0979500487446785,9.792448043823242,-0.004152881909153174,0.0018217805966012882,-0.0016385103808199016,3.1500015258789062,2019-07-26 14:12:58:972,9.652008759926824,178.62977266231206,0,-23.840293884277344,35.53553009033203,-38.83418655395508
0.01393983792513609,0.071607805788517,9.809210777282715,0.001174740902705643,-0.003239461087668304,-0.0008393669980522279,3.1599841117858887,2019-07-26 14:12:58:982,5.862412826047209,178.64815364084083,0,-23.840293884277344,35.53553009033203,-38.83418655395508
-0.026770906522870064,0.05963405594229698,9.84034252166748,-0.001489070633260928,-0.005370510368456426,-0.0027040348911768,3.1700632572174072,2019-07-26 14:12:58:992,9.3450864850348,178.66908894910713,0,-23.840293884277344,35.53553009033203,-38.83418655395508
0.030703086405992508,0.054844558238983154,9.825974464416504,-0.002021832888439377,-0.0008420308093281202,-0.005101465039479822,3.179987907409668,2019-07-26 14:12:59:002,5.5622346068859985,178.69043790812555,0,-23.840293884277344,35.53553009033203,-38.83418655395508
-0.014797158539295197,0.06921305507421494,9.854711532592773,0.001973884285473317,-0.003239461087668304,0.0010253010251095067,3.1899945735931396,2019-07-26 14:12:59:012,9.051089453371652,178.7074720477111,0,-23.840293884277344,35.53553009033203,-38.83418655395508
-0.02437615767121315,0.05723930895328522,9.842737197875977,0.001973884285473317,-0.004304985598025202,-4.022355432963424e-05,3.2002780437469482,2019-07-26 14:12:59:023,12.469715503276793,178.7255189899463,0,-23.840293884277344,35.53553009033203,-38.83418655395508
-0.005218159407377243,0.05244980752468109,9.811605453491211,0.0006419785825086126,-0.004304985598025202,0.0007589198975202821,3.210843324661255,2019-07-26 14:12:59:033,15.822265640477678,178.7445021114539,0,-23.840293884277344,35.53553009033203,-38.83418655395508
0.0067555890418589115,0.047660309821367264,9.77807903289795,0.004371314693850663,0.0015553994690120636,-0.0029704160187660244,3.2202253341674805,2019-07-26 14:12:59:043,11.905792648376837,178.76172388976497,0,-23.840293884277344,35.53553009033203,-38.83418655395508
-0.01719190739095211,0.10752905160188675,9.782868385314941,-0.001489070633260928,0.0015553994690120636,0.0050210183290593634,3.2348506450653076,2019-07-26 14:12:59:057,15.264385716257138,178.77511734991074,0,-23.840293884277344,35.53553009033203,-38.83418655395508
-0.04592890292406082,0.071607805788517,9.845131874084473,-0.0009563083130638975,0.002887305106958187,-0.0029704160187660244,3.241633176803589,2019-07-26 14:12:59:064,18.5526525896921,178.79164462017184,0,-24.440048217773438,36.43516540527344,-36.735042572021484
-0.01000765897333622,0.047660309821367264,9.761316299438477,-0.00015716488153228781,-0.0035058422152575287,0.003156350175860466,3.2502453327178955,2019-07-26 14:12:59:073,21.782120028645643,178.8102927596196,0,-24.440048217773438,36.43516540527344,-36.735042572021484
-0.012402408756315708,0.07400255650281906,9.833158493041992,-0.004419263036742399,0.001289018341422839,-0.0029704160187660244,3.259993314743042,2019-07-26 14:12:59:082,24.944326762021486,178.82788198979043,0,-24.440048217773438,36.43516540527344,-36.735042572021484
0.009150338359177113,0.03089706040918827,9.821184158325195,0.002240265413062541,0.0018217805966012882,-0.0019048915084091261,3.2699902057647705,2019-07-26 14:12:59:092,20.845485259852698,178.84646184145538,0,-24.440048217773438,36.43516540527344,-36.735042572021484
0.011545088142156601,0.05723930895328522,9.763710975646973,-0.0012226895056717034,0.001289018341422839,0.002623587920682017,3.2800381183624268,2019-07-26 14:12:59:102,16.829203290644642,178.86350463173548,0,-24.440048217773438,36.43516540527344,-36.735042572021484
-0.01719190739095211,0.06442355364561081,9.847526550292969,0.001174740902705643,-0.0019075553196850185,0.0012916821526987312,3.29081130027771,2019-07-26 14:12:59:113,20.091772580745282,178.8780273301345,0,-24.440048217773438,36.43516540527344,-36.735042572021484
0.004360839258879423,0.06681830435991287,9.833158493041992,-0.0012226895056717034,-0.005370510368456426,-0.0037695596616080236,3.2999913692474365,2019-07-26 14:12:59:122,16.093213604506566,178.893310421829,0,-24.440048217773438,36.43516540527344,-36.735042572021484
-0.01719190739095211,0.08118680119514465,9.734973907470703,-0.002820976271207051,-0.0013747930645065694,-0.008031657963109942,3.310171604156494,2019-07-26 14:12:59:132,19.370111511810425,178.9075003611497,0,-24.440048217773438,36.43516540527344,-36.735042572021484
-0.01719190739095211,0.09316055476665497,9.825974464416504,-0.0004235460253761578,-0.0024403177049006305,0.000226157593577897,3.320017099380493,2019-07-26 14:12:59:142,22.58205340938385,178.9187203425657,0,-24.440048217773438,36.43516540527344,-36.735042572021484
0.0019660894758999348,0.062028806656599045,9.85710620880127,0.0006419785825086126,-0.0008420308093281202,0.003156350175860466,3.330195903778076,2019-07-26 14:12:59:152,18.531122157489218,178.93276809679313,0,-24.440048217773438,36.43516540527344,-36.735042572021484
0.0067555890418589115,0.00934431329369545,9.828369140625,-0.004685644164331623,-0.004571366985688751,-0.0016385103808199016,3.3401572704315186,2019-07-26 14:12:59:162,14.563844266106484,178.95564407540363,0,-24.440048217773438,36.43516540527344,-36.735042572021484
0.009150338359177113,0.10992380231618881,9.787657737731934,-0.0030873573987962753,-0.002173936447274243,0.0015580632802879558,3.3500289916992188,2019-07-26 14:12:59:172,10.67484368408683,178.96537342797907,0,-24.440048217773438,36.43516540527344,-36.735042572021484
0.035492584109306335,0.05244980752468109,9.797237396240234,-0.0033537385263855,-0.002173936447274243,-0.0029704160187660244,3.3600168228149414,2019-07-26 14:12:59:182,6.866717293062178,178.98181215223326,0,-24.440048217773438,36.43516540527344,-36.735042572021484
0.01872933655977249,0.08837105333805084,9.806816101074219,-0.0017554517608501525,0.003153686234547411,-0.0008393669980522279,3.3699679374694824,2019-07-26 14:12:59:192,3.129809312796527,178.99283099427728,0,-22.190963745117188,35.985347747802734,-38.38437271118164
0.028308335691690445,0.054844558238983154,9.825974464416504,-0.0004235460253761578,0.00022349378230200473,0.0007589198975202821,3.3800594806671143,2019-07-26 14:12:59:202,-0.529612174627244,179.0068184077139,0,-22.190963745117188,35.985347747802734,-38.38437271118164
0.04028208553791046,0.05244980752468109,9.830763816833496,0.002240265413062541,-0.0016411741920957937,0.0004925387374217668,3.3901896476745605,2019-07-26 14:12:59:212,-4.113390994222412,179.01929404543688,0,-22.190963745117188,35.985347747802734,-38.38437271118164
0.0067555890418589115,0.071607805788517,9.842737197875977,0.004104933306187114,-0.0035058422152575287,-0.002171272635998351,3.4000608921051025,2019-07-26 14:12:59:222,-7.62839349245716,179.02829631793028,0,-22.190963745117188,35.985347747802734,-38.38437271118164
0.004360839258879423,0.06442355364561081,9.830763816833496,-0.002820976271207051,-0.0019075553196850185,-0.001372129253230677,3.410191535949707,2019-07-26 14:12:59:232,-11.074232221848984,179.04182568397943,0,-22.190963745117188,35.985347747802734,-38.38437271118164
-0.014797158539295197,0.10273955017328262,9.754131317138672,-0.00015716488153228781,-0.0005756496817388956,-0.005367846167069046,3.4201431274414062,2019-07-26 14:12:59:242,-7.254164284810864,179.0490075923804,0,-22.190963745117188,35.985347747802734,-38.38437271118164
0.004360839258879423,0.08358155190944672,9.852315902709961,-0.0012226895056717034,0.002088161724190513,-0.0008393669980522279,3.4299752712249756,2019-07-26 14:12:59:252,-10.709726611978285,179.05898137964348,0,-22.190963745117188,35.985347747802734,-38.38437271118164
0.01872933655977249,0.09316055476665497,9.825974464416504,-0.001489070633260928,-0.002706698832489855,0.004488256073880914,3.4399967193603516,2019-07-26 14:12:59:262,-14.091824779823593,179.06777549905007,0,-22.190963745117188,35.985347747802734,-38.38437271118164
-0.0004286601906642318,0.05963405594229698,9.763710975646973,-0.002021832888439377,-0.002706698832489855,0.0010253010251095067,3.4499971866607666,2019-07-26 14:12:59:272,-10.20851871509534,179.08055644893113,0,-22.190963745117188,35.985347747802734,-38.38437271118164
0.009150338359177113,0.06442355364561081,9.787657737731934,0.002240265413062541,-4.288736560552649e-05,0.0012916821526987312,3.4599862098693848,2019-07-26 14:12:59:282,-13.603252986581897,179.0901463478851,0,-22.190963745117188,35.985347747802734,-38.38437271118164
0.028308335691690445,0.00934431329369545,9.84034252166748,0.0009083597100978372,0.00022349378230200473,-0.0008393669980522279,3.4699950218200684,2019-07-26 14:12:59:292,-16.9280170101283,179.10674477646785,0,-22.190963745117188,35.985347747802734,-38.38437271118164
-0.021981406956911087,0.10992380231618881,9.797237396240234,0.0033057899234194394,0.002088161724190513,-0.0005729858704630034,3.4799904823303223,2019-07-26 14:12:59:302,-12.993199647570226,179.10989803405948,0,-22.190963745117188,35.985347747802734,-38.38437271118164
0.035492584109306335,0.08118680119514465,9.79963207244873,0.0027730276682409903,-0.0013747930645065694,-0.002171272635998351,3.489990234375,2019-07-26 14:12:59:312,-16.32841343803492,179.1166497356542,0,-24.14017105102539,34.93577575683594,-37.93455505371094
-0.0028234098572283983,0.05723930895328522,9.77807903289795,0.0006419785825086126,-0.004038604470435978,0.0015580632802879558,3.4999921321868896,2019-07-26 14:12:59:322,-12.399907949889654,179.12724827267385,0,-24.14017105102539,34.93577575683594,-37.93455505371094
-0.007612909190356731,0.04287080839276314,9.797237396240234,0.0006419785825086126,0.00075625608624439,0.0034227313034496903,3.509991407394409,2019-07-26 14:12:59:332,-8.553224826416274,179.1393285911441,0,-24.14017105102539,34.93577575683594,-37.93455505371094
0.01872933655977249,0.018923312425613403,9.830763816833496,0.0003755974224100973,-0.0019075553196850185,-0.0027040348911768,3.519993305206299,2019-07-26 14:12:59:342,-11.9789058685113,179.1541253028996,0,-24.14017105102539,34.93577575683594,-37.93455505371094
-0.005218159407377243,0.08118680119514465,9.773289680480957,0.003838552178597889,-0.0011084119369173448,-0.001372129253230677,3.52999210357666,2019-07-26 14:12:59:352,-8.139317281863782,179.15936880232408,0,-24.14017105102539,34.93577575683594,-37.93455505371094
0.04746633395552635,0.05723930895328522,9.842737197875977,-0.0009563083130638975,-0.0016411741920957937,-0.002171272635998351,3.5400445461273193,2019-07-26 14:12:59:362,-11.5700784823743,179.1700573425517,0,-24.14017105102539,34.93577575683594,-37.93455505371094
-0.0004286601906642318,0.0907658040523529,9.802026748657227,0.0033057899234194394,0.00075625608624439,-0.0011057481256414525,3.5499823093414307,2019-07-26 14:12:59:372,-7.739149019629122,179.17420078908634,0,-24.14017105102539,34.93577575683594,-37.93455505371094
0.01393983792513609,0.06921305507421494,9.782868385314941,0.0027730276682409903,0.00395282987738941,0.002090825535466405,3.559997320175171,2019-07-26 14:12:59:382,-11.184956038685671,179.18105025377562,0,-24.14017105102539,34.93577575683594,-37.93455505371094
0.016334587708115578,0.05723930895328522,9.845131874084473,-0.0009563083130638975,-0.0024403177049006305,-4.022355432963424e-05,3.569997549057007,2019-07-26 14:12:59:392,-14.557985403047063,179.19130398212445,0,-24.14017105102539,34.93577575683594,-37.93455505371094
-0.0004286601906642318,0.05005505681037903,9.754131317138672,-0.000689927185474673,0.0015553994690120636,-0.0016385103808199016,3.57999849319458,2019-07-26 14:12:59:402,-10.667749491137974,179.20198491452948,0,-24.14017105102539,34.93577575683594,-37.93455505371094
0.02591358684003353,0.0452655591070652,9.8187894821167,-0.00015716488153228781,-0.0035058422152575287,0.0004925387374217668,3.5899908542633057,2019-07-26 14:12:59:412,-14.04940320496961,179.21275065359072,0,-24.14017105102539,34.93577575683594,-37.93455505371094
0.0019660894758999348,0.06681830435991287,9.842737197875977,-0.006816693705194069,-0.003239461087668304,-0.0019048915084091261,3.5999910831451416,2019-07-26 14:12:59:422,-17.366367249292278,179.22454426108874,0,-24.14017105102539,34.93577575683594,-37.93455505371094
-0.005218159407377243,0.040476057678461075,9.845131874084473,-0.004952025291920847,-0.0008420308093281202,-4.022355432963424e-05,3.6099929809570312,2019-07-26 14:12:59:432,-13.419174378508421,179.2381233099234,0,-24.14017105102539,34.93577575683594,-37.93455505371094
0.016334587708115578,0.028502311557531357,9.780473709106445,0.001174740902705643,-0.002973079960079079,0.0004925387374217668,3.6199951171875,2019-07-26 14:12:59:442,-16.747207336512304,179.24936166318514,0,-24.88986587524414,36.28522491455078,-38.68424987792969
-0.014797158539295197,0.05723930895328522,9.787657737731934,-0.0009563083130638975,-0.0019075553196850185,0.002090825535466405,3.6299941539764404,2019-07-26 14:12:59:452,-12.81292461789347,179.2582099788355,0,-24.88986587524414,36.28522491455078,-38.68424987792969
0.004360839258879423,0.033291809260845184,9.802026748657227,-0.0030873573987962753,-0.0003092685216403804,-4.022355432963424e-05,3.6399919986724854,2019-07-26 14:12:59:462,-16.155982700934672,179.27088695582253,0,-24.88986587524414,36.28522491455078,-38.68424987792969
0.004360839258879423,0.04287080839276314,9.835553169250488,0.001174740902705643,-0.0005756496817388956,-0.001372129253230677,3.6499979496002197,2019-07-26 14:12:59:472,-19.43203155766006,179.2798144702034,0,-24.88986587524414,36.28522491455078,-38.68424987792969
-0.026770906522870064,0.040476057678461075,9.854711532592773,-0.004685644164331623,0.0004898749261458747,0.0023572067930927925,3.6599879264831543,2019-07-26 14:12:59:482,-15.446778654705241,179.2921399570587,0,-24.88986587524414,36.28522491455078,-38.68424987792969
0.009150338359177113,0.08118680119514465,9.780473709106445,-0.0030873573987962753,-0.002173936447274243,-0.004568702784301372,3.669992446899414,2019-07-26 14:12:59:492,-18.735549781117854,179.29851956842907,0,-24.88986587524414,36.28522491455078,-38.68424987792969
-0.01719190739095211,0.014133812859654427,9.79963207244873,-0.0004235460253761578,-0.002706698832489855,0.002090825535466405,3.6799943447113037,2019-07-26 14:12:59:502,-14.761329015286918,179.31113431277652,0,-24.88986587524414,36.28522491455078,-38.68424987792969
-0.0028234098572283983,0.05005505681037903,9.773289680480957,-0.001489070633260928,-0.002173936447274243,0.003689112431038915,3.689988136291504,2019-07-26 14:12:59:512,-10.865213574500975,179.3198783279097,0,-24.88986587524414,36.28522491455078,-38.68424987792969
-0.019586658105254173,0.014133812859654427,9.85710620880127,-0.000689927185474673,-0.002706698832489855,0.0012916821526987312,3.700000524520874,2019-07-26 14:12:59:522,-7.048664612172627,179.33222554111484,0,-24.88986587524414,36.28522491455078,-38.68424987792969
-0.019586658105254173,0.0907658040523529,9.8187894821167,0.001174740902705643,-0.0005756496817388956,0.0023572067930927925,3.7099976539611816,2019-07-26 14:12:59:532,-3.309654071558541,179.334328955544,0,-24.88986587524414,36.28522491455078,-38.68424987792969
-0.029165657237172127,0.01652856171131134,9.763710975646973,-0.0004235460253761578,0.0004898749261458747,-4.022355432963424e-05,3.7199971675872803,2019-07-26 14:12:59:542,0.352840948981191,179.34594031656638,0,-24.88986587524414,36.28522491455078,-38.68424987792969
-0.026770906522870064,0.0452655591070652,9.866684913635254,0.005703220331796786,-0.00963260893003267,-0.0016385103808199016,3.729989767074585,2019-07-26 14:12:59:552,3.9480796618851506,179.3505644300156,0,-24.88986587524414,36.28522491455078,-38.68424987792969
-0.048323653638362885,0.071607805788517,9.763710975646973,0.002506646540651766,0.0004898749261458747,0.006086542839416261,3.7400007247924805,2019-07-26 14:12:59:562,7.46317125545759,179.35374003829457,0,-23.690353393554688,35.08571243286133,-38.68424987792969
-0.03156040608882904,0.09555530548095703,9.775684356689453,0.0009083597100978372,0.0004898749261458747,-0.002171272635998351,3.7499852180480957,2019-07-26 14:12:59:572,10.909933662965663,179.35495525303392,0,-23.690353393554688,35.08571243286133,-38.68424987792969
0.011545088142156601,0.10992380231618881,9.775684356689453,0.00010921627043890474,-0.002706698832489855,0.0007589198975202821,3.7599940299987793,2019-07-26 14:12:59:582,7.094609462923924,179.35490993309577,0,-23.690353393554688,35.08571243286133,-38.68424987792969
-0.012402408756315708,0.08118680119514465,9.766105651855469,-0.002554595143617826,-0.0008420308093281202,-4.022355432963424e-05,3.769991159439087,2019-07-26 14:12:59:592,10.551734689079517,179.3597198108241,0,-23.690353393554688,35.08571243286133,-38.68424987792969
-0.0004286601906642318,0.08597630262374878,9.842737197875977,0.002240265413062541,-0.0008420308093281202,-0.008298039090699167,3.779996395111084,2019-07-26 14:12:59:602,13.941123136323622,179.36125753270488,0,-23.690353393554688,35.08571243286133,-38.68424987792969
0.0019660894758999348,0.12908180058002472,9.861895561218262,0.0017075031578840923,-0.002173936447274243,-0.0024376537635875752,3.7899866104125977,2019-07-26 14:12:59:612,10.063748593855419,179.35807659071267,0,-23.690353393554688,35.08571243286133,-38.68424987792969
-0.02437615767121315,0.08597630262374878,9.77807903289795,0.002506646540651766,-0.0011084119369173448,0.002090825535466405,3.7999916076660156,2019-07-26 14:12:59:622,13.46023961267586,179.35943137575782,0,-23.690353393554688,35.08571243286133,-38.68424987792969
-0.019586658105254173,0.026107560843229294,9.775684356689453,-0.002820976271207051,0.0004898749261458747,-0.006966133452753044,3.8099923133850098,2019-07-26 14:12:59:632,16.7884637721398,179.3707664869988,0,-23.690353393554688,35.08571243286133,-38.68424987792969
0.035492584109306335,0.014133812859654427,9.849921226501465,0.001973884285473317,0.00022349378230200473,0.0028899690482712416,3.8200039863586426,2019-07-26 14:12:59:642,12.856697960757325,179.38059723829426,0,-23.690353393554688,35.08571243286133,-38.68424987792969
0.042676832526922226,0.06442355364561081,9.84034252166748,0.0006419785825086126,0.00022349378230200473,-0.0037695596616080236,3.829996347427368,2019-07-26 14:12:59:652,9.004408325349155,179.38512303271426,0,-23.690353393554688,35.08571243286133,-38.68424987792969
-0.03634990379214287,0.05005505681037903,9.837947845458984,-0.00015716488153228781,0.001289018341422839,0.003156350175860466,3.8399994373321533,2019-07-26 14:12:59:662,12.419362167312157,179.39167852811576,0,-23.690353393554688,35.08571243286133,-38.68424987792969
0.05465058237314224,0.05005505681037903,9.816394805908203,-0.0004235460253761578,-0.0024403177049006305,0.0007589198975202821,3.8499903678894043,2019-07-26 14:12:59:672,8.578723479132597,179.3982394423775,0,-23.690353393554688,35.08571243286133,-38.68424987792969
0.021124087274074554,0.047660309821367264,9.86907958984375,0.0006419785825086126,-4.288736560552649e-05,-0.00030660471036448813,3.8599841594696045,2019-07-26 14:12:59:682,4.809625825696104,179.40438053073672,0,-23.690353393554688,35.08571243286133,-38.68424987792969
0.04507158324122429,0.06921305507421494,9.821184158325195,0.00010921627043890474,0.00022349378230200473,0.003156350175860466,3.8699965476989746,2019-07-26 14:12:59:692,1.1185664850818102,179.40815601598183,0,-21.89108657836914,35.08571243286133,-38.08449172973633
0.021124087274074554,0.054844558238983154,9.804421424865723,0.00010921627043890474,0.00075625608624439,-0.0011057481256414525,3.8799853324890137,2019-07-26 14:12:59:702,-2.501760079907986,179.41352161543,0,-21.89108657836914,35.08571243286133,-38.08449172973633
0.01872933655977249,0.05005505681037903,9.823579788208008,0.002240265413062541,-0.0003092685216403804,-0.0029704160187660244,3.8899919986724854,2019-07-26 14:12:59:712,-6.049366343750096,179.41815359218785,0,-21.89108657836914,35.08571243286133,-38.08449172973633
0.049861084669828415,0.08118680119514465,9.732579231262207,-0.0012226895056717034,0.004485591872493534,-0.00030660471036448813,3.899991035461426,2019-07-26 14:12:59:722,-9.525026826490619,179.42091826616954,0,-21.89108657836914,35.08571243286133,-38.08449172973633
-0.019586658105254173,0.06681830435991287,9.79963207244873,-0.0030873573987962753,0.0004898749261458747,-0.0024376537635875752,3.9100027084350586,2019-07-26 14:12:59:732,-5.737092029195875,179.42642222395656,0,-21.89108657836914,35.08571243286133,-38.08449172973633
0.016334587708115578,0.047660309821367264,9.787657737731934,-0.0004235460253761578,-0.0013747930645065694,0.0015580632802879558,3.919992208480835,2019-07-26 14:12:59:742,-9.219666641976684,179.43255143914803,0,-21.89108657836914,35.08571243286133,-38.08449172973633
0.0019660894758999348,0.02371281199157238,9.802026748657227,-0.002820976271207051,-4.288736560552649e-05,-0.001372129253230677,3.9299933910369873,2019-07-26 14:12:59:752,-12.63501937746865,179.44271240778576,0,-21.89108657836914,35.08571243286133,-38.08449172973633
-0.01719190739095211,0.05244980752468109,9.842737197875977,-0.00015716488153228781,-0.0013747930645065694,-0.0027040348911768,3.939990520477295,2019-07-26 14:12:59:762,-8.783548789037969,179.44784010480987,0,-21.89108657836914,35.08571243286133,-38.08449172973633
-0.021981406956911087,0.028502311557531357,9.883447647094727,-0.0030873573987962753,0.001289018341422839,-4.022355432963424e-05,3.949991226196289,2019-07-26 14:12:59:772,-5.01115023026497,179.4573123405107,0,-21.89108657836914,35.08571243286133,-38.08449172973633
-0.026770906522870064,0.05244980752468109,9.823579788208008,-0.004952025291920847,0.00022349378230200473,-0.00030660471036448813,3.9599974155426025,2019-07-26 14:12:59:782,-1.3141755996965458,179.46483018488712,0,-21.89108657836914,35.08571243286133,-38.08449172973633
-0.01000765897333622,0.06442355364561081,9.8187894821167,0.001174740902705643,-0.0005756496817388956,0.0028899690482712416,3.9699931144714355,2019-07-26 14:12:59:792,2.3112630423237865,179.46735571623051,0,-21.89108657836914,35.08571243286133,-38.08449172973633
0.004360839258879423,0.05723930895328522,9.854711532592773,0.004104933306187114,-0.0019075553196850185,-0.001372129253230677,3.979990243911743,2019-07-26 14:12:59:802,-1.3333843536061178,179.46904858054782,0,-21.89108657836914,35.08571243286133,-38.08449172973633
-0.02437615767121315,0.054844558238983154,9.773289680480957,0.003039408795830215,-0.0024403177049006305,0.0023572067930927925,3.9899988174438477,2019-07-26 14:12:59:812,2.2917966512982595,179.47152907962996,0,-23.540414810180664,34.336021423339844,-37.63467788696289
-0.026770906522870064,0.054844558238983154,9.823579788208008,0.0027730276682409903,0.003153686234547411,-0.005634227814806921,3.999988555908203,2019-07-26 14:12:59:822,5.841068939934827,179.47414552116877,0,-23.540414810180664,34.336021423339844,-37.63467788696289
0.0019660894758999348,0.05963405594229698,9.809210777282715,-0.0004235460253761578,-0.003239461087668304,0.0015580632802879558,4.009991645812988,2019-07-26 14:12:59:832,2.126296755456345,179.4779341183458,0,-23.540414810180664,34.336021423339844,-37.63467788696289
-0.007612909190356731,0.05005505681037903,9.766105651855469,0.002506646540651766,0.0023545428517797373,-0.002171272635998351,4.019990682601929,2019-07-26 14:12:59:842,5.681555607093879,179.4810948851452,0,-23.540414810180664,34.336021423339844,-37.63467788696289
0.01872933655977249,0.07879205793142319,9.806816101074219,0.0033057899234194394,-0.0024403177049006305,-0.0005729858704630034,4.029993534088135,2019-07-26 14:12:59:852,1.9714836202973958,179.48040969507787,0,-23.540414810180664,34.336021423339844,-37.63467788696289
0.016334587708115578,0.018923312425613403,9.849921226501465,-0.0017554517608501525,0.00075625608624439,0.0012916821526987312,4.039994478225708,2019-07-26 14:12:59:862,-1.6664704049785204,179.4895857891333,0,-23.540414810180664,34.336021423339844,-37.63467788696289
0.01393983792513609,0.05005505681037903,9.773289680480957,0.00010921627043890474,-0.002173936447274243,-0.0029704160187660244,4.049994945526123,2019-07-26 14:12:59:872,-5.230285836335845,179.493863855045,0,-23.540414810180664,34.336021423339844,-37.63467788696289
0.01872933655977249,0.05723930895328522,9.816394805908203,-0.00015716488153228781,-0.0008420308093281202,-0.005101465039479822,4.059986591339111,2019-07-26 14:12:59:882,-8.72302135138957,179.49739300441533,0,-23.540414810180664,34.336021423339844,-37.63467788696289
-0.02437615767121315,0.08118680119514465,9.794842720031738,-0.004685644164331623,-0.0011084119369173448,-0.00030660471036448813,4.069995164871216,2019-07-26 14:12:59:892,-4.950789821932684,179.50058041605325,0,-23.540414810180664,34.336021423339844,-37.63467788696289
-0.007612909190356731,0.033291809260845184,9.849921226501465,-0.0033537385263855,-0.004038604470435978,0.005553780584237813,4.079999208450317,2019-07-26 14:12:59:902,-1.250391104568772,179.50857961641088,0,-23.540414810180664,34.336021423339844,-37.63467788696289
0.01393983792513609,0.07879205793142319,9.816394805908203,0.002506646540651766,-0.0035058422152575287,0.0004925387374217668,4.089992523193359,2019-07-26 14:12:59:912,-4.821788808753375,179.50780390312437,0,-23.540414810180664,34.336021423339844,-37.63467788696289
0.009150338359177113,0.03089706040918827,9.814000129699707,-0.0038865007815639487,-0.0016411741920957937,-0.0019048915084091261,4.099985599517822,2019-07-26 14:12:59:922,-8.323363729626106,179.5162209464899,0,-23.540414810180664,34.336021423339844,-37.63467788696289
-0.021981406956911087,0.0979500487446785,9.802026748657227,-0.0012226895056717034,-0.0011084119369173448,0.003156350175860466,4.109999179840088,2019-07-26 14:12:59:932,-4.558842991758587,179.5151334326124,0,-23.540414810180664,34.336021423339844,-37.63467788696289
-0.03874465450644493,0.07879205793142319,9.758920669555664,-0.0009563083130638975,0.00075625608624439,0.0004925387374217668,4.119988203048706,2019-07-26 14:12:59:942,-0.8726397678120428,179.5161153912363,0,-24.589988708496094,35.985347747802734,-38.08449172973633
0.004360839258879423,0.07879205793142319,9.806816101074219,-0.0004235460253761578,-0.0016411741920957937,0.000226157593577897,4.129999876022339,2019-07-26 14:12:59:952,-4.453754820496061,179.51682461500675,0,-24.589988708496094,35.985347747802734,-38.08449172973633
0.030703086405992508,0.06921305507421494,9.816394805908203,0.0033057899234194394,-0.0019075553196850185,0.0007589198975202821,4.139991044998169,2019-07-26 14:12:59:962,-7.960025471080462,179.51655412213955,0,-24.589988708496094,35.985347747802734,-38.08449172973633
0.0067555890418589115,0.0907658040523529,9.802026748657227,-0.0012226895056717034,-0.0011084119369173448,-4.022355432963424e-05,4.149985074996948,2019-07-26 14:12:59:972,-11.399413192755693,179.5162984058854,0,-24.589988708496094,35.985347747802734,-38.08449172973633
0.028308335691690445,0.07400255650281906,9.86907958984375,-0.0004235460253761578,0.0018217805966012882,-0.0016385103808199016,4.159996271133423,2019-07-26 14:12:59:982,-14.769162081595757,179.5176181230869,0,-24.589988708496094,35.985347747802734,-38.08449172973633
0.02591358684003353,0.062028806656599045,9.873868942260742,-0.0012226895056717034,0.0010226372138336143,0.0012916821526987312,4.169989109039307,2019-07-26 14:12:59:992,-18.07134523390804,179.52075312552128,0,-24.589988708496094,35.985347747802734,-38.08449172973633
0.021124087274074554,0.0979500487446785,9.825974464416504,0.0017075031578840923,0.002887305106958187,-0.0005729858704630034,4.179982900619507,2019-07-26 14:13:00:002,-21.309075030873863,179.51795723706158,0,-24.589988708496094,35.985347747802734,-38.08449172973633
-0.0004286601906642318,0.06681830435991287,9.794842720031738,-0.000689927185474673,-0.002706698832489855,-0.0005729858704630034,4.189995288848877,2019-07-26 14:13:00:012,-17.281421989469543,179.52016889767538,0,-24.589988708496094,35.985347747802734,-38.08449172973633
-0.029165657237172127,0.06681830435991287,9.864290237426758,-0.0004235460253761578,0.0023545428517797373,-0.005634227814806921,4.199989318847656,2019-07-26 14:13:00:022,-13.34050294134151,179.52224116330436,0,-24.589988708496094,35.985347747802734,-38.08449172973633
0.011545088142156601,0.07879205793142319,9.773289680480957,0.0009083597100978372,-0.0011084119369173448,0.005553780584237813,4.209998846054077,2019-07-26 14:13:00:032,-16.67171625991955,179.52204766387987,0,-24.589988708496094,35.985347747802734,-38.08449172973633
0.004360839258879423,0.018923312425613403,9.833158493041992,0.001174740902705643,-0.0019075553196850185,0.005287399456648588,4.219992637634277,2019-07-26 14:13:00:042,-19.936703315858445,179.52874226291885,0,-24.589988708496094,35.985347747802734,-38.08449172973633
-0.007612909190356731,0.05963405594229698,9.830763816833496,-0.00015716488153228781,-0.0037722233428467535,-0.003503178534018799,4.229993104934692,2019-07-26 14:13:00:052,-15.936738445145041,179.53130455603284,0,-24.589988708496094,35.985347747802734,-38.08449172973633
-0.01719190739095211,0.071607805788517,9.816394805908203,0.0003755974224100973,0.0004898749261458747,-0.004568702784301372,4.2399938106536865,2019-07-26 14:13:00:062,-12.020285652813628,179.5321085728172,0,-24.290109634399414,35.38559341430664,-38.984127044677734
0.030703086405992508,0.071607805788517,9.8187894821167,-0.00015716488153228781,-0.0005756496817388956,-0.002171272635998351,4.249991178512573,2019-07-26 14:13:00:072,-15.375973563263162,179.53319768480506,0,-24.290109634399414,35.38559341430664,-38.984127044677734
-0.014797158539295197,0.018923312425613403,9.74934196472168,-0.000689927185474673,-0.005903272623634875,-4.022355432963424e-05,4.259989023208618,2019-07-26 14:13:00:082,-11.466879350057884,179.5406968402668,0,-24.290109634399414,35.38559341430664,-38.984127044677734
0.016334587708115578,0.054844558238983154,9.804421424865723,-0.000689927185474673,-0.003239461087668304,-0.0059006089423961445,4.269999027252197,2019-07-26 14:13:00:092,-14.8338118474915,179.5438606599651,0,-24.290109634399414,35.38559341430664,-38.984127044677734
0.011545088142156601,0.06681830435991287,9.8187894821167,0.001973884285473317,-0.002973079960079079,-0.0032367971463552496,4.279994487762451,2019-07-26 14:13:00:102,-18.134119602928944,179.5440776130514,0,-24.290109634399414,35.38559341430664,-38.984127044677734
0.011545088142156601,0.0907658040523529,9.849921226501465,-0.0012226895056717034,-0.0013747930645065694,-0.0005729858704630034,4.289998292922974,2019-07-26 14:13:00:112,-21.369321846176614,179.5433236891631,0,-24.290109634399414,35.38559341430664,-38.984127044677734
0.035492584109306335,0.07400255650281906,9.861895561218262,-0.000689927185474673,-0.003239461087668304,0.000226157593577897,4.299988508224487,2019-07-26 14:13:00:122,-24.535994147571557,179.54424556902435,0,-24.290109634399414,35.38559341430664,-38.984127044677734
0.011545088142156601,0.07639730721712112,9.718210220336914,0.001973884285473317,-0.002173936447274243,0.002623587920682017,4.309993743896484,2019-07-26 14:13:00:132,-27.642691633251903,179.54324359744717,0,-24.290109634399414,35.38559341430664,-38.984127044677734
0.016334587708115578,0.06442355364561081,9.912184715270996,0.0017075031578840923,-0.0008420308093281202,-0.0048350839118905965,4.3200085163116455,2019-07-26 14:13:00:142,-30.687475915892477,179.54397085484138,0,-24.290109634399414,35.38559341430664,-38.984127044677734
0.009150338359177113,0.04287080839276314,9.89781665802002,-0.005484787547099296,-0.0037722233428467535,-0.0016385103808199016,4.329990386962891,2019-07-26 14:13:00:152,-33.67055276297443,179.55120223629095,0,-24.290109634399414,35.38559341430664,-38.984127044677734
-0.0004286601906642318,0.004554813727736473,9.821184158325195,-0.00015716488153228781,-0.002973079960079079,-0.0019048915084091261,4.339996099472046,2019-07-26 14:13:00:162,-29.395521388918322,179.559735043574,0,-24.290109634399414,35.38559341430664,-38.984127044677734
0.009150338359177113,0.07639730721712112,9.780473709106445,0.0006419785825086126,-0.0019075553196850185,0.0023572067930927925,4.349991321563721,2019-07-26 14:13:00:172,-32.40546829683438,179.55922924269768,0,-24.290109634399414,35.38559341430664,-38.984127044677734
0.016334587708115578,0.05963405594229698,9.823579788208008,0.004637695821439887,0.0036864487498001856,0.002090825535466405,4.35999059677124,2019-07-26 14:13:00:182,-35.357523297227544,179.55848458981637,0,-24.290109634399414,35.38559341430664,-38.984127044677734
0.011545088142156601,0.018923312425613403,9.773289680480957,0.00010921627043890474,0.00022349378230200473,0.000226157593577897,4.36999249458313,2019-07-26 14:13:00:192,-38.249144688699154,179.56503481106748,0,-23.540414810180664,34.93577575683594,-37.93455505371094
0.004360839258879423,0.05244980752468109,9.77807903289795,0.0009083597100978372,-0.0035058422152575287,0.0023572067930927925,4.379989862442017,2019-07-26 14:13:00:202,-41.081682730678494,179.56707755162762,0,-23.540414810180664,34.93577575683594,-37.93455505371094
0.02591358684003353,0.04287080839276314,9.761316299438477,0.0003755974224100973,-0.0011084119369173448,-0.00030660471036448813,4.389993906021118,2019-07-26 14:13:00:212,-43.85638437175804,179.57049229376966,0,-23.540414810180664,34.93577575683594,-37.93455505371094
0.009150338359177113,0.047660309821367264,9.794842720031738,-0.0030873573987962753,-0.002706698832489855,-0.0019048915084091261,4.400055170059204,2019-07-26 14:13:00:222,-46.57665705205691,179.57525079721066,0,-23.540414810180664,34.93577575683594,-37.93455505371094
0.04746633395552635,0.05244980752468109,9.828369140625,0.001973884285473317,0.0004898749261458747,0.0039554935586281394,4.410024642944336,2019-07-26 14:13:00:232,-49.23986395285677,179.57652562741748,0,-23.540414810180664,34.93577575683594,-37.93455505371094
0.01393983792513609,0.06442355364561081,9.792448043823242,-0.002021832888439377,-0.0024403177049006305,-0.0019048915084091261,4.4200053215026855,2019-07-26 14:13:00:242,-51.85206784276226,179.57858942047775,0,-23.540414810180664,34.93577575683594,-37.93455505371094
0.011545088142156601,0.0452655591070652,9.782868385314941,-0.001489070633260928,-0.004304985598025202,0.0004925387374217668,4.429991722106934,2019-07-26 14:13:00:252,-54.411260197209074,179.582550465944,0,-23.540414810180664,34.93577575683594,-37.93455505371094
0.011545088142156601,0.054844558238983154,9.794842720031738,0.001973884285473317,0.002620923979368962,-0.0008393669980522279,4.440001726150513,2019-07-26 14:13:00:262,-56.92315743154936,179.58337372183485,0,-23.540414810180664,34.93577575683594,-37.93455505371094
0.030703086405992508,0.011739063076674938,9.816394805908203,0.0017075031578840923,-0.004304985598025202,0.0028899690482712416,4.449995040893555,2019-07-26 14:13:00:272,-59.37869454618128,179.58937777028336,0,-23.540414810180664,34.93577575683594,-37.93455505371094
-0.026770906522870064,0.06921305507421494,9.77807903289795,-0.0004235460253761578,-0.0013747930645065694,0.002623587920682017,4.459995269775391,2019-07-26 14:13:00:282,-54.593486029475365,179.58971693905386,0,-23.540414810180664,34.93577575683594,-37.93455505371094
-0.01719190739095211,0.054844558238983154,9.770895004272461,0.001174740902705643,-0.004304985598025202,0.0039554935586281394,4.469995975494385,2019-07-26 14:13:00:292,-49.901215133209334,179.59083092012335,0,-23.540414810180664,34.93577575683594,-37.93455505371094
-0.02437615767121315,0.0452655591070652,9.861895561218262,0.0014411220302948675,-0.0005756496817388956,-0.0005729858704630034,4.480019807815552,2019-07-26 14:13:00:302,-45.3056992468126,179.592943532478,0,-23.540414810180664,34.93577575683594,-37.93455505371094
-0.07945539802312851,0.071607805788517,9.890632629394531,0.001973884285473317,-0.002706698832489855,0.0007589198975202821,4.489989757537842,2019-07-26 14:13:00:312,-40.807275420335664,179.59168341852296,0,-24.290109634399414,36.58510208129883,-38.08449172973633
0.03309783712029457,0.0452655591070652,9.77807903289795,0.0009083597100978372,0.0034200676222109604,-0.0019048915084091261,4.499992847442627,2019-07-26 14:13:00:322,-43.58917207171184,179.59403481263723,0,-24.290109634399414,36.58510208129883,-38.08449172973633
