ACCELEROMETER X (m/s²),ACCELEROMETER Y (m/s²),ACCELEROMETER Z (m/s²),GYROSCOPE X (rad/s),GYROSCOPE Y (rad/s),GYROSCOPE Z (rad/s),Time since start in ms ,YYYY-MO-DD HH-MI-SS_SSS,Pitch (Deg),Roll (Deg),Heading (Deg),MagX,MagY,MagZ
0.10846300423145294,-0.046103719621896744,9.747454643249512,-0.015276425685209826,0.002365464673066639,0.005091342946742919,0.0,2019-07-26 12:06:03:796,-3.587249561785784,-3.5945800643287567,0,-25.039804458618164,31.037363052368164,-10.94554328918457
0.03422576189041138,0.02573877014219761,9.776191711425781,-0.012878995016758155,0.006627562974568559,0.004824961819153694,0.009956836700439453,2019-07-26 12:06:03:806,-7.11519812172612,0.08149490035685769,0,-25.039804458618164,31.037363052368164,-10.94554328918457
-0.037616729736328125,0.028133518993854523,9.871981620788574,-0.008616896975330562,0.008225849740103906,0.009353440988170512,0.019957780838012695,2019-07-26 12:06:03:816,-3.3818798360715743,3.6814381735403523,0,-24.290109634399414,30.287668228149414,-10.495726585388184
-0.16693320870399475,0.0880022644996643,10.08032512664795,-0.002756512168367621,0.010623279888406926,0.010152584891086835,0.029950618743896484,2019-07-26 12:06:03:826,0.26082210406051676,7.199352373752522,0,-24.290109634399414,30.287668228149414,-10.495726585388184
-0.0783274695277214,-0.0006034769467078149,10.149772644042969,0.011361688114009932,0.006893944102157782,0.012283633911800632,0.039951324462890625,2019-07-26 12:06:03:836,3.842891404503247,3.4490534365629033,0,-24.290109634399414,30.287668228149414,-10.495726585388184
-0.07593272626399994,-0.23768369853496552,9.900718688964844,0.014025500430199478,-0.003228539526455727,0.013349158422157531,0.04998898506164551,2019-07-26 12:06:03:846,7.35906489356908,-0.20032820827481146,0,-24.290109634399414,30.287668228149414,-10.495726585388184
-0.11664346605539322,-0.218525692820549,9.800139427185059,0.008165114582939236,0.0031646080558343135,0.0168121136009661,0.059941768646240234,2019-07-26 12:06:03:856,10.796476761195496,-3.7753370499617125,0,-24.290109634399414,30.287668228149414,-10.495726585388184
-0.11424871534109116,-0.1011829674243927,9.749850273132324,0.015091024940556376,0.0119551860465017,0.02080783103495312,0.06997847557067871,2019-07-26 12:06:03:866,14.160382543780447,-7.296443232812938,0,-24.290109634399414,30.287668228149414,-10.495726585388184
-0.09269597381353378,-0.1011829674243927,9.771402359008789,0.012427212624366829,0.016483664695369868,0.020008687132036795,0.08011984825134277,2019-07-26 12:06:03:876,17.45691813814654,-10.745725335946196,0,-24.290109634399414,30.287668228149414,-10.495726585388184
0.0916997566819191,-0.02215622365474701,9.771402359008789,0.008431495710528461,0.004762895081443986,0.011218109401443733,0.08996987342834473,2019-07-26 12:06:03:886,13.51589905777428,-14.132875791833555,0,-24.290109634399414,30.287668228149414,-10.495726585388184
0.06296275556087494,0.08081801235675812,9.651664733886719,0.005234922179457767,0.002631845800655864,0.006156867457099816,0.10002660751342773,2019-07-26 12:06:03:896,9.651570203386736,-10.262769430031836,0,-24.290109634399414,30.287668228149414,-10.495726585388184
0.12762099504470825,0.09997601062059402,9.766613006591797,0.00150558626317146,0.010356899280966352,0.004558580691564469,0.11015033721923828,2019-07-26 12:06:03:906,5.867624365514529,-6.470099650219198,0,-24.290109634399414,30.287668228149414,-10.495726585388184
0.254542738199234,0.023344019427895546,9.678007125854492,-0.0024901310407783963,0.006094800719390108,-0.0063630465798910395,0.11995124816894531,2019-07-26 12:06:03:916,2.177049742264585,-2.742091310687138,0,-24.290109634399414,30.287668228149414,-10.495726585388184
-0.5069876909255981,-0.1466832011938095,10.233589172363281,-0.048840451922641324,-0.016281215558550707,0.00748877309504594,0.13007164001464844,2019-07-26 12:06:03:926,5.686036650889623,-6.243071614315608,0,-24.290109634399414,30.287668228149414,-10.495726585388184
-0.40161868929862976,-0.8722923398017883,10.932856559753418,-0.11916507376738582,-0.04425123447556794,0.010685347146265284,0.13997435569763184,2019-07-26 12:06:03:936,9.154844892830653,-9.56071498109573,0,-24.290109634399414,30.287668228149414,-10.495726585388184
-0.27230221033096313,-0.6687386631965637,10.224010467529297,-0.06322502969156756,-0.027202842309857565,-0.0005026612202701574,0.1500399112701416,2019-07-26 12:06:03:946,12.556609841144597,-12.858921017254065,0,-25.189743041992188,31.187301635742188,-10.495726585388184
0.3718854784965515,-0.41968467831611633,9.886350631713867,-0.011014327643782233,0.00902499312287158,-0.009826001238550958,0.16008901596069336,2019-07-26 12:06:03:956,8.743469745982349,-16.146911716385304,0,-25.189743041992188,31.187301635742188,-10.495726585388184
0.35991171002388,0.04729151725769043,9.871981620788574,-0.007284991337384439,-0.0034949206540449518,0.003493055921133246,0.16997289657592773,2019-07-26 12:06:03:966,5.012299136805808,-12.225419910303357,0,-25.189743041992188,31.187301635742188,-10.495726585388184
0.08691025525331497,-0.0820249691605568,9.718718528747559,0.009230639093296135,0.012221566653942273,-0.006629427707480263,0.17995595932006836,2019-07-26 12:06:03:976,1.315449533544832,-15.576414546571087,0,-25.189743041992188,31.187301635742188,-10.495726585388184
0.05577851086854935,-0.06765646487474442,9.807323455810547,-0.009682421485687459,-0.013617404282658462,0.006156867457099816,0.1899569034576416,2019-07-26 12:06:03:986,-2.296695331529885,-18.85154402730634,0,-25.189743041992188,31.187301635742188,-10.495726585388184
-0.08311697095632553,-0.08681446313858032,9.692376136779785,-0.005686704571849092,0.006893944102157782,0.0024275314107763475,0.19995999336242676,2019-07-26 12:06:03:996,1.33553988058631,-22.061055409504426,0,-25.189743041992188,31.187301635742188,-10.495726585388184
-0.17890696227550507,0.016159771010279655,9.929455757141113,0.0017719673907606846,0.008225849740103906,0.004025818176311695,0.20995616912841797,2019-07-26 12:06:04:006,4.883567400141647,-18.022693805808082,0,-25.189743041992188,31.187301635742188,-10.495726585388184
-0.25314420461654663,-0.09160396456718445,9.881561279296875,0.002038348518349909,-0.001630252630883217,0.005890486329510593,0.21995973587036133,2019-07-26 12:06:04:016,8.357462306257784,-21.252762315246187,0,-25.189743041992188,31.187301635742188,-10.495726585388184
-0.131011962890625,-0.09160396456718445,9.721113204956055,-0.001158225272795111,0.0018327022878510278,-0.004764759294207041,0.22994661331176758,2019-07-26 12:06:04:026,11.773842719855894,-24.41625971171273,0,-25.189743041992188,31.187301635742188,-10.495726585388184
-0.21243345737457275,0.016159771010279655,9.80492877960205,-0.0006254629525980806,0.005828419591800884,-0.014354480927716426,0.239973783493042,2019-07-26 12:06:04:036,15.110260815593898,-20.329470979756977,0,-25.189743041992188,31.187301635742188,-10.495726585388184
-0.176512211561203,0.05208101496100426,9.840849876403809,-0.0019573686555627847,0.014618997322393947,-0.02261229536283374,0.24995112419128418,2019-07-26 12:06:04:046,18.379313930494302,-16.327849496382555,0,-25.189743041992188,31.187301635742188,-10.495726585388184
0.04619951173663139,0.04489676654338837,9.886350631713867,0.0017719673907606846,0.0018327022878510278,-0.026341632189380185,0.2599599361419678,2019-07-26 12:06:04:056,14.416052578808554,-12.407492237552818,0,-25.189743041992188,31.187301635742188,-10.495726585388184
0.04380476102232933,0.042502015829086304,9.857613563537598,0.00044006165528668966,0.0012999400326725785,-0.02714077609229651,0.26995158195495605,2019-07-26 12:06:04:066,10.53209435026835,-8.564529971207396,0,-25.189743041992188,31.187301635742188,-10.495726585388184
0.10127875208854675,0.023344019427895546,9.819297790527344,-0.004354798933902968,0.0010335588400647727,-0.033800303761878474,0.2799644470214844,2019-07-26 12:06:04:076,6.732690222528969,-4.793515262670336,0,-25.189743041992188,31.187301635742188,-10.495726585388184
0.14677900075912476,-0.04849847033619881,9.802534103393555,-0.0030228932959568454,0.008225849740103906,-0.032202018036640426,0.28995656967163086,2019-07-26 12:06:04:086,3.010578426363401,-8.29027952228175,0,-25.189743041992188,31.187301635742188,-10.495726585388184
0.24975323677062988,-0.07723546773195267,9.800139427185059,-0.0014246064003843356,0.009291374770609455,-0.03406668436931905,0.29995036125183105,2019-07-26 12:06:04:096,-0.6256500461761165,-11.71464367358183,0,-25.189743041992188,31.187301635742188,-10.495726585388184
0.17791074514389038,-0.13949896395206451,9.83366584777832,-0.0019573686555627847,0.0018327022878510278,-0.030337349623367205,0.30997323989868164,2019-07-26 12:06:04:106,-4.193438808836699,-15.062994522953765,0,-25.189743041992188,31.187301635742188,-10.495726585388184
0.21143724024295807,-0.11794621497392654,9.785771369934082,-0.002756512168367621,0.001566321160261803,-0.025542488286463858,0.31995320320129395,2019-07-26 12:06:04:116,-7.685692270583416,-18.34637910162276,0,-25.189743041992188,31.187301635742188,-10.495726585388184
0.21383199095726013,-0.1921834498643875,9.740270614624023,-0.0008918440801873052,0.0031646080558343135,-0.019415721831763044,0.32996058464050293,2019-07-26 12:06:04:126,-11.108603964627488,-21.556343468809228,0,-25.189743041992188,31.187301635742188,-10.495726585388184
0.15875273942947388,-0.13231471180915833,9.826481819152832,0.0009728239429744294,0.006627562974568559,-0.016485529948430225,0.3399543762207031,2019-07-26 12:06:04:136,-14.471639595562541,-24.71033354637327,0,-25.189743041992188,31.187301635742188,-10.495726585388184
0.14198949933052063,-0.06765646487474442,9.78098201751709,0.00150558626317146,0.0012999400326725785,-0.0036992350439244686,0.3499588966369629,2019-07-26 12:06:04:146,-17.766303079059796,-27.809046305053435,0,-25.189743041992188,31.187301635742188,-10.495726585388184
0.065357506275177,-0.03652472048997879,9.745059967041016,-0.001158225272795111,0.00556203846421166,0.0013620067703822866,0.3599581718444824,2019-07-26 12:06:04:156,-21.006414634528888,-30.847920184933066,0,-25.189743041992188,31.187301635742188,-10.495726585388184
0.005488766357302666,0.037712518125772476,9.761823654174805,-9.270064052837282e-05,0.007426706357336231,0.001095625642793062,0.36995911598205566,2019-07-26 12:06:04:166,-24.189812508844582,-26.635336679364677,0,-25.189743041992188,31.187301635742188,-10.495726585388184
-0.037616729736328125,0.06644951552152634,9.814508438110352,0.00017368051144281974,0.006627562974568559,0.010685347146265284,0.37995123863220215,2019-07-26 12:06:04:176,-20.11412670142316,-22.51048573836927,0,-25.189743041992188,31.187301635742188,-10.495726585388184
-0.03522197902202606,0.06405476480722427,9.85042953491211,0.0007064428153852049,0.0031646080558343135,0.0168121136009661,0.3899574279785156,2019-07-26 12:06:04:186,-16.117719599741317,-18.46812441989063,0,-25.189743041992188,31.187301635742188,-10.495726585388184
-0.028037728741765022,0.02573877014219761,9.802534103393555,0.00656682781740389,0.006893944102157782,0.018676782014239324,0.3999662399291992,2019-07-26 12:06:04:196,-12.202517158735134,-14.505461299193476,0,-24.739927291870117,30.737483978271484,-10.645665168762207
-0.0855117216706276,-0.024550974369049072,9.75224494934082,0.00044006165528668966,0.006094800719390108,0.024537165780904962,0.4099552631378174,2019-07-26 12:06:04:206,-8.371932886236529,-17.812714095116082,0,-24.739927291870117,30.737483978271484,-10.645665168762207
-0.07353797554969788,-0.05328797176480293,9.812113761901855,0.00150558626317146,0.004496513953854761,0.026934597489653933,0.4199533462524414,2019-07-26 12:06:04:216,-4.615606561780099,-21.051081818380815,0,-24.739927291870117,30.737483978271484,-10.645665168762207
-0.08790647238492966,-0.08681446313858032,9.828876495361328,0.0017719673907606846,0.00502927620903321,0.019475923836561045,0.4299590587615967,2019-07-26 12:06:04:226,-0.9363684216121673,-24.22093456513701,0,-24.739927291870117,30.737483978271484,-10.645665168762207
-0.07593272626399994,-0.1275252103805542,9.836060523986816,0.0028374920311547455,0.001566321160261803,0.017877638111322997,0.4399538040161133,2019-07-26 12:06:04:236,2.672633822645384,-27.32325224138787,0,-24.739927291870117,30.737483978271484,-10.645665168762207
0.0006992669077590108,-0.09878821671009064,9.816903114318848,0.0017719673907606846,0.0031646080558343135,0.015213825795133452,0.44995713233947754,2019-07-26 12:06:04:246,-0.9825147437359241,-30.36625144150647,0,-24.739927291870117,30.737483978271484,-10.645665168762207
0.024646764621138573,-0.12991996109485626,9.716322898864746,0.0012392051355822353,0.0018327022878510278,0.008554297605402838,0.4599466323852539,2019-07-26 12:06:04:256,-4.560985664848664,-33.34430001508275,0,-24.739927291870117,30.737483978271484,-10.645665168762207
0.10606825351715088,-0.0556827187538147,9.7642183303833,-0.0008918440801873052,0.005828419591800884,0.004025818176311695,0.4699575901031494,2019-07-26 12:06:04:266,-8.060594648680475,-36.270377918332585,0,-24.739927291870117,30.737483978271484,-10.645665168762207
0.14677900075912476,-0.04849847033619881,9.855218887329102,-0.002756512168367621,0.00502927620903321,0.0002964822275160976,0.47997069358825684,2019-07-26 12:06:04:276,-11.485144920995786,-39.137781439818944,0,-24.739927291870117,30.737483978271484,-10.645665168762207
0.10367350280284882,0.03292302042245865,9.773797035217285,-0.004088417806313744,0.007160325229747007,-0.0021009480183147955,0.4899590015411377,2019-07-26 12:06:04:286,-14.847303231126983,-34.75659285438251,0,-24.739927291870117,30.737483978271484,-10.645665168762207
0.14677900075912476,0.04729151725769043,9.778586387634277,-0.007018610209795215,0.007160325229747007,-0.007428571090247938,0.49994969367980957,2019-07-26 12:06:04:296,-18.137174752271328,-30.46306559639476,0,-24.739927291870117,30.737483978271484,-10.645665168762207
0.13001574575901031,0.07123901695013046,9.7642183303833,-0.004354798933902968,0.0010335588400647727,-0.005031140421796266,0.5099563598632812,2019-07-26 12:06:04:306,-21.359754413823175,-26.259717808076562,0,-24.739927291870117,30.737483978271484,-10.645665168762207
0.07972601056098938,0.011370271444320679,9.910298347473145,-0.008084134720152113,0.0010335588400647727,-0.005563903197123366,0.5199546813964844,2019-07-26 12:06:04:316,-24.523921148490263,-22.131299713069275,0,-25.489622116088867,32.086936950683594,-9.895970344543457
0.07733125984668732,-0.0029982265550643206,9.814508438110352,-0.004354798933902968,0.003697370311012762,-0.011957050259264756,0.5299901962280273,2019-07-26 12:06:04:326,-27.626497364114147,-25.285869756145026,0,-25.489622116088867,32.086936950683594,-9.895970344543457
0.03422576189041138,-0.09160396456718445,9.836060523986816,-0.008350515847741337,0.003963751438601987,-0.010358763493729408,0.5401535034179688,2019-07-26 12:06:04:336,-30.67224206843059,-28.36471529745433,0,-25.489622116088867,32.086936950683594,-9.895970344543457
0.048594262450933456,-0.10357771068811417,9.83366584777832,-0.0019573686555627847,0.000767177712475548,-0.007428571090247938,0.5499753952026367,2019-07-26 12:06:04:346,-33.65355768800681,-31.38427205823419,0,-25.489622116088867,32.086936950683594,-9.895970344543457
0.024646764621138573,-0.13231471180915833,9.848034858703613,-0.0024901310407783963,0.003430989183423538,0.001095625642793062,0.559967041015625,2019-07-26 12:06:04:356,-36.57954353339966,-34.33979438987432,0,-25.489622116088867,32.086936950683594,-9.895970344543457
0.027041513472795486,-0.10357771068811417,9.864797592163086,-9.270064052837282e-05,0.006893944102157782,-0.0007690423803686727,0.5700232982635498,2019-07-26 12:06:04:366,-39.448704188722786,-37.24091479584546,0,-25.489622116088867,32.086936950683594,-9.895970344543457
0.060568008571863174,-0.10597246140241623,9.785771369934082,0.003636635413922419,0.0063611818469793335,0.005890486329510593,0.5799572467803955,2019-07-26 12:06:04:376,-42.256185873515385,-40.08571606901631,0,-25.489622116088867,32.086936950683594,-9.895970344543457
0.08451550453901291,-0.11555146425962448,9.809718132019043,0.005234922179457767,0.004496513953854761,0.00748877309504594,0.5899581909179688,2019-07-26 12:06:04:386,-45.00371480363225,-42.87344398491514,0,-25.489622116088867,32.086936950683594,-9.895970344543457
0.11564724892377853,-0.07723546773195267,9.800139427185059,0.003636635413922419,0.004762895081443986,0.011484490008884308,0.5999467372894287,2019-07-26 12:06:04:396,-47.692789971990514,-45.60898389194174,0,-25.489622116088867,32.086936950683594,-9.895970344543457
0.09409450739622116,-0.0820249691605568,9.812113761901855,0.0025711109035655207,0.005828419591800884,0.008820678732992063,0.6099593639373779,2019-07-26 12:06:04:406,-50.3312223886548,-48.28867058345241,0,-25.489622116088867,32.086936950683594,-9.895970344543457
0.13001574575901031,-0.0748407170176506,9.800139427185059,0.0023047297759762964,0.006094800719390108,0.014148301284776555,0.6199524402618408,2019-07-26 12:06:04:416,-52.91281613961625,-50.91543953585058,0,-25.489622116088867,32.086936950683594,-9.895970344543457
0.10127875208854675,-0.05089322105050087,9.800139427185059,0.0017719673907606846,0.00902499312287158,0.012550014519241206,0.6299655437469482,2019-07-26 12:06:04:426,-55.447792027531044,-53.49217619171592,0,-25.489622116088867,32.086936950683594,-9.895970344543457
0.1252262443304062,-0.041314221918582916,9.735481262207031,0.004435778796690093,0.004230132566191211,0.016545731953228227,0.6399545669555664,2019-07-26 12:06:04:436,-57.92646984130058,-56.01995775310823,0,-25.489622116088867,32.086936950683594,-9.895970344543457
0.13480524718761444,-0.06286697089672089,9.807323455810547,0.004435778796690093,0.007693087484925456,0.010685347146265284,0.6499583721160889,2019-07-26 12:06:04:446,-60.356511709369414,-58.49470477432076,0,-22.940658569335938,31.63711929321289,-10.94554328918457
0.14198949933052063,-0.05328797176480293,9.773797035217285,0.00044006165528668966,0.006627562974568559,0.012017252264062759,0.6599526405334473,2019-07-26 12:06:04:456,-62.73645451437777,-60.91881001708901,0,-22.940658569335938,31.63711929321289,-10.94554328918457
0.08691025525331497,-0.0748407170176506,9.776191711425781,-0.0006254629525980806,0.00556203846421166,0.008820678732992063,0.6699590682983398,2019-07-26 12:06:04:466,-65.07466359775968,-63.291310116649825,0,-22.940658569335938,31.63711929321289,-10.94554328918457
0.05098900943994522,-0.09639346599578857,9.819297790527344,-0.0024901310407783963,0.0012999400326725785,0.00748877309504594,0.6799650192260742,2019-07-26 12:06:04:476,-67.36795029243933,-65.61283608618287,0,-22.940658569335938,31.63711929321289,-10.94554328918457
0.01506776548922062,-0.08681446313858032,9.7642183303833,-0.0032892744235460706,0.004762895081443986,0.011750871656622183,0.6899580955505371,2019-07-26 12:06:04:486,-69.62149546267769,-67.88854555939199,0,-22.940658569335938,31.63711929321289,-10.94554328918457
-0.03522197902202606,-0.05807746946811676,9.785771369934082,-0.004088417806313744,0.00502927620903321,0.009087060380729938,0.6999495029449463,2019-07-26 12:06:04:496,-64.63601154095628,-70.12168017743339,0,-22.940658569335938,31.63711929321289,-10.94554328918457
-0.04001147672533989,-0.02934047393500805,9.82169246673584,0.0023047297759762964,0.007160325229747007,0.005890486329510593,0.7099659442901611,2019-07-26 12:06:04:506,-59.751986622742436,-72.31711960533256,0,-22.940658569335938,31.63711929321289,-10.94554328918457
-0.0855117216706276,-0.06286697089672089,9.831271171569824,0.0028374920311547455,0.005295657336622434,0.0013620067703822866,0.7199528217315674,2019-07-26 12:06:04:516,-54.969883336468186,-74.46504080726118,0,-22.940658569335938,31.63711929321289,-10.94554328918457
-0.07114322483539581,-0.0556827187538147,9.86240291595459,0.0023047297759762964,-0.0021630148860616663,0.0037594370487224705,0.72995924949646,2019-07-26 12:06:04:526,-50.27753636868004,-76.57056520230768,0,-22.940658569335938,31.63711929321289,-10.94554328918457
-0.0783274695277214,-0.06765646487474442,9.819297790527344,-0.0014246064003843356,0.0018327022878510278,-0.0007690423803686727,0.7399489879608154,2019-07-26 12:06:04:536,-45.68215429521842,-78.63045939565366,0,-22.940658569335938,31.63711929321289,-10.94554328918457
-0.09269597381353378,-0.014971975237131119,9.82169246673584,0.00017368051144281974,0.006627562974568559,-0.00023628007642628753,0.7499558925628662,2019-07-26 12:06:04:546,-41.183049841306136,-80.6562009888963,0,-22.940658569335938,31.63711929321289,-10.94554328918457
-0.09988021850585938,-0.02215622365474701,9.855218887329102,-0.001158225272795111,0.0012999400326725785,-0.003965616171513693,0.7599494457244873,2019-07-26 12:06:04:556,-36.77173146342732,-82.63985083587175,0,-22.940658569335938,31.63711929321289,-10.94554328918457
-0.07593272626399994,-0.05089322105050087,9.838455200195312,0.002038348518349909,0.0018327022878510278,-0.004498378166617817,0.7699511051177979,2019-07-26 12:06:04:566,-32.44617001083215,-84.58227089953677,0,-24.440048217773438,32.236873626708984,-10.645665168762207
-0.08311697095632553,-0.06526172161102295,9.761823654174805,-0.002223749913189172,0.0031646080558343135,-0.006895808835069488,0.7799534797668457,2019-07-26 12:06:04:576,-28.20878060922693,-86.48171575950981,0,-24.440048217773438,32.236873626708984,-10.645665168762207
-0.059169474989175797,-0.09160396456718445,9.886350631713867,-0.0016909875279735602,0.0031646080558343135,-0.009026857335634634,0.7899603843688965,2019-07-26 12:06:04:586,-24.05324133131589,-88.34051389465539,0,-24.440048217773438,32.236873626708984,-10.645665168762207
-0.032827228307724,-0.06526172161102295,9.845640182495117,-0.004354798933902968,0.0012999400326725785,-0.009559619590813083,0.7999498844146729,2019-07-26 12:06:04:596,-19.97672633820246,-90.16366539244436,0,-24.440048217773438,32.236873626708984,-10.645665168762207
-0.04719572514295578,-0.06286697089672089,9.795350074768066,-0.001158225272795111,-0.0008311091830969619,-0.004764759294207041,0.8099608421325684,2019-07-26 12:06:04:606,-15.982245814200311,-91.95238659632889,0,-24.440048217773438,32.236873626708984,-10.645665168762207
-0.02564297989010811,-0.05328797176480293,9.848034858703613,-0.0032892744235460706,0.003430989183423538,-0.0021009480183147955,0.8199503421783447,2019-07-26 12:06:04:616,-12.067509176712687,-93.70529336211774,0,-24.440048217773438,32.236873626708984,-10.645665168762207
-0.0040902323089540005,-0.07005121558904648,9.831271171569824,-0.001158225272795111,0.0063611818469793335,-0.005830284324712591,0.8299620151519775,2019-07-26 12:06:04:626,-8.230211707696856,-95.42237148612715,0,-24.440048217773438,32.236873626708984,-10.645665168762207
0.010278265923261642,-0.06286697089672089,9.778586387634277,-0.0008918440801873052,-3.1965737342537616e-05,-0.0013018046355471218,0.8399636745452881,2019-07-26 12:06:04:636,-11.664385051143078,-97.10605616279267,0,-24.440048217773438,32.236873626708984,-10.645665168762207
0.017462514340877533,-0.034129973500967026,9.769007682800293,-0.0030228932959568454,0.006627562974568559,-0.009559619590813083,0.8499927520751953,2019-07-26 12:06:04:646,-15.032781168135696,-98.75822928559316,0,-24.440048217773438,32.236873626708984,-10.645665168762207
0.0294362623244524,-0.005392976105213165,9.816903114318848,-0.0006254629525980806,0.006893944102157782,-0.006629427707480263,0.8599541187286377,2019-07-26 12:06:04:656,-18.33254548017847,-100.38208534436032,0,-24.440048217773438,32.236873626708984,-10.645665168762207
0.04141001030802727,-0.05807746946811676,9.876771926879883,0.0041693976691008685,0.006893944102157782,-0.0029000914010824694,0.8699662685394287,2019-07-26 12:06:04:666,-21.564965800225906,-101.9700494490802,0,-24.440048217773438,32.236873626708984,-10.645665168762207
0.0030940165743231773,-0.041314221918582916,9.82169246673584,-0.002223749913189172,0.005295657336622434,-0.005830284324712591,0.8799526691436768,2019-07-26 12:06:04:676,-24.73627496002129,-103.5245813449842,0,-24.440048217773438,32.236873626708984,-10.645665168762207
0.031831011176109314,-0.014971975237131119,9.840849876403809,0.0009728239429744294,0.00902499312287158,-0.005563903197123366,0.8899610042572021,2019-07-26 12:06:04:686,-27.84291466387579,-105.05289300569697,0,-24.440048217773438,32.236873626708984,-10.645665168762207
0.024646764621138573,-0.017366724088788033,9.790560722351074,-0.001158225272795111,0.007959468612514682,-0.0015681857631363464,0.8999490737915039,2019-07-26 12:06:04:696,-30.887635546753398,-106.54915292998965,0,-25.33968162536621,32.236873626708984,-11.245421409606934
0.048594262450933456,-0.041314221918582916,9.79295539855957,0.00150558626317146,0.005828419591800884,-0.0034328539163352434,0.9099588394165039,2019-07-26 12:06:04:706,-33.86747250564473,-108.01418175649427,0,-25.33968162536621,32.236873626708984,-11.245421409606934
0.031831011176109314,-0.04370897263288498,9.819297790527344,-9.270064052837282e-05,0.00902499312287158,-0.005830284324712591,0.9199633598327637,2019-07-26 12:06:04:716,-36.791478190158145,-109.44874522738564,0,-25.33968162536621,32.236873626708984,-11.245421409606934
0.09409450739622116,0.011370271444320679,9.869586944580078,0.0023047297759762964,0.007693087484925456,-0.0026337102734932446,0.9299511909484863,2019-07-26 12:06:04:726,-39.64903844754261,-103.66238300376695,0,-25.33968162536621,32.236873626708984,-11.245421409606934
0.10367350280284882,-0.04849847033619881,9.855218887329102,-0.0014246064003843356,0.00502927620903321,-0.009293238983372509,0.9399611949920654,2019-07-26 12:06:04:736,-42.44683024336441,-105.1826955147113,0,-25.33968162536621,32.236873626708984,-11.245421409606934
0.065357506275177,-0.026945723220705986,9.79295539855957,-0.0030228932959568454,0.00902499312287158,-0.007428571090247938,0.9499514102935791,2019-07-26 12:06:04:746,-45.195308553674664,-106.6741928884022,0,-25.33968162536621,32.236873626708984,-11.245421409606934
0.08212075382471085,-0.04370897263288498,9.79295539855957,-0.001158225272795111,0.007160325229747007,-0.010625145141467283,0.9599554538726807,2019-07-26 12:06:04:756,-47.88581544584224,-108.13494388590397,0,-25.33968162536621,32.236873626708984,-11.245421409606934
0.07972601056098938,-0.026945723220705986,9.816903114318848,0.0023047297759762964,0.004762895081443986,-0.0063630465798910395,0.9699575901031494,2019-07-26 12:06:04:766,-50.52146794819575,-109.57039405249027,0,-25.33968162536621,32.236873626708984,-11.245421409606934
0.15875273942947388,-0.019761474803090096,9.845640182495117,-0.002223749913189172,-0.0008311091830969619,-0.008227714473015612,0.9799602031707764,2019-07-26 12:06:04:776,-53.09209646810895,-110.97543721472317,0,-25.33968162536621,32.236873626708984,-11.245421409606934
0.12043675035238266,-0.010182475671172142,9.807323455810547,-0.0014246064003843356,0.00556203846421166,0.0005628633876146128,0.9899551868438721,2019-07-26 12:06:04:786,-55.61930458371268,-112.35393920812123,0,-25.33968162536621,32.236873626708984,-11.245421409606934
0.10127875208854675,-0.010182475671172142,9.785771369934082,-0.0006254629525980806,0.002631845800655864,3.010106944941304e-05,0.9999613761901855,2019-07-26 12:06:04:796,-58.096537847829644,-113.70531664068923,0,-25.33968162536621,32.236873626708984,-11.245421409606934
0.13001574575901031,-0.03652472048997879,9.797744750976562,-0.0014246064003843356,0.002631845800655864,0.0013620067703822866,1.0099520683288574,2019-07-26 12:06:04:806,-60.520878124058754,-115.02613933310003,0,-25.33968162536621,32.236873626708984,-11.245421409606934
0.065357506275177,-0.04370897263288498,9.82169246673584,-0.005420323444259867,0.0020990834154402524,0.005357724074332143,1.0199596881866455,2019-07-26 12:06:04:816,-62.90401481981541,-116.317471147567,0,-25.33968162536621,32.236873626708984,-11.245421409606934
0.10846300423145294,-0.046103719621896744,9.785771369934082,-0.005153942316670643,0.004762895081443986,0.005890486329510593,1.0299487113952637,2019-07-26 12:06:04:826,-65.23590542967024,-117.58283225569723,0,-25.33968162536621,32.236873626708984,-11.245421409606934
0.11564724892377853,-0.024550974369049072,9.816903114318848,-0.0016909875279735602,-0.001630252630883217,0.005091342946742919,1.0399608612060547,2019-07-26 12:06:04:836,-67.51677208091814,-118.82735916930085,0,-25.33968162536621,32.236873626708984,-11.245421409606934
0.11325250566005707,-0.07244596630334854,9.769007682800293,-0.005686704571849092,0.010090517633228477,0.006156867457099816,1.0499522686004639,2019-07-26 12:06:04:846,-69.75881353159853,-120.03912381515865,0,-25.33968162536621,32.236873626708984,-11.245421409606934
0.13001574575901031,-0.0748407170176506,9.754639625549316,-0.0014246064003843356,0.003963751438601987,0.008820678732992063,1.0599591732025146,2019-07-26 12:06:04:856,-71.9505918859575,-121.22874921335413,0,-25.33968162536621,32.236873626708984,-11.245421409606934
0.08451550453901291,-0.03891947120428085,9.809718132019043,-0.004088417806313744,0.002631845800655864,0.013615539029598105,1.0701828002929688,2019-07-26 12:06:04:866,-74.10321849593609,-122.39728092344215,0,-25.33968162536621,32.236873626708984,-11.245421409606934
0.0916997566819191,-0.0820249691605568,9.845640182495117,0.00150558626317146,0.003697370311012762,0.015480207442871327,1.07993745803833,2019-07-26 12:06:04:876,-76.2125068056253,-123.54061343733488,0,-25.33968162536621,32.236873626708984,-11.245421409606934
0.05817325785756111,-0.09639346599578857,9.790560722351074,-0.002223749913189172,0.003697370311012762,0.0168121136009661,1.0899584293365479,2019-07-26 12:06:04:886,-78.28352840519344,-124.65726811150482,0,-25.33968162536621,32.236873626708984,-11.245421409606934
0.05098900943994522,-0.10597246140241623,9.78098201751709,-9.270064052837282e-05,0.0020990834154402524,0.017078494208406677,1.099949836730957,2019-07-26 12:06:04:896,-80.31306176507061,-125.75165575778843,0,-25.33968162536621,32.236873626708984,-11.245421409606934
0.03422576189041138,-0.05807746946811676,9.845640182495117,0.00017368051144281974,0.002631845800655864,0.014947445187692877,1.109964370727539,2019-07-26 12:06:04:906,-82.30429699923397,-126.82996085642343,0,-25.33968162536621,32.236873626708984,-11.245421409606934
-0.04240622743964195,-0.07723546773195267,9.809718132019043,-0.0003590817924995654,0.0028982269282450887,0.01441468293251443,1.1199519634246826,2019-07-26 12:06:04:916,-77.06479001454949,-127.88413824300302,0,-25.33968162536621,32.236873626708984,-11.245421409606934
-0.0783274695277214,-0.0748407170176506,9.828876495361328,-9.270064052837282e-05,-0.0021630148860616663,0.017078494208406677,1.1299598217010498,2019-07-26 12:06:04:926,-71.93141047235852,-128.91767812757317,0,-25.33968162536621,32.236873626708984,-11.245421409606934
-0.1046697199344635,-0.08920921385288239,9.860008239746094,-0.0006254629525980806,0.000767177712475548,0.011484490008884308,1.13995361328125,2019-07-26 12:06:04:936,-66.90537686801025,-129.92860610631124,0,-25.33968162536621,32.236873626708984,-11.245421409606934
-0.17890696227550507,-0.05328797176480293,9.848034858703613,-0.001158225272795111,0.004762895081443986,0.008287916477813613,1.149958848953247,2019-07-26 12:06:04:946,-61.99076038267791,-130.9231827833402,0,-23.990232467651367,30.58754539489746,-10.795604705810547
-0.16693320870399475,-0.09160396456718445,9.838455200195312,-0.0014246064003843356,0.00023441540853316294,0.008554297605402838,1.1599607467651367,2019-07-26 12:06:04:956,-57.17051819033983,-131.89324996989063,0,-23.990232467651367,30.58754539489746,-10.795604705810547
-0.15256471931934357,-0.04849847033619881,9.864797592163086,-0.0014246064003843356,0.0018327022878510278,0.0008292445152038374,1.1699540615081787,2019-07-26 12:06:04:966,-52.445857023629486,-132.84895195199775,0,-23.990232467651367,30.58754539489746,-10.795604705810547
-0.1645384579896927,-0.05328797176480293,9.843245506286621,-0.0032892744235460706,0.002631845800655864,-0.010092382886288833,1.1799652576446533,2019-07-26 12:06:04:976,-47.81757251309531,-133.78392038669236,0,-23.990232467651367,30.58754539489746,-10.795604705810547
-0.15974895656108856,-0.0006034769467078149,9.874377250671387,0.0007064428153852049,0.005295657336622434,-0.009026857335634634,1.1899540424346924,2019-07-26 12:06:04:986,-43.28272838635718,-134.70856816762839,0,-23.990232467651367,30.58754539489746,-10.795604705810547
-0.09509072452783585,-0.017366724088788033,9.898324012756348,-0.0030228932959568454,0.001566321160261803,-0.013022574769621653,1.1999578475952148,2019-07-26 12:06:04:996,-38.82896182648385,-135.61068828782632,0,-23.990232467651367,30.58754539489746,-10.795604705810547
-0.06635372340679169,0.013765021227300167,9.828876495361328,-0.002756512168367621,0.0028982269282450887,-0.015952767693251775,1.209951400756836,2019-07-26 12:06:05:006,-34.461744730806245,-129.29853255845737,0,-23.990232467651367,30.58754539489746,-10.795604705810547
-0.04001147672533989,0.004186022561043501,9.79295539855957,-0.0008918440801873052,0.0018327022878510278,-0.013288956417359528,1.2199594974517822,2019-07-26 12:06:05:016,-30.178221617175993,-123.11255055696458,0,-23.990232467651367,30.58754539489746,-10.795604705810547
0.024646764621138573,0.02573877014219761,9.864797592163086,-0.0014246064003843356,0.0031646080558343135,-0.016751910555870796,1.2299630641937256,2019-07-26 12:06:05:026,-33.17357172778806,-117.05248920873079,0,-23.990232467651367,30.58754539489746,-10.795604705810547
0.04141001030802727,-0.05807746946811676,9.869586944580078,-0.003555655551135295,-3.1965737342537616e-05,-0.014354480927716426,1.239952802658081,2019-07-26 12:06:05:036,-36.10527445169735,-118.30270192839464,0,-23.990232467651367,30.58754539489746,-10.795604705810547
0.01506776548922062,-0.07005121558904648,9.769007682800293,0.0012392051355822353,0.006627562974568559,-0.010625145141467283,1.2499592304229736,2019-07-26 12:06:05:046,-38.985125257822745,-119.52912720352312,0,-23.990232467651367,30.58754539489746,-10.795604705810547
0.07014700770378113,-0.12991996109485626,9.797744750976562,-0.004354798933902968,0.007959468612514682,-0.010092382886288833,1.2599527835845947,2019-07-26 12:06:05:056,-41.801685053391445,-120.72090685373546,0,-23.990232467651367,30.58754539489746,-10.795604705810547
0.08930500596761703,-0.11315671354532242,9.7642183303833,0.0028374920311547455,0.007693087484925456,-0.008494095600604835,1.2699661254882812,2019-07-26 12:06:05:066,-44.55949635002119,-121.89480476433434,0,-23.990232467651367,30.58754539489746,-10.795604705810547
0.08691025525331497,-0.13710421323776245,9.754639625549316,-0.005953085699438316,0.004496513953854761,-0.005563903197123366,1.2799484729766846,2019-07-26 12:06:05:076,-47.260617335840585,-123.0374668135526,0,-23.990232467651367,30.58754539489746,-10.795604705810547
0.08451550453901291,-0.10597246140241623,9.769007682800293,-0.0024901310407783963,0.002365464673066639,-0.0007690423803686727,1.2899580001831055,2019-07-26 12:06:05:086,-49.90682094330013,-124.16288773862213,0,-23.990232467651367,30.58754539489746,-10.795604705810547
0.0006992669077590108,-0.1011829674243927,9.70195484161377,-0.0006254629525980806,0.008225849740103906,0.0029602936659547966,1.299976110458374,2019-07-26 12:06:05:096,-52.51322910095952,-125.26732767956615,0,-23.990232467651367,30.58754539489746,-10.795604705810547
0.03422576189041138,-0.08681446313858032,9.776191711425781,-0.0003590817924995654,0.009557755378050028,0.0037594370487224705,1.3099584579467773,2019-07-26 12:06:05:106,-55.06430995829952,-126.35160417453316,0,-23.990232467651367,30.58754539489746,-10.795604705810547
0.005488766357302666,-0.06286697089672089,9.824087142944336,0.002038348518349909,0.007426706357336231,0.0018947690255607357,1.3199493885040283,2019-07-26 12:06:05:116,-57.56654983393784,-127.41838266154951,0,-23.990232467651367,30.58754539489746,-10.795604705810547
-0.02564297989010811,-0.02215622365474701,9.788166046142578,-0.001158225272795111,0.002365464673066639,0.001628387897971511,1.329955816268921,2019-07-26 12:06:05:126,-52.8195499522549,-128.4667703897725,0,-23.990232467651367,30.58754539489746,-10.795604705810547
-0.04719572514295578,-0.08920921385288239,9.80492877960205,0.00150558626317146,0.006627562974568559,-0.0007690423803686727,1.3399524688720703,2019-07-26 12:06:05:136,-48.17239486219929,-129.48785436707675,0,-23.990232467651367,30.58754539489746,-10.795604705810547
-0.018458731472492218,-0.04370897263288498,9.840849876403809,-0.0016909875279735602,0.00556203846421166,-0.0026337102734932446,1.349963903427124,2019-07-26 12:06:05:146,-43.614223033472356,-130.49205705864773,0,-23.990232467651367,30.58754539489746,-10.795604705810547
0.01267301570624113,-0.03173522278666496,9.843245506286621,-0.0003590817924995654,0.00556203846421166,-0.0021009480183147955,1.3599481582641602,2019-07-26 12:06:05:156,-46.34358138595122,-131.47832012216952,0,-23.990232467651367,30.58754539489746,-10.795604705810547
0.019857265055179596,-0.010182475671172142,9.773797035217285,-0.005420323444259867,0.006627562974568559,0.0005628633876146128,1.3699605464935303,2019-07-26 12:06:05:166,-49.01810760100712,-132.44451261499387,0,-23.990232467651367,30.58754539489746,-10.795604705810547
0.04380476102232933,-0.02934047393500805,9.826481819152832,-0.0003590817924995654,0.006627562974568559,-0.008227714473015612,1.3799524307250977,2019-07-26 12:06:05:176,-51.6363555361928,-133.39199937195662,0,-23.990232467651367,30.58754539489746,-10.795604705810547
0.065357506275177,-0.034129973500967026,9.78098201751709,-0.005153942316670643,0.00023441540853316294,-0.0005026612202701574,1.3899598121643066,2019-07-26 12:06:05:186,-54.19610313721294,-134.31726474997905,0,-23.990232467651367,30.58754539489746,-10.795604705810547
0.04619951173663139,-0.05328797176480293,9.735481262207031,-0.0030228932959568454,0.000767177712475548,-0.006629427707480263,1.39998197555542,2019-07-26 12:06:05:196,-56.70717492208541,-135.22294614031927,0,-24.589988708496094,30.88742446899414,-11.095481872558594
0.048594262450933456,-0.03173522278666496,9.790560722351074,-0.002756512168367621,0.0020990834154402524,-0.005297521549385491,1.409956455230713,2019-07-26 12:06:05:206,-59.168519481665925,-136.1132290202571,0,-24.589988708496094,30.88742446899414,-11.095481872558594
0.031831011176109314,-0.06526172161102295,9.725902557373047,-0.001158225272795111,0.0020990834154402524,-0.0031664725286716937,1.4201366901397705,2019-07-26 12:06:05:216,-61.58259861932635,-136.9826132904357,0,-24.589988708496094,30.88742446899414,-11.095481872558594
0.0390152633190155,-0.07723546773195267,9.807323455810547,-0.0019573686555627847,-3.1965737342537616e-05,-0.006895808835069488,1.4299566745758057,2019-07-26 12:06:05:226,-63.94637039094701,-137.83285752422657,0,-24.589988708496094,30.88742446899414,-11.095481872558594
0.010278265923261642,-0.03891947120428085,9.838455200195312,0.00150558626317146,0.004230132566191211,-0.00023628007642628753,1.4399542808532715,2019-07-26 12:06:05:236,-66.26862048696486,-138.67251250735623,0,-24.589988708496094,30.88742446899414,-11.095481872558594
0.04619951173663139,-0.07244596630334854,9.828876495361328,-0.0003590817924995654,0.003963751438601987,-0.0015681857631363464,1.4499576091766357,2019-07-26 12:06:05:246,-68.54008825330156,-139.49041448802345,0,-24.589988708496094,30.88742446899414,-11.095481872558594
0.01267301570624113,-0.05328797176480293,9.838455200195312,-0.004621180061492193,0.005828419591800884,-0.001834566890725571,1.4599754810333252,2019-07-26 12:06:05:256,-70.77108892185299,-140.29180021885117,0,-24.589988708496094,30.88742446899414,-11.095481872558594
0.048594262450933456,-0.02934047393500805,9.761823654174805,-0.004354798933902968,0.002631845800655864,-0.004231997299102917,1.4700310230255127,2019-07-26 12:06:05:266,-72.95144881966779,-141.08006122653669,0,-24.589988708496094,30.88742446899414,-11.095481872558594
-0.032827228307724,-0.0556827187538147,9.776191711425781,0.00017368051144281974,-0.0013638715032939924,0.001628387897971511,1.4799613952636719,2019-07-26 12:06:05:276,-67.89550719014139,-141.85203006916527,0,-24.589988708496094,30.88742446899414,-11.095481872558594
-0.020853480324149132,-0.10357771068811417,9.82169246673584,0.004702159924279317,0.0031646080558343135,0.004025818176311695,1.4899561405181885,2019-07-26 12:06:05:286,-62.94180604738916,-142.60554417572573,0,-24.589988708496094,30.88742446899414,-11.095481872558594
0.0030940165743231773,-0.07005121558904648,9.800139427185059,-0.0008918440801873052,0.006893944102157782,3.010106944941304e-05,1.500025749206543,2019-07-26 12:06:05:296,-65.28650603307992,-143.34473819321204,0,-24.589988708496094,30.88742446899414,-11.095481872558594
0.007883516140282154,-0.07244596630334854,9.89113998413086,-0.005420323444259867,0.003430989183423538,3.010106944941304e-05,1.5099618434906006,2019-07-26 12:06:05:306,-67.58177677007733,-144.06642646179841,0,-24.589988708496094,30.88742446899414,-11.095481872558594
0.0006992669077590108,-0.07723546773195267,9.797744750976562,-0.0014246064003843356,0.004496513953854761,0.006156867457099816,1.519963264465332,2019-07-26 12:06:05:316,-69.83258459569427,-144.77526485687687,0,-24.589988708496094,30.88742446899414,-11.095481872558594
0.0006992669077590108,-0.03891947120428085,9.843245506286621,-0.0014246064003843356,0.006627562974568559,0.001628387897971511,1.529956579208374,2019-07-26 12:06:05:326,-72.03957037737895,-145.47442933731222,0,-24.589988708496094,30.88742446899414,-11.095481872558594
0.01506776548922062,-0.05807746946811676,9.776191711425781,-0.0016909875279735602,0.0020990834154402524,0.0013620067703822866,1.5399599075317383,2019-07-26 12:06:05:336,-74.19819182897803,-146.15718348113293,0,-24.589988708496094,30.88742446899414,-11.095481872558594
-0.0040902323089540005,-0.02934047393500805,9.809718132019043,-0.0008918440801873052,0.00023441540853316294,0.0013620067703822866,1.5499589443206787,2019-07-26 12:06:05:346,-69.11483740134688,-146.83011171310503,0,-24.589988708496094,30.88742446899414,-11.095481872558594
0.005488766357302666,-0.014971975237131119,9.807323455810547,-0.004354798933902968,0.005828419591800884,0.0005628633876146128,1.5599560737609863,2019-07-26 12:06:05:356,-71.33517104053733,-147.48931560023343,0,-24.589988708496094,30.88742446899414,-11.095481872558594
0.03422576189041138,-0.04370897263288498,9.816903114318848,0.002038348518349909,0.0020990834154402524,0.0002964822275160976,1.5699577331542969,2019-07-26 12:06:05:366,-73.50565133092047,-148.1355719446581,0,-24.589988708496094,30.88742446899414,-11.095481872558594
0.05098900943994522,-0.05328797176480293,9.771402359008789,-0.004088417806313744,0.00502927620903321,-0.0026337102734932446,1.5799579620361328,2019-07-26 12:06:05:376,-75.63238275257248,-148.7643156669735,0,-24.589988708496094,30.88742446899414,-11.095481872558594
0.07254175841808319,-0.03652472048997879,9.826481819152832,0.00017368051144281974,0.002365464673066639,-0.0005026612202701574,1.589968204498291,2019-07-26 12:06:05:386,-77.71260535658837,-149.38486766269128,0,-24.589988708496094,30.88742446899414,-11.095481872558594
0.048594262450933456,-0.02215622365474701,9.857613563537598,0.0017719673907606846,0.007160325229747007,0.0005628633876146128,1.599954605102539,2019-07-26 12:06:05:396,-79.756719415104,-149.99558832886527,0,-24.589988708496094,30.88742446899414,-11.095481872558594
0.04380476102232933,-0.04849847033619881,9.836060523986816,-0.0006254629525980806,0.006094800719390108,0.0013620067703822866,1.609952449798584,2019-07-26 12:06:05:406,-81.75990322584856,-150.5896753436897,0,-24.589988708496094,30.88742446899414,-11.095481872558594
0.060568008571863174,-0.014971975237131119,9.843245506286621,-0.001158225272795111,0.005828419591800884,0.0002964822275160976,1.619957447052002,2019-07-26 12:06:05:416,-83.72092842353963,-151.1754881872109,0,-24.589988708496094,30.88742446899414,-11.095481872558594
0.07254175841808319,-0.017366724088788033,9.807323455810547,-0.001158225272795111,0.003697370311012762,-0.0031664725286716937,1.6299607753753662,2019-07-26 12:06:05:426,-85.64011078346944,-151.7492986897393,0,-24.589988708496094,30.88742446899414,-11.095481872558594
0.09409450739622116,-0.01257722545415163,9.855218887329102,0.0012392051355822353,0.003963751438601987,-0.006096665452301814,1.639958143234253,2019-07-26 12:06:05:436,-87.51859311646754,-152.31354592868053,0,-24.589988708496094,30.88742446899414,-11.095481872558594
0.027041513472795486,-0.05328797176480293,9.824087142944336,-0.002756512168367621,0.005295657336622434,0.0002964822275160976,1.6499600410461426,2019-07-26 12:06:05:446,-89.36804111490747,-152.85951130568733,0,-24.88986587524414,31.187301635742188,-11.395359992980957
0.05098900943994522,-0.024550974369049072,9.845640182495117,-0.0016909875279735602,0.006627562974568559,-0.006096665452301814,1.6599621772766113,2019-07-26 12:06:05:456,-91.1784679930728,-153.39851395361902,0,-24.88986587524414,31.187301635742188,-11.395359992980957
0.07493650913238525,-0.024550974369049072,9.860008239746094,0.0012392051355822353,0.006893944102157782,-0.0010354235079578973,1.6699588298797607,2019-07-26 12:06:05:466,-92.95005943498123,-153.92838598155564,0,-24.88986587524414,31.187301635742188,-11.395359992980957
0.065357506275177,-0.09639346599578857,9.807323455810547,-0.004621180061492193,0.005828419591800884,-0.003965616171513693,1.6799440383911133,2019-07-26 12:06:05:476,-94.68668961118017,-154.43596478937968,0,-24.88986587524414,31.187301635742188,-11.395359992980957
0.10367350280284882,-0.08681446313858032,9.757034301757812,0.00017368051144281974,0.0010335588400647727,-0.0023673291459040203,1.6899466514587402,2019-07-26 12:06:05:486,-96.38136082874321,-154.93714737867404,0,-24.88986587524414,31.187301635742188,-11.395359992980957
0.10127875208854675,-0.0556827187538147,9.864797592163086,0.0009728239429744294,-3.1965737342537616e-05,-0.0031664725286716937,1.6999483108520508,2019-07-26 12:06:05:496,-98.04195132141649,-155.43248260829304,0,-24.88986587524414,31.187301635742188,-11.395359992980957
0.07014700770378113,-0.09399871528148651,9.790560722351074,-0.0024901310407783963,0.00502927620903321,-0.0026337102734932446,1.70998215675354,2019-07-26 12:06:05:506,-99.67573571607208,-155.9114284746596,0,-24.88986587524414,31.187301635742188,-11.395359992980957
0.08930500596761703,-0.10597246140241623,9.910298347473145,-0.0003590817924995654,0.005828419591800884,-0.005031140421796266,1.719963788986206,2019-07-26 12:06:05:516,-101.27516169195793,-156.3807456533971,0,-24.88986587524414,31.187301635742188,-11.395359992980957
0.08691025525331497,-0.07005121558904648,9.879166603088379,0.00044006165528668966,0.002365464673066639,-0.0031664725286716937,1.7299575805664062,2019-07-26 12:06:05:526,-102.84090510504585,-156.84525235641271,0,-24.88986587524414,31.187301635742188,-11.395359992980957
0.09409450739622116,-0.05807746946811676,9.78098201751709,-0.0024901310407783963,0.000767177712475548,-0.005031140421796266,1.7399449348449707,2019-07-26 12:06:05:536,-104.37349368843181,-157.30014673993483,0,-24.88986587524414,31.187301635742188,-11.395359992980957
0.065357506275177,-0.034129973500967026,9.797744750976562,-0.0030228932959568454,0.003963751438601987,-0.004231997299102917,1.749950647354126,2019-07-26 12:06:05:546,-105.88060681756549,-157.74845375924747,0,-24.88986587524414,31.187301635742188,-11.395359992980957
0.04619951173663139,-0.0748407170176506,9.79295539855957,0.0028374920311547455,0.009291374770609455,0.0018947690255607357,1.759944200515747,2019-07-26 12:06:05:556,-107.3628024497947,-158.18631964297086,0,-24.88986587524414,31.187301635742188,-11.395359992980957
0.07493650913238525,-0.09639346599578857,9.881561279296875,-0.004354798933902968,0.009824137025787903,-0.0007690423803686727,1.7699501514434814,2019-07-26 12:06:05:566,-108.81237607479017,-158.60896866428624,0,-24.88986587524414,31.187301635742188,-11.395359992980957
0.08691025525331497,-0.06047222018241882,9.788166046142578,-0.0030228932959568454,0.003697370311012762,-0.00023628007642628753,1.7799468040466309,2019-07-26 12:06:05:576,-110.22802947743325,-159.02801302333583,0,-24.88986587524414,31.187301635742188,-11.395359992980957
0.07733125984668732,-0.0820249691605568,9.814508438110352,-0.0006254629525980806,-3.1965737342537616e-05,-0.0021009480183147955,1.7899456024169922,2019-07-26 12:06:05:586,-111.61442213839672,-159.43752481680733,0,-24.88986587524414,31.187301635742188,-11.395359992980957
0.07972601056098938,-0.02215622365474701,9.745059967041016,0.0009728239429744294,0.007426706357336231,-0.005563903197123366,1.7999444007873535,2019-07-26 12:06:05:596,-112.97692855680111,-159.84671516197034,0,-24.88986587524414,31.187301635742188,-11.395359992980957
0.017462514340877533,-0.05807746946811676,9.747454643249512,-0.0019573686555627847,0.00556203846421166,-0.0029000914010824694,1.8099420070648193,2019-07-26 12:06:05:606,-114.31845941548711,-160.2418545267278,0,-24.88986587524414,31.187301635742188,-11.395359992980957
0.04619951173663139,-0.034129973500967026,9.802534103393555,-0.0003590817924995654,0.007693087484925456,3.010106944941304e-05,1.8199493885040283,2019-07-26 12:06:05:616,-115.63101239397298,-160.6328258878984,0,-24.88986587524414,31.187301635742188,-11.395359992980957
0.0294362623244524,-0.01257722545415163,9.836060523986816,0.004702159924279317,0.00023441540853316294,0.0008292445152038374,1.829949140548706,2019-07-26 12:06:05:626,-116.91509440892855,-161.02134429651488,0,-24.88986587524414,31.187301635742188,-11.395359992980957
0.07254175841808319,-0.04849847033619881,9.797744750976562,-0.0003590817924995654,0.006094800719390108,0.0037594370487224705,1.8399550914764404,2019-07-26 12:06:05:636,-118.1717326625783,-161.39504347364408,0,-24.88986587524414,31.187301635742188,-11.395359992980957
0.019857265055179596,-0.04849847033619881,9.860008239746094,0.002038348518349909,-0.0018966337584724418,0.001628387897971511,1.8499550819396973,2019-07-26 12:06:05:646,-119.40492527418066,-161.76265075788365,0,-24.88986587524414,31.187301635742188,-11.395359992980957
0.031831011176109314,-0.01257722545415163,9.797744750976562,0.00017368051144281974,0.005828419591800884,0.003493055921133246,1.8599443435668945,2019-07-26 12:06:05:656,-120.61637305513653,-162.126024164653,0,-24.88986587524414,31.187301635742188,-11.395359992980957
0.065357506275177,-0.05328797176480293,9.852824211120605,0.0023047297759762964,0.005295657336622434,-0.001834566890725571,1.8699603080749512,2019-07-26 12:06:05:666,-121.79942266582243,-162.47860234547846,0,-24.88986587524414,31.187301635742188,-11.395359992980957
0.07493650913238525,-0.03891947120428085,9.869586944580078,-0.004354798933902968,0.003963751438601987,0.0002964822275160976,1.8799443244934082,2019-07-26 12:06:05:676,-122.95695590531415,-162.82207024305418,0,-24.88986587524414,31.187301635742188,-11.395359992980957
0.05577851086854935,-0.05089322105050087,9.838455200195312,0.0009728239429744294,0.0010335588400647727,0.0008292445152038374,1.8899683952331543,2019-07-26 12:06:05:686,-124.09190189833453,-163.16024875289233,0,-24.88986587524414,31.187301635742188,-11.395359992980957
0.024646764621138573,-0.05807746946811676,9.778586387634277,-0.0016909875279735602,0.0063611818469793335,0.0018947690255607357,1.8999476432800293,2019-07-26 12:06:05:696,-125.21073998804499,-163.48929046183278,0,-24.88986587524414,32.086936950683594,-11.69523811340332
0.031831011176109314,-0.06765646487474442,9.788166046142578,0.0007064428153852049,0.003697370311012762,0.001095625642793062,1.9099452495574951,2019-07-26 12:06:05:706,-126.30487426763594,-163.81198070449844,0,-24.88986587524414,32.086936950683594,-11.69523811340332
0.065357506275177,-0.06286697089672089,9.797744750976562,-0.0019573686555627847,0.006893944102157782,0.001628387897971511,1.9199497699737549,2019-07-26 12:06:05:716,-127.37500556280544,-164.12728889748033,0,-24.88986587524414,32.086936950683594,-11.69523811340332
0.060568008571863174,-0.06765646487474442,9.759428977966309,0.00017368051144281974,0.0063611818469793335,0.005091342946742919,1.9299445152282715,2019-07-26 12:06:05:726,-128.4239637922451,-164.43689674825717,0,-24.88986587524414,32.086936950683594,-11.69523811340332
0.0294362623244524,-0.06047222018241882,9.776191711425781,-0.0030228932959568454,0.00556203846421166,0.0024275314107763475,1.9399502277374268,2019-07-26 12:06:05:736,-129.45515901860017,-164.7393723367816,0,-24.88986587524414,32.086936950683594,-11.69523811340332
0.05817325785756111,-0.07244596630334854,9.816903114318848,-0.0038220366787245193,0.004230132566191211,0.004292199303900919,1.949967861175537,2019-07-26 12:06:05:746,-130.46164482352634,-165.03397865820116,0,-24.88986587524414,32.086936950683594,-11.69523811340332
0.06296275556087494,-0.041314221918582916,9.807323455810547,0.00017368051144281974,0.004230132566191211,-0.0029000914010824694,1.959972858428955,2019-07-26 12:06:05:756,-131.44743168116895,-165.32856941240163,0,-24.88986587524414,32.086936950683594,-11.69523811340332
0.0006992669077590108,-0.0820249691605568,9.802534103393555,0.0007064428153852049,0.000767177712475548,0.0013620067703822866,1.969956398010254,2019-07-26 12:06:05:766,-132.41883136346772,-165.61280554820513,0,-24.88986587524414,32.086936950683594,-11.69523811340332
0.053383760154247284,-0.06286697089672089,9.788166046142578,0.0025711109035655207,0.00556203846421166,-0.0007690423803686727,1.9799437522888184,2019-07-26 12:06:05:776,-133.36732420727412,-165.8946314555161,0,-24.88986587524414,32.086936950683594,-11.69523811340332
0.07493650913238525,-0.03891947120428085,9.83366584777832,-0.0016909875279735602,0.0063611818469793335,0.003493055921133246,1.9899487495422363,2019-07-26 12:06:05:786,-134.29481913197347,-166.1712536083286,0,-24.88986587524414,32.086936950683594,-11.69523811340332
0.048594262450933456,-0.024550974369049072,9.857613563537598,-0.0032892744235460706,0.0005007965523770329,0.0013620067703822866,1.9999468326568604,2019-07-26 12:06:05:796,-135.20355501244353,-166.44312800187797,0,-24.88986587524414,32.086936950683594,-11.69523811340332
0.0294362623244524,-0.07244596630334854,9.783376693725586,0.00044006165528668966,0.0018327022878510278,0.001628387897971511,2.009967088699341,2019-07-26 12:06:05:806,-136.09706723156688,-166.70602767927457,0,-24.88986587524414,32.086936950683594,-11.69523811340332
0.04380476102232933,-0.02934047393500805,9.843245506286621,0.00044006165528668966,0.003697370311012762,-0.0007690423803686727,2.0199506282806396,2019-07-26 12:06:05:816,-136.97209897741268,-166.96873810960403,0,-24.88986587524414,32.086936950683594,-11.69523811340332
0.031831011176109314,-0.024550974369049072,9.819297790527344,-0.0008918440801873052,0.003697370311012762,0.002693912538365572,2.02994966506958,2019-07-26 12:06:05:826,-137.8310181888318,-167.22599752482435,0,-24.88986587524414,32.086936950683594,-11.69523811340332
0.05817325785756111,-0.06047222018241882,9.840849876403809,-0.0016909875279735602,0.007426706357336231,0.0029602936659547966,2.0399625301361084,2019-07-26 12:06:05:836,-138.67179938215247,-167.47348527992017,0,-24.88986587524414,32.086936950683594,-11.69523811340332
-0.0016954827588051558,-0.046103719621896744,9.828876495361328,-0.0014246064003843356,0.0063611818469793335,0.004558580691564469,2.0499439239501953,2019-07-26 12:06:05:846,-132.3021262143319,-167.7178421102077,0,-24.88986587524414,32.086936950683594,-11.69523811340332
0.07254175841808319,-0.07244596630334854,9.797744750976562,-0.0003590817924995654,0.00502927620903321,0.0002964822275160976,2.0599477291107178,2019-07-26 12:06:05:856,-133.25042457932256,-167.95481065327525,0,-24.88986587524414,32.086936950683594,-11.69523811340332
0.017462514340877533,-0.07005121558904648,9.776191711425781,-0.0006254629525980806,0.003430989183423538,-0.0026337102734932446,2.0699753761291504,2019-07-26 12:06:05:866,-134.18530104452685,-168.18715136511727,0,-24.88986587524414,32.086936950683594,-11.69523811340332
0.03662051260471344,-0.07723546773195267,9.831271171569824,-0.0014246064003843356,0.008758612515431006,-0.0005026612202701574,2.079993486404419,2019-07-26 12:06:05:876,-135.1022534767077,-168.41360473019108,0,-24.88986587524414,32.086936950683594,-11.69523811340332
0.07493650913238525,-0.07005121558904648,9.79295539855957,-0.002223749913189172,0.006627562974568559,-0.0007690423803686727,2.0899908542633057,2019-07-26 12:06:05:886,-135.99516032499434,-168.63588747919354,0,-24.88986587524414,32.086936950683594,-11.69523811340332
0.024646764621138573,-0.04370897263288498,9.831271171569824,-0.0048875611890814175,0.0028982269282450887,-0.001834566890725571,2.0999913215637207,2019-07-26 12:06:05:896,-136.87401176771613,-168.85533063538435,0,-24.88986587524414,32.086936950683594,-11.69523811340332
0.031831011176109314,-0.0556827187538147,9.831271171569824,0.0023047297759762964,0.003963751438601987,0.002693912538365572,2.110079526901245,2019-07-26 12:06:05:906,-137.73506665130805,-169.0730393301103,0,-24.88986587524414,32.086936950683594,-11.69523811340332
-0.00887973140925169,-0.014971975237131119,9.83366584777832,-0.0032892744235460706,0.006893944102157782,-0.0010354235079578973,2.120027780532837,2019-07-26 12:06:05:916,-131.38525098127775,-169.28799649689537,0,-24.88986587524414,32.086936950683594,-11.69523811340332
0.0294362623244524,-0.06047222018241882,9.852824211120605,0.00017368051144281974,0.003697370311012762,-0.001834566890725571,2.1302456855773926,2019-07-26 12:06:05:926,-132.35624374550076,-169.49530318524316,0,-24.88986587524414,32.086936950683594,-11.69523811340332
0.027041513472795486,-0.04849847033619881,9.802534103393555,-9.270064052837282e-05,0.005828419591800884,-0.0007690423803686727,2.139958143234253,2019-07-26 12:06:05:936,-133.309136274602,-169.69967714522426,0,-24.88986587524414,32.086936950683594,-11.69523811340332
0.031831011176109314,-0.03652472048997879,9.80492877960205,-0.002756512168367621,0.00849223086769313,0.005357724074332143,2.1501147747039795,2019-07-26 12:06:05:946,-134.2440764917206,-169.8998429065508,0,-24.290109634399414,30.88742446899414,-10.795604705810547
0.01267301570624113,-0.05807746946811676,9.807323455810547,-0.0003590817924995654,0.007160325229747007,-0.0036992350439244686,2.159956455230713,2019-07-26 12:06:05:956,-135.16167107180496,-170.09486175904658,0,-24.290109634399414,30.88742446899414,-10.795604705810547
0.031831011176109314,-0.007787725888192654,9.757034301757812,0.0017719673907606846,0.004496513953854761,-0.0005026612202701574,2.1699607372283936,2019-07-26 12:06:05:966,-136.05722513583032,-170.29304527735601,0,-24.290109634399414,30.88742446899414,-10.795604705810547
0.019857265055179596,-0.0820249691605568,9.831271171569824,0.0028374920311547455,0.004230132566191211,-0.0023673291459040203,2.179960250854492,2019-07-26 12:06:05:976,-136.936141206701,-170.47921707864273,0,-24.290109634399414,30.88742446899414,-10.795604705810547
0.03662051260471344,-0.03891947120428085,9.860008239746094,0.0007064428153852049,0.004496513953854761,-0.00023628007642628753,2.1899731159210205,2019-07-26 12:06:05:986,-137.7956904548859,-170.66550677411144,0,-24.290109634399414,30.88742446899414,-10.795604705810547
0.0030940165743231773,-0.10357771068811417,9.812113761901855,0.0028374920311547455,0.007160325229747007,-0.0031664725286716937,2.199955463409424,2019-07-26 12:06:05:996,-138.64342872424623,-170.84169111716398,0,-24.290109634399414,30.88742446899414,-10.795604705810547
0.07493650913238525,-0.034129973500967026,9.82169246673584,0.00017368051144281974,0.008758612515431006,-0.0026337102734932446,2.20997953414917,2019-07-26 12:06:06:006,-139.46674712085502,-171.0209730578657,0,-24.290109634399414,30.88742446899414,-10.795604705810547
0.05098900943994522,-0.0748407170176506,9.838455200195312,-0.0019573686555627847,0.006893944102157782,-0.0026337102734932446,2.219953775405884,2019-07-26 12:06:06:016,-140.27533435168158,-171.19074060409915,0,-24.290109634399414,30.88742446899414,-10.795604705810547
0.019857265055179596,-0.05807746946811676,9.83366584777832,0.00017368051144281974,0.00556203846421166,3.010106944941304e-05,2.2299625873565674,2019-07-26 12:06:06:026,-141.07063953277603,-171.3602557192982,0,-24.290109634399414,30.88742446899414,-10.795604705810547
0.08930500596761703,-0.017366724088788033,9.83366584777832,-0.002756512168367621,0.004496513953854761,-0.003965616171513693,2.2399706840515137,2019-07-26 12:06:06:036,-141.84134716010675,-171.5294778342712,0,-24.290109634399414,30.88742446899414,-10.795604705810547
0.007883516140282154,-0.01257722545415163,9.864797592163086,0.0025711109035655207,0.007959468612514682,-0.0034328539163352434,2.2500312328338623,2019-07-26 12:06:06:046,-142.6081007427638,-171.69887969802613,0,-24.290109634399414,30.88742446899414,-10.795604705810547
0.03662051260471344,-0.034129973500967026,9.82169246673584,-0.002756512168367621,0.005295657336622434,3.010106944941304e-05,2.259981870651245,2019-07-26 12:06:06:056,-143.3546249891875,-171.85937997333625,0,-24.290109634399414,30.88742446899414,-10.795604705810547
0.05817325785756111,-0.06765646487474442,9.745059967041016,0.00044006165528668966,0.007959468612514682,0.004292199303900919,2.2699506282806396,2019-07-26 12:06:06:066,-144.08514728100786,-172.0144831417576,0,-24.290109634399414,30.88742446899414,-10.795604705810547
0.07014700770378113,-0.07244596630334854,9.771402359008789,0.00017368051144281974,0.00502927620903321,-0.0005026612202701574,2.279959201812744,2019-07-26 12:06:06:076,-144.79804452315548,-172.16579532882866,0,-24.290109634399414,30.88742446899414,-10.795604705810547
0.019857265055179596,-0.0556827187538147,9.845640182495117,-0.0006254629525980806,0.002365464673066639,0.001095625642793062,2.2899770736694336,2019-07-26 12:06:06:086,-145.50110306494318,-172.31564685992362,0,-24.290109634399414,30.88742446899414,-10.795604705810547
0.0390152633190155,-0.10836721211671829,9.838455200195312,-0.004354798933902968,0.004762895081443986,-0.0013018046355471218,2.299997568130493,2019-07-26 12:06:06:096,-146.1892166380124,-172.45426234062896,0,-24.290109634399414,30.88742446899414,-10.795604705810547
0.031831011176109314,-0.04849847033619881,9.855218887329102,-9.270064052837282e-05,0.00502927620903321,-0.0029000914010824694,2.309957265853882,2019-07-26 12:06:06:106,-146.8645437179119,-172.59948613812432,0,-24.290109634399414,30.88742446899414,-10.795604705810547
0.005488766357302666,-0.03173522278666496,9.773797035217285,-0.006485847954616764,0.007426706357336231,0.0056241052019213676,2.3199613094329834,2019-07-26 12:06:06:116,-147.53078109236748,-172.74013240785263,0,-24.290109634399414,30.88742446899414,-10.795604705810547
0.019857265055179596,-0.02934047393500805,9.800139427185059,-0.0003590817924995654,0.0028982269282450887,0.0002964822275160976,2.3299732208251953,2019-07-26 12:06:06:126,-148.17947288238386,-172.88169716827744,0,-24.290109634399414,30.88742446899414,-10.795604705810547
0.053383760154247284,-0.026945723220705986,9.836060523986816,-0.0030228932959568454,0.004762895081443986,0.0008292445152038374,2.339961528778076,2019-07-26 12:06:06:136,-148.81233543106686,-173.0192286502577,0,-24.290109634399414,30.88742446899414,-10.795604705810547
0.04141001030802727,-0.04370897263288498,9.826481819152832,-0.0048875611890814175,0.009291374770609455,0.0002964822275160976,2.3499886989593506,2019-07-26 12:06:06:146,-149.43649099016903,-173.15099517175824,0,-24.290109634399414,30.88742446899414,-10.795604705810547
0.0030940165743231773,-0.02934047393500805,9.773797035217285,-0.0008918440801873052,0.007160325229747007,-0.0007690423803686727,2.359950542449951,2019-07-26 12:06:06:156,-150.051403588596,-173.28403643606833,0,-24.290109634399414,30.88742446899414,-10.795604705810547
0.017462514340877533,-0.05807746946811676,9.812113761901855,-0.002223749913189172,0.00502927620903321,0.001095625642793062,2.369964838027954,2019-07-26 12:06:06:166,-150.65116411392913,-173.41032274506992,0,-24.290109634399414,30.88742446899414,-10.795604705810547
0.019857265055179596,-0.06765646487474442,9.848034858703613,-0.001158225272795111,0.0028982269282450887,0.0056241052019213676,2.3799755573272705,2019-07-26 12:06:06:176,-151.2374593418226,-173.53359288072514,0,-24.290109634399414,30.88742446899414,-10.795604705810547
0.0390152633190155,-0.04849847033619881,9.879166603088379,-0.004621180061492193,0.0028982269282450887,-0.0026337102734932446,2.390261650085449,2019-07-26 12:06:06:186,-151.8098585832683,-173.65462655699446,0,-24.290109634399414,30.88742446899414,-10.795604705810547
0.024646764621138573,-0.0820249691605568,9.83366584777832,-0.0008918440801873052,0.003430989183423538,0.0005628633876146128,2.399967670440674,2019-07-26 12:06:06:196,-152.3726591945764,-173.77148984266285,0,-24.88986587524414,30.88742446899414,-10.795604705810547
-0.018458731472492218,-0.0556827187538147,9.79295539855957,0.00310387315874397,0.0028982269282450887,-0.0023673291459040203,2.40997314453125,2019-07-26 12:06:06:206,-145.72899418453713,-173.89128821757174,0,-24.88986587524414,30.88742446899414,-10.795604705810547
-0.0016954827588051558,-0.04849847033619881,9.790560722351074,-0.0014246064003843356,0.006893944102157782,-0.0005026612202701574,2.4199609756469727,2019-07-26 12:06:06:216,-139.2184789747882,-174.00698715703197,0,-24.88986587524414,30.88742446899414,-10.795604705810547
0.03662051260471344,-0.07723546773195267,9.816903114318848,-0.0038220366787245193,0.0012999400326725785,0.002693912538365572,2.430022954940796,2019-07-26 12:06:06:226,-140.03056918413972,-174.11567262473912,0,-24.88986587524414,30.88742446899414,-10.795604705810547
0.010278265923261642,-0.03891947120428085,9.819297790527344,-0.0014246064003843356,0.002631845800655864,0.0002964822275160976,2.4403159618377686,2019-07-26 12:06:06:236,-140.8302794013038,-174.22799392711195,0,-24.88986587524414,30.88742446899414,-10.795604705810547
0.019857265055179596,-0.02215622365474701,9.79295539855957,0.0007064428153852049,0.00556203846421166,0.0021611501531499603,2.450181484222412,2019-07-26 12:06:06:246,-141.61443131159342,-174.34123279091412,0,-24.88986587524414,30.88742446899414,-10.795604705810547
0.01267301570624113,-0.05807746946811676,9.788166046142578,-0.0014246064003843356,0.002365464673066639,0.001628387897971511,2.459974527359009,2019-07-26 12:06:06:256,-142.38195975390923,-174.44682563680976,0,-24.88986587524414,30.88742446899414,-10.795604705810547
-0.02564297989010811,-0.07244596630334854,9.802534103393555,-0.002223749913189172,0.006094800719390108,-0.001834566890725571,2.470064878463745,2019-07-26 12:06:06:266,-135.94077135711828,-174.54816043549278,0,-24.88986587524414,30.88742446899414,-10.795604705810547
0.0030940165743231773,-0.04370897263288498,9.78098201751709,-0.0019573686555627847,0.004496513953854761,0.001628387897971511,2.4799790382385254,2019-07-26 12:06:06:276,-136.8240965563237,-174.6509868005796,0,-24.88986587524414,30.88742446899414,-10.795604705810547
0.0294362623244524,-0.02934047393500805,9.80492877960205,-9.270064052837282e-05,0.003430989183423538,-0.0013018046355471218,2.4901044368743896,2019-07-26 12:06:06:286,-137.68612503258578,-174.75448530902636,0,-24.88986587524414,30.88742446899414,-10.795604705810547
0.0390152633190155,-0.034129973500967026,9.785771369934082,0.004435778796690093,0.004762895081443986,-0.0026337102734932446,2.4999759197235107,2019-07-26 12:06:06:296,-138.53047385078406,-174.85785766720588,0,-24.88986587524414,30.88742446899414,-10.795604705810547
0.017462514340877533,-0.04849847033619881,9.838455200195312,-0.002223749913189172,0.0063611818469793335,-0.0031664725286716937,2.5100901126861572,2019-07-26 12:06:06:306,-139.36144304468124,-174.95378890032077,0,-24.88986587524414,30.88742446899414,-10.795604705810547
0.010278265923261642,-0.06765646487474442,9.828876495361328,0.0017719673907606846,0.003430989183423538,0.0008292445152038374,2.519984483718872,2019-07-26 12:06:06:316,-140.17492202221703,-175.04780985528032,0,-24.88986587524414,30.88742446899414,-10.795604705810547
0.0030940165743231773,-0.05328797176480293,9.78098201751709,0.003636635413922419,0.004762895081443986,0.0013620067703822866,2.530090808868408,2019-07-26 12:06:06:326,-140.97376388874824,-175.14267431042663,0,-24.88986587524414,30.88742446899414,-10.795604705810547
-0.020853480324149132,-0.07005121558904648,9.795350074768066,-0.001158225272795111,0.0031646080558343135,-0.003965616171513693,2.5399768352508545,2019-07-26 12:06:06:336,-134.5584848365343,-175.23098304580643,0,-24.88986587524414,30.88742446899414,-10.795604705810547
0.027041513472795486,-0.05328797176480293,9.797744750976562,-0.0003590817924995654,0.004496513953854761,-0.0015681857631363464,2.550058603286743,2019-07-26 12:06:06:346,-135.46669788260186,-175.3199277683315,0,-24.88986587524414,30.88742446899414,-10.795604705810547
0.04380476102232933,-0.046103719621896744,9.773797035217285,-0.0019573686555627847,0.003430989183423538,-0.004231997299102917,2.559976816177368,2019-07-26 12:06:06:356,-136.35413886899084,-175.40703381397344,0,-24.88986587524414,30.88742446899414,-10.795604705810547
0.03662051260471344,-0.07963021844625473,9.769007682800293,0.00044006165528668966,0.001566321160261803,-0.0021009480183147955,2.5700302124023438,2019-07-26 12:06:06:366,-137.22364466773914,-175.4898010437738,0,-24.88986587524414,30.88742446899414,-10.795604705810547
0.05577851086854935,-0.0748407170176506,9.778586387634277,0.00017368051144281974,0.0010335588400647727,-0.0026337102734932446,2.579984188079834,2019-07-26 12:06:06:376,-138.0732130432452,-175.57133196583152,0,-24.88986587524414,30.88742446899414,-10.795604705810547
0.0390152633190155,-0.07005121558904648,9.826481819152832,-0.0006254629525980806,0.007959468612514682,-0.003965616171513693,2.5900731086730957,2019-07-26 12:06:06:386,-138.9117080111768,-175.65138211998683,0,-24.88986587524414,30.88742446899414,-10.795604705810547
0.02225201390683651,-0.026945723220705986,9.855218887329102,0.00044006165528668966,0.003697370311012762,-0.003965616171513693,2.5999786853790283,2019-07-26 12:06:06:396,-139.73294296787785,-175.7354661322657,0,-24.88986587524414,30.88742446899414,-10.795604705810547
0.03422576189041138,-0.034129973500967026,9.812113761901855,-0.0016909875279735602,0.0031646080558343135,0.0002964822275160976,2.6100988388061523,2019-07-26 12:06:06:406,-140.5360853150835,-175.81581003370468,0,-24.88986587524414,30.88742446899414,-10.795604705810547
0.027041513472795486,-0.026945723220705986,9.809718132019043,-9.270064052837282e-05,0.002631845800655864,0.002693912538365572,2.6199793815612793,2019-07-26 12:06:06:416,-141.323664905381,-175.89629476501645,0,-24.88986587524414,30.88742446899414,-10.795604705810547
0.024646764621138573,-0.041314221918582916,9.82169246673584,-9.270064052837282e-05,0.001566321160261803,0.0008292445152038374,2.6301307678222656,2019-07-26 12:06:06:426,-142.09520882970713,-175.9734958498187,0,-24.88986587524414,30.88742446899414,-10.795604705810547
0.04619951173663139,-0.04849847033619881,9.783376693725586,-0.0032892744235460706,0.001566321160261803,-0.0036992350439244686,2.6399691104888916,2019-07-26 12:06:06:436,-142.8487586676352,-176.04652834340172,0,-24.88986587524414,30.88742446899414,-10.795604705810547
0.01267301570624113,-0.04370897263288498,9.848034858703613,0.0009728239429744294,0.006627562974568559,-0.0021009480183147955,2.6500377655029297,2019-07-26 12:06:06:446,-143.59405578188168,-176.12106183114963,0,-25.489622116088867,32.38681411743164,-10.19584846496582
0.0294362623244524,-0.05328797176480293,9.828876495361328,0.0023047297759762964,0.006893944102157782,0.002693912538365572,2.659982442855835,2019-07-26 12:06:06:456,-144.3225923270376,-176.19371493364707,0,-25.489622116088867,32.38681411743164,-10.19584846496582
0.048594262450933456,-0.0556827187538147,9.80492877960205,-0.0016909875279735602,0.005295657336622434,0.002693912538365572,2.670083522796631,2019-07-26 12:06:06:466,-145.03346480887305,-176.26237390395718,0,-25.489622116088867,32.38681411743164,-10.19584846496582
0.03662051260471344,-0.05089322105050087,9.852824211120605,-0.0024901310407783963,0.006627562974568559,-0.0023673291459040203,2.679980516433716,2019-07-26 12:06:06:476,-145.73221948239302,-176.32982362813706,0,-25.489622116088867,32.38681411743164,-10.19584846496582
0.0294362623244524,-0.04849847033619881,9.809718132019043,-0.0016909875279735602,0.004496513953854761,-0.0015681857631363464,2.6900691986083984,2019-07-26 12:06:06:486,-146.41668370280897,-176.396603978259,0,-25.489622116088867,32.38681411743164,-10.19584846496582
0.027041513472795486,-0.06047222018241882,9.83366584777832,0.0033702542863331946,0.004496513953854761,-0.0013018046355471218,2.699977159500122,2019-07-26 12:06:06:496,-147.08770044178755,-176.46350014464875,0,-25.489622116088867,32.38681411743164,-10.19584846496582
0.048594262450933456,-0.08681446313858032,9.79295539855957,-0.002756512168367621,0.0018327022878510278,0.0002964822275160976,2.710085868835449,2019-07-26 12:06:06:506,-147.7413005038435,-176.52250727264536,0,-25.489622116088867,32.38681411743164,-10.19584846496582
0.053383760154247284,-0.034129973500967026,9.812113761901855,-0.0016909875279735602,0.00502927620903321,0.002693912538365572,2.719989061355591,2019-07-26 12:06:06:516,-148.3830366839288,-176.58713095143708,0,-25.489622116088867,32.38681411743164,-10.19584846496582
0.019857265055179596,-0.05328797176480293,9.795350074768066,-0.0006254629525980806,0.0028982269282450887,-0.0013018046355471218,2.7300684452056885,2019-07-26 12:06:06:526,-149.01469320698885,-176.64880048030062,0,-25.489622116088867,32.38681411743164,-10.19584846496582
0.02225201390683651,-0.06286697089672089,9.831271171569824,-0.0008918440801873052,0.0005007965523770329,3.010106944941304e-05,2.7399778366088867,2019-07-26 12:06:06:536,-149.63208434056912,-176.70800067572682,0,-25.489622116088867,32.38681411743164,-10.19584846496582
0.05098900943994522,-0.04370897263288498,9.785771369934082,0.005234922179457767,0.004762895081443986,-0.0007690423803686727,2.7500600814819336,2019-07-26 12:06:06:546,-150.23616823994072,-176.77168594443222,0,-25.489622116088867,32.38681411743164,-10.19584846496582
0.048594262450933456,-0.0556827187538147,9.828876495361328,-0.0030228932959568454,0.001566321160261803,0.0018947690255607357,2.7599778175354004,2019-07-26 12:06:06:556,-150.82665173218223,-176.82807704705064,0,-25.489622116088867,32.38681411743164,-10.19584846496582
0.048594262450933456,-0.05328797176480293,9.819297790527344,0.0009728239429744294,0.004230132566191211,-0.0015681857631363464,2.7701103687286377,2019-07-26 12:06:06:566,-151.40685447331688,-176.8858503214392,0,-25.489622116088867,32.38681411743164,-10.19584846496582
0.0006992669077590108,-0.04370897263288498,9.797744750976562,0.00150558626317146,0.006094800719390108,0.0005628633876146128,2.779963254928589,2019-07-26 12:06:06:576,-151.9820074763343,-176.9438542230951,0,-25.489622116088867,32.38681411743164,-10.19584846496582
0.03662051260471344,-0.0556827187538147,9.852824211120605,-0.0003590817924995654,0.003430989183423538,0.004025818176311695,2.789956569671631,2019-07-26 12:06:06:586,-152.5400334692133,-176.99829963663345,0,-25.489622116088867,32.38681411743164,-10.19584846496582
0.06775225698947906,-0.05328797176480293,9.812113761901855,-0.001158225272795111,0.005295657336622434,0.0008292445152038374,2.799971103668213,2019-07-26 12:06:06:596,-153.08429824988085,-177.05145913935905,0,-25.489622116088867,32.38681411743164,-10.19584846496582
0.060568008571863174,-0.06765646487474442,9.78098201751709,-0.0003590817924995654,0.003963751438601987,-0.00023628007642628753,2.8099591732025146,2019-07-26 12:06:06:606,-153.61773936369013,-177.10230223600135,0,-25.489622116088867,32.38681411743164,-10.19584846496582
0.060568008571863174,-0.007787725888192654,9.778586387634277,-0.0038220366787245193,0.005295657336622434,-0.001834566890725571,2.819962739944458,2019-07-26 12:06:06:616,-154.14126149607532,-177.15719674346204,0,-25.489622116088867,32.38681411743164,-10.19584846496582
0.0390152633190155,-0.017366724088788033,9.824087142944336,0.0007064428153852049,0.004762895081443986,0.0021611501531499603,2.8299612998962402,2019-07-26 12:06:06:626,-154.65655938846285,-177.21242370534213,0,-25.489622116088867,32.38681411743164,-10.19584846496582
0.02225201390683651,-0.0556827187538147,9.783376693725586,0.0017719673907606846,0.0063611818469793335,-0.0026337102734932446,2.839951515197754,2019-07-26 12:06:06:636,-155.16439015260767,-177.26264723299337,0,-25.489622116088867,32.38681411743164,-10.19584846496582
0.031831011176109314,-0.02215622365474701,9.864797592163086,0.005767684434636216,0.00502927620903321,0.0018947690255607357,2.8499741554260254,2019-07-26 12:06:06:646,-155.66023513052397,-177.3180664583309,0,-25.489622116088867,32.38681411743164,-10.19584846496582
0.03422576189041138,-0.04849847033619881,9.83366584777832,-0.002223749913189172,0.00849223086769313,-0.0023673291459040203,2.859949827194214,2019-07-26 12:06:06:656,-156.14779889663433,-177.36480806074212,0,-25.489622116088867,32.38681411743164,-10.19584846496582
0.05817325785756111,-0.046103719621896744,9.824087142944336,0.0023047297759762964,0.005828419591800884,-0.0015681857631363464,2.869959592819214,2019-07-26 12:06:06:666,-156.6213333131085,-177.41342960768503,0,-25.489622116088867,32.38681411743164,-10.19584846496582
0.0294362623244524,-0.02934047393500805,9.802534103393555,-0.004088417806313744,0.0020990834154402524,0.0021611501531499603,2.8799471855163574,2019-07-26 12:06:06:676,-157.08664273018152,-177.4594383335424,0,-25.489622116088867,32.38681411743164,-10.19584846496582
0.03422576189041138,-0.07005121558904648,9.814508438110352,0.0007064428153852049,0.004762895081443986,-0.006895808835069488,2.889961004257202,2019-07-26 12:06:06:686,-157.54359183866882,-177.5024679291859,0,-25.489622116088867,32.38681411743164,-10.19584846496582
0.07972601056098938,-0.026945723220705986,9.800139427185059,-0.0006254629525980806,0.006094800719390108,-0.0031664725286716937,2.8999669551849365,2019-07-26 12:06:06:696,-157.986822223668,-177.54891644998796,0,-24.14017105102539,32.53675079345703,-10.045909881591797
0.0390152633190155,-0.04849847033619881,9.757034301757812,-0.0030228932959568454,0.001566321160261803,-0.0036992350439244686,2.909956693649292,2019-07-26 12:06:06:706,-158.42338223794124,-177.59054665285552,0,-24.14017105102539,32.53675079345703,-10.045909881591797
0.031831011176109314,0.004186022561043501,9.857613563537598,-0.0014246064003843356,0.00502927620903321,-0.0021009480183147955,2.9199600219726562,2019-07-26 12:06:06:716,-158.85403922592428,-170.43842215051617,0,-24.14017105102539,32.53675079345703,-10.045909881591797
0.04619951173663139,-0.06286697089672089,9.843245506286621,-9.270064052837282e-05,0.000767177712475548,-0.0010354235079578973,2.9299988746643066,2019-07-26 12:06:06:726,-159.27201254115417,-170.62228280461673,0,-24.14017105102539,32.53675079345703,-10.045909881591797
0.031831011176109314,-0.03652472048997879,9.819297790527344,0.00017368051144281974,0.007693087484925456,0.0021611501531499603,2.9399540424346924,2019-07-26 12:06:06:736,-159.6871579050329,-170.80567180430168,0,-24.14017105102539,32.53675079345703,-10.045909881591797
0.03662051260471344,-0.02215622365474701,9.802534103393555,-0.0008918440801873052,0.0020990834154402524,3.010106944941304e-05,2.949970245361328,2019-07-26 12:06:06:746,-160.0903143735499,-170.98646673091196,0,-24.14017105102539,32.53675079345703,-10.045909881591797
0.0294362623244524,-0.0556827187538147,9.838455200195312,-0.0006254629525980806,0.000767177712475548,0.0002964822275160976,2.9599575996398926,2019-07-26 12:06:06:756,-160.48550978744692,-171.15990117297758,0,-24.14017105102539,32.53675079345703,-10.045909881591797
0.031831011176109314,-0.046103719621896744,9.876771926879883,0.0023047297759762964,0.0031646080558343135,-0.005031140421796266,2.9699761867523193,2019-07-26 12:06:06:766,-160.87388675614974,-171.33265068441193,0,-24.14017105102539,32.53675079345703,-10.045909881591797
0.01506776548922062,-0.02215622365474701,9.754639625549316,-0.0019573686555627847,0.004496513953854761,-0.0010354235079578973,2.9800338745117188,2019-07-26 12:06:06:776,-161.25717830460513,-171.5022894970622,0,-24.14017105102539,32.53675079345703,-10.045909881591797
0.019857265055179596,-0.026945723220705986,9.840849876403809,0.0017719673907606846,0.004496513953854761,-0.0026337102734932446,2.9899866580963135,2019-07-26 12:06:06:786,-161.6322353321376,-171.67009628562076,0,-24.14017105102539,32.53675079345703,-10.045909881591797
0.08451550453901291,-0.06047222018241882,9.90311336517334,0.0009728239429744294,0.0063611818469793335,-0.0031664725286716937,2.999988079071045,2019-07-26 12:06:06:796,-161.99338365155714,-171.83024336236227,0,-24.14017105102539,32.53675079345703,-10.045909881591797
0.027041513472795486,-0.041314221918582916,9.807323455810547,0.0012392051355822353,0.0020990834154402524,0.0008292445152038374,3.0099756717681885,2019-07-26 12:06:06:806,-162.35153354923844,-171.9895062010571,0,-24.14017105102539,32.53675079345703,-10.045909881591797
0.0030940165743231773,-0.03891947120428085,9.797744750976562,0.0007064428153852049,0.006094800719390108,-0.0021009480183147955,3.020338296890259,2019-07-26 12:06:06:817,-162.70768733181862,-172.14557524418487,0,-24.14017105102539,32.53675079345703,-10.045909881591797
0.01506776548922062,-0.0820249691605568,9.783376693725586,0.0025711109035655207,0.0010335588400647727,-0.0007690423803686727,3.0300965309143066,2019-07-26 12:06:06:826,-163.0523350278333,-172.29446524680972,0,-24.14017105102539,32.53675079345703,-10.045909881591797
0.019857265055179596,-0.041314221918582916,9.783376693725586,-0.0014246064003843356,0.003697370311012762,0.002693912538365572,3.0399668216705322,2019-07-26 12:06:06:836,-163.3910116118667,-172.44294734471197,0,-24.14017105102539,32.53675079345703,-10.045909881591797
0.03662051260471344,-0.06526172161102295,9.814508438110352,-0.002756512168367621,0.00902499312287158,-0.0029000914010824694,3.049971103668213,2019-07-26 12:06:06:846,-163.7239853782503,-172.5849202865621,0,-24.14017105102539,32.53675079345703,-10.045909881591797
0.04380476102232933,-0.07963021844625473,9.795350074768066,-9.270064052837282e-05,0.001566321160261803,-0.0029000914010824694,3.05997633934021,2019-07-26 12:06:06:856,-164.04526112320463,-172.72385441305195,0,-24.14017105102539,32.53675079345703,-10.045909881591797
0.08451550453901291,-0.03173522278666496,9.838455200195312,0.0028374920311547455,0.007426706357336231,-0.0026337102734932446,3.069973945617676,2019-07-26 12:06:06:866,-164.35868144552785,-172.86727390367838,0,-24.14017105102539,32.53675079345703,-10.045909881591797
0.05098900943994522,-0.05807746946811676,9.795350074768066,0.0033702542863331946,0.0018327022878510278,0.002693912538365572,3.0799763202667236,2019-07-26 12:06:06:876,-164.66657219127333,-173.0050271161197,0,-24.14017105102539,32.53675079345703,-10.045909881591797
0.019857265055179596,-0.034129973500967026,9.785771369934082,-0.0003590817924995654,0.007426706357336231,-0.0036992350439244686,3.08998966217041,2019-07-26 12:06:06:886,-164.97509111052585,-173.14072807101454,0,-24.14017105102539,32.53675079345703,-10.045909881591797
0.0390152633190155,-0.026945723220705986,9.819297790527344,0.0012392051355822353,0.005828419591800884,-0.0005026612202701574,3.0999724864959717,2019-07-26 12:06:06:896,-165.27430324566123,-173.27546355877186,0,-24.14017105102539,32.53675079345703,-10.045909881591797
0.09648925811052322,-0.05089322105050087,9.836060523986816,-0.001158225272795111,0.003963751438601987,0.0005628633876146128,3.1099772453308105,2019-07-26 12:06:06:906,-165.55980310029864,-173.4033745536248,0,-24.14017105102539,32.53675079345703,-10.045909881591797
0.048594262450933456,-0.06526172161102295,9.82169246673584,0.0012392051355822353,0.005295657336622434,3.010106944941304e-05,3.119976043701172,2019-07-26 12:06:06:916,-165.84591064636714,-173.52838869347937,0,-24.14017105102539,32.53675079345703,-10.045909881591797
0.04380476102232933,-0.07723546773195267,9.840849876403809,0.0009728239429744294,0.004230132566191211,0.003226674793544021,3.1299943923950195,2019-07-26 12:06:06:926,-166.1262712032938,-173.649374678885,0,-24.14017105102539,32.53675079345703,-10.045909881591797
0.031831011176109314,-0.09878821671009064,9.840849876403809,-0.0038220366787245193,0.005828419591800884,-0.0005026612202701574,3.1399760246276855,2019-07-26 12:06:06:936,-166.40330587563162,-173.76274207307384,0,-24.14017105102539,32.53675079345703,-10.045909881591797
0.02225201390683651,-0.05807746946811676,9.848034858703613,-0.002756512168367621,0.002631845800655864,-0.00023628007642628753,3.1499760150909424,2019-07-26 12:06:06:946,-166.67412829855857,-173.8791816495481,0,-24.739927291870117,31.037363052368164,-11.245421409606934
0.01267301570624113,-0.09160396456718445,9.864797592163086,-0.0003590817924995654,0.006094800719390108,0.0013620067703822866,3.159977436065674,2019-07-26 12:06:06:956,-166.94259631789706,-173.99075576104266,0,-24.739927291870117,31.037363052368164,-11.245421409606934
0.053383760154247284,-0.014971975237131119,9.80492877960205,-0.0014246064003843356,0.006094800719390108,-0.0013018046355471218,3.169975757598877,2019-07-26 12:06:06:966,-167.20092706719018,-174.1083910714319,0,-24.739927291870117,31.037363052368164,-11.245421409606934
0.06296275556087494,-0.03891947120428085,9.819297790527344,-0.0014246064003843356,0.002631845800655864,0.001095625642793062,3.179990291595459,2019-07-26 12:06:06:976,-167.45104077592333,-174.2208802803235,0,-24.739927291870117,31.037363052368164,-11.245421409606934
0.007883516140282154,-0.0748407170176506,9.80492877960205,0.00150558626317146,0.0012999400326725785,0.0013620067703822866,3.1899755001068115,2019-07-26 12:06:06:986,-167.70182743807345,-174.32856024063767,0,-24.739927291870117,31.037363052368164,-11.245421409606934
0.04141001030802727,-0.08920921385288239,9.754639625549316,-0.0003590817924995654,0.0018327022878510278,-0.001834566890725571,3.200176954269409,2019-07-26 12:06:06:996,-167.94397611367472,-174.43130388769347,0,-24.739927291870117,31.037363052368164,-11.245421409606934
0.024646764621138573,-0.0556827187538147,9.790560722351074,-0.0030228932959568454,0.007160325229747007,0.0002964822275160976,3.209959030151367,2019-07-26 12:06:07:006,-168.18614476496265,-174.53450025238033,0,-24.739927291870117,31.037363052368164,-11.245421409606934
0.03662051260471344,-0.03173522278666496,9.783376693725586,-0.0019573686555627847,0.005295657336622434,0.001095625642793062,3.219975233078003,2019-07-26 12:06:07:016,-168.42111089376945,-174.63899230981562,0,-24.739927291870117,31.037363052368164,-11.245421409606934
0.02225201390683651,-0.04849847033619881,9.783376693725586,-0.002223749913189172,0.004762895081443986,-0.0005026612202701574,3.2299928665161133,2019-07-26 12:06:07:026,-168.65276140267244,-174.7392811061263,0,-24.739927291870117,31.037363052368164,-11.245421409606934
0.0390152633190155,-0.07005121558904648,9.82169246673584,-0.001158225272795111,0.003430989183423538,0.0005628633876146128,3.239985227584839,2019-07-26 12:06:07:036,-168.8770792375081,-174.8356727685508,0,-24.739927291870117,31.037363052368164,-11.245421409606934
0.04141001030802727,-0.04849847033619881,9.807323455810547,-0.0006254629525980806,0.0020990834154402524,-0.0031664725286716937,3.2502999305725098,2019-07-26 12:06:07:046,-169.09591494242642,-174.93293041118162,0,-24.739927291870117,31.037363052368164,-11.245421409606934
0.03662051260471344,-0.05328797176480293,9.795350074768066,0.00150558626317146,0.006893944102157782,-0.0023673291459040203,3.2599575519561768,2019-07-26 12:06:07:056,-169.3134509958546,-175.0288543758566,0,-24.739927291870117,31.037363052368164,-11.245421409606934
0.01506776548922062,-0.041314221918582916,9.840849876403809,-0.002223749913189172,0.005828419591800884,0.0018947690255607357,3.269967555999756,2019-07-26 12:06:07:066,-169.52870333832698,-175.12221660946938,0,-24.739927291870117,31.037363052368164,-11.245421409606934
0.02225201390683651,-0.0748407170176506,9.831271171569824,-0.0008918440801873052,0.005828419591800884,-0.0063630465798910395,3.2799789905548096,2019-07-26 12:06:07:076,-169.7388120123795,-175.21054780224657,0,-24.739927291870117,31.037363052368164,-11.245421409606934
0.04141001030802727,-0.03891947120428085,9.788166046142578,0.0009728239429744294,0.007959468612514682,3.010106944941304e-05,3.289968490600586,2019-07-26 12:06:07:086,-169.94365240584864,-175.30232617388313,0,-24.739927291870117,31.037363052368164,-11.245421409606934
-0.00887973140925169,-0.046103719621896744,9.790560722351074,0.0023047297759762964,0.00556203846421166,0.0005628633876146128,3.299971580505371,2019-07-26 12:06:07:096,-162.94894270896552,-175.39217807988163,0,-24.739927291870117,31.037363052368164,-11.245421409606934
0.0006992669077590108,-0.02215622365474701,9.828876495361328,-0.0008918440801873052,-0.0005647280555077374,0.004558580691564469,3.3099710941314697,2019-07-26 12:06:07:106,-163.28956525100182,-175.4812506583218,0,-24.739927291870117,31.037363052368164,-11.245421409606934
0.05817325785756111,-0.046103719621896744,9.800139427185059,0.00017368051144281974,0.00556203846421166,-0.0029000914010824694,3.3199901580810547,2019-07-26 12:06:07:116,-163.62010094501395,-175.5663325534889,0,-24.739927291870117,31.037363052368164,-11.245421409606934
0.04141001030802727,-0.0556827187538147,9.766613006591797,-0.0030228932959568454,0.005828419591800884,-0.0026337102734932446,3.329970359802246,2019-07-26 12:06:07:126,-163.9461064938279,-175.64677873615426,0,-24.739927291870117,31.037363052368164,-11.245421409606934
0.09648925811052322,-0.04849847033619881,9.816903114318848,-0.002223749913189172,0.008758612515431006,0.0002964822275160976,3.3399722576141357,2019-07-26 12:06:07:136,-164.2608405310051,-175.72693316839178,0,-24.739927291870117,31.037363052368164,-11.245421409606934
0.0294362623244524,-0.06286697089672089,9.812113761901855,0.0009728239429744294,0.007693087484925456,-0.0036992350439244686,3.3499720096588135,2019-07-26 12:06:07:146,-164.57650554419487,-175.80559886154828,0,-24.739927291870117,31.037363052368164,-11.245421409606934
0.01267301570624113,-0.05807746946811676,9.802534103393555,-0.0006254629525980806,0.004762895081443986,-0.005830284324712591,3.359968423843384,2019-07-26 12:06:07:156,-164.88616735956722,-175.8823466407406,0,-24.739927291870117,31.037363052368164,-11.245421409606934
0.05817325785756111,-0.041314221918582916,9.824087142944336,-0.004354798933902968,0.000767177712475548,-0.001834566890725571,3.369985342025757,2019-07-26 12:06:07:166,-165.18209005919098,-175.95743135169636,0,-24.739927291870117,31.037363052368164,-11.245421409606934
0.031831011176109314,-0.05328797176480293,9.824087142944336,-0.0008918440801873052,0.0063611818469793335,0.0056241052019213676,3.3802366256713867,2019-07-26 12:06:07:176,-165.47839693979614,-176.0315537390641,0,-24.739927291870117,31.037363052368164,-11.245421409606934
0.03422576189041138,-0.06047222018241882,9.790560722351074,-0.0048875611890814175,0.003963751438601987,-0.004231997299102917,3.389960765838623,2019-07-26 12:06:07:186,-165.76698737953677,-176.1011762573327,0,-24.739927291870117,31.037363052368164,-11.245421409606934
0.024646764621138573,-0.0556827187538147,9.80492877960205,-0.001158225272795111,0.001566321160261803,0.0002964822275160976,3.3999524116516113,2019-07-26 12:06:07:196,-166.04964588899634,-176.17199528716918,0,-22.64078140258789,31.33724021911621,-10.34578800201416
0.07254175841808319,-0.04849847033619881,9.800139427185059,-0.001158225272795111,0.00556203846421166,-0.0026337102734932446,3.409958600997925,2019-07-26 12:06:07:206,-166.32329593723296,-176.24223382995913,0,-22.64078140258789,31.33724021911621,-10.34578800201416
0.03662051260471344,-0.08441971987485886,9.809718132019043,0.0009728239429744294,0.003697370311012762,0.0002964822275160976,3.419969081878662,2019-07-26 12:06:07:216,-166.59463048224362,-176.30807477612453,0,-22.64078140258789,31.33724021911621,-10.34578800201416
0.07014700770378113,-0.07005121558904648,9.776191711425781,0.0012392051355822353,0.0018327022878510278,0.0002964822275160976,3.4299542903900146,2019-07-26 12:06:07:226,-166.8555432750766,-176.37439715584804,0,-22.64078140258789,31.33724021911621,-10.34578800201416
0.05577851086854935,-0.046103719621896744,9.831271171569824,0.0017719673907606846,0.005828419591800884,-0.0023673291459040203,3.4399795532226562,2019-07-26 12:06:07:236,-167.1152119520087,-176.44253295487795,0,-22.64078140258789,31.33724021911621,-10.34578800201416
0.02225201390683651,-0.02215622365474701,9.826481819152832,-0.004354798933902968,0.004230132566191211,-0.0029000914010824694,3.449962615966797,2019-07-26 12:06:07:246,-167.37268398858674,-176.5086574790518,0,-22.64078140258789,31.33724021911621,-10.34578800201416
0.031831011176109314,-0.06526172161102295,9.814508438110352,-0.0006254629525980806,-0.0002983468954092222,-0.0036992350439244686,3.460002899169922,2019-07-26 12:06:07:256,-167.62134562244606,-176.57051204747566,0,-22.64078140258789,31.33724021911621,-10.34578800201416
0.04141001030802727,-0.05089322105050087,9.83366584777832,-0.002223749913189172,0.0028982269282450887,-0.0029000914010824694,3.4699621200561523,2019-07-26 12:06:07:266,-167.86571395058294,-176.63192773940523,0,-22.64078140258789,31.33724021911621,-10.34578800201416
0.05817325785756111,-0.05807746946811676,9.852824211120605,-0.0014246064003843356,0.003963751438601987,0.0008292445152038374,3.4799702167510986,2019-07-26 12:06:07:276,-168.1038614536417,-176.69173410150762,0,-22.64078140258789,31.33724021911621,-10.34578800201416
0.048594262450933456,-0.0556827187538147,9.845640182495117,-0.0006254629525980806,0.00902499312287158,-0.0023673291459040203,3.4899661540985107,2019-07-26 12:06:07:286,-168.3411939380504,-176.75106762748152,0,-22.64078140258789,31.33724021911621,-10.34578800201416
0.027041513472795486,-0.02215622365474701,9.79295539855957,-0.001158225272795111,0.007693087484925456,0.0018947690255607357,3.4999728202819824,2019-07-26 12:06:07:296,-168.5755283619162,-176.81280290943124,0,-22.64078140258789,31.33724021911621,-10.34578800201416
0.05577851086854935,-0.03652472048997879,9.783376693725586,-0.0006254629525980806,0.000767177712475548,-0.005031140421796266,3.509976863861084,2019-07-26 12:06:07:306,-168.79791553646405,-176.87191743426988,0,-22.64078140258789,31.33724021911621,-10.34578800201416
0.0294362623244524,-0.0820249691605568,9.855218887329102,-0.0006254629525980806,0.004762895081443986,0.003226674793544021,3.5199689865112305,2019-07-26 12:06:07:316,-169.0212067868899,-176.9245909324487,0,-22.64078140258789,31.33724021911621,-10.34578800201416
0.04619951173663139,-0.034129973500967026,9.761823654174805,0.00017368051144281974,0.006094800719390108,0.001628387897971511,3.529971122741699,2019-07-26 12:06:07:326,-169.23878240212406,-176.98219024175563,0,-22.64078140258789,31.33724021911621,-10.34578800201416
0.04380476102232933,-0.046103719621896744,9.812113761901855,0.002038348518349909,0.006627562974568559,0.005091342946742919,3.5399727821350098,2019-07-26 12:06:07:336,-169.4526129989651,-177.0383069364423,0,-22.64078140258789,31.33724021911621,-10.34578800201416
0.03422576189041138,-0.02934047393500805,9.83366584777832,0.0017719673907606846,0.002631845800655864,-0.0021009480183147955,3.5499722957611084,2019-07-26 12:06:07:346,-169.66105013820675,-177.0951166757667,0,-22.64078140258789,31.33724021911621,-10.34578800201416
0.024646764621138573,-0.05807746946811676,9.871981620788574,0.0017719673907606846,0.0028982269282450887,-0.003965616171513693,3.559988260269165,2019-07-26 12:06:07:356,-169.86659815342088,-177.14746947445505,0,-22.64078140258789,31.33724021911621,-10.34578800201416
0.01506776548922062,-0.046103719621896744,9.737875938415527,0.0012392051355822353,0.0012999400326725785,0.0005628633876146128,3.569979190826416,2019-07-26 12:06:07:366,-170.06822232794985,-177.1997899989652,0,-22.64078140258789,31.33724021911621,-10.34578800201416
0.0390152633190155,-0.03891947120428085,9.816903114318848,0.0039030165415116433,0.004762895081443986,0.006689629712278266,3.5799643993377686,2019-07-26 12:06:07:376,-170.26497410275832,-177.25343949541193,0,-22.64078140258789,31.33724021911621,-10.34578800201416
0.04619951173663139,-0.014971975237131119,9.819297790527344,-0.004088417806313744,0.003697370311012762,0.001095625642793062,3.589968204498291,2019-07-26 12:06:07:386,-170.45636001919542,-177.30432695738972,0,-22.64078140258789,31.33724021911621,-10.34578800201416
0.02225201390683651,-0.046103719621896744,9.888745307922363,-0.001158225272795111,0.003430989183423538,0.004292199303900919,3.5999855995178223,2019-07-26 12:06:07:396,-170.64658408917728,-177.35224644844453,0,-22.64078140258789,31.33724021911621,-10.34578800201416
0.05817325785756111,-0.07963021844625473,9.819297790527344,-0.0014246064003843356,-0.0013638715032939924,0.0008292445152038374,3.6099607944488525,2019-07-26 12:06:07:406,-170.82609973427327,-177.3951109176361,0,-22.64078140258789,31.33724021911621,-10.34578800201416
0.0294362623244524,-0.04849847033619881,9.836060523986816,-0.002756512168367621,0.0018327022878510278,-0.005563903197123366,3.6199865341186523,2019-07-26 12:06:07:416,-171.0071800903604,-177.44000683982776,0,-22.64078140258789,31.33724021911621,-10.34578800201416
0.065357506275177,-0.026945723220705986,9.869586944580078,-0.0006254629525980806,0.007693087484925456,-0.0010354235079578973,3.629966974258423,2019-07-26 12:06:07:426,-171.18375942750393,-177.48772764829678,0,-22.64078140258789,31.33724021911621,-10.34578800201416
0.060568008571863174,-0.019761474803090096,9.82169246673584,0.00017368051144281974,0.003697370311012762,0.005357724074332143,3.6399734020233154,2019-07-26 12:06:07:436,-171.3550951463118,-177.53576507354654,0,-22.64078140258789,31.33724021911621,-10.34578800201416
-0.0040902323089540005,-0.026945723220705986,9.778586387634277,-0.002223749913189172,0.003963751438601987,-0.0013018046355471218,3.6499881744384766,2019-07-26 12:06:07:446,-164.33070149107527,-177.5806416354963,0,-24.290109634399414,30.58754539489746,-10.19584846496582
0.010278265923261642,-0.04849847033619881,9.800139427185059,-0.0019573686555627847,0.004496513953854761,-0.0013018046355471218,3.659968614578247,2019-07-26 12:06:07:456,-164.64540548751012,-177.6222610856626,0,-24.290109634399414,30.58754539489746,-10.19584846496582
0.05817325785756111,-0.046103719621896744,9.778586387634277,0.0007064428153852049,0.005295657336622434,0.004292199303900919,3.669971466064453,2019-07-26 12:06:07:466,-164.94865470617893,-177.6648099630706,0,-24.290109634399414,30.58754539489746,-10.19584846496582
0.06775225698947906,-0.02934047393500805,9.75224494934082,-0.0003590817924995654,0.006893944102157782,0.0008292445152038374,3.6799724102020264,2019-07-26 12:06:07:476,-165.24559196939038,-177.70786454489357,0,-24.290109634399414,30.58754539489746,-10.19584846496582
0.05817325785756111,-0.0556827187538147,9.795350074768066,-0.003555655551135295,0.0063611818469793335,0.0002964822275160976,3.6899709701538086,2019-07-26 12:06:07:486,-165.53744605306574,-177.74519703575834,0,-24.290109634399414,30.58754539489746,-10.19584846496582
0.019857265055179596,-0.04849847033619881,9.82169246673584,0.0007064428153852049,0.006094800719390108,0.004025818176311695,3.699986219406128,2019-07-26 12:06:07:496,-165.82780779112235,-177.78503200357665,0,-24.290109634399414,30.58754539489746,-10.19584846496582
0.01267301570624113,-0.06047222018241882,9.831271171569824,-0.0008918440801873052,0.00502927620903321,-0.0013018046355471218,3.709972620010376,2019-07-26 12:06:07:506,-166.11259458317897,-177.82178282907972,0,-24.290109634399414,30.58754539489746,-10.19584846496582
0.0390152633190155,-0.07723546773195267,9.778586387634277,0.00017368051144281974,0.005295657336622434,-0.00023628007642628753,3.7199714183807373,2019-07-26 12:06:07:516,-166.38874381157058,-177.85639393772976,0,-24.290109634399414,30.58754539489746,-10.19584846496582
0.03662051260471344,-0.06526172161102295,9.848034858703613,-0.0014246064003843356,0.004230132566191211,-0.00023628007642628753,3.729969024658203,2019-07-26 12:06:07:526,-166.65908244374464,-177.8908726047,0,-24.290109634399414,30.58754539489746,-10.19584846496582
0.0030940165743231773,-0.017366724088788033,9.814508438110352,-9.270064052837282e-05,0.005295657336622434,0.0013620067703822866,3.7399885654449463,2019-07-26 12:06:07:536,-166.92851886068365,-177.93097530976306,0,-24.290109634399414,30.58754539489746,-10.19584846496582
0.05817325785756111,-0.0748407170176506,9.874377250671387,-0.002756512168367621,0.004762895081443986,0.003493055921133246,3.7499661445617676,2019-07-26 12:06:07:546,-167.18586595265361,-177.96212644172388,0,-24.290109634399414,30.58754539489746,-10.19584846496582
0.024646764621138573,-0.06526172161102295,9.785771369934082,-9.270064052837282e-05,0.002631845800655864,0.0002964822275160976,3.759970188140869,2019-07-26 12:06:07:556,-167.44074087451307,-177.99518979449627,0,-24.290109634399414,30.58754539489746,-10.19584846496582
0.08212075382471085,-0.06047222018241882,9.807323455810547,-0.003555655551135295,0.006627562974568559,-0.0007690423803686727,3.769989252090454,2019-07-26 12:06:07:566,-167.68605952061145,-178.0262200399403,0,-24.290109634399414,30.58754539489746,-10.19584846496582
0.031831011176109314,-0.026945723220705986,9.733086585998535,-0.0048875611890814175,0.002631845800655864,-0.006096665452301814,3.7799935340881348,2019-07-26 12:06:07:576,-167.93006916068634,-178.0597776843422,0,-24.290109634399414,30.58754539489746,-10.19584846496582
0.05817325785756111,-0.06526172161102295,9.785771369934082,-0.0016909875279735602,0.004496513953854761,3.010106944941304e-05,3.79000186920166,2019-07-26 12:06:07:586,-168.16718264964553,-178.08998980598884,0,-24.290109634399414,30.58754539489746,-10.19584846496582
0.019857265055179596,-0.03891947120428085,9.845640182495117,0.0028374920311547455,0.004762895081443986,-0.0015681857631363464,3.799973726272583,2019-07-26 12:06:07:596,-168.40419468263622,-178.12524903327085,0,-24.290109634399414,30.58754539489746,-10.19584846496582
0.0006992669077590108,-0.07244596630334854,9.790560722351074,0.0007064428153852049,0.004230132566191211,-0.0026337102734932446,3.8099863529205322,2019-07-26 12:06:07:606,-168.6384071575373,-178.1546620891217,0,-24.290109634399414,30.58754539489746,-10.19584846496582
0.060568008571863174,-0.05328797176480293,9.800139427185059,-0.0006254629525980806,0.0031646080558343135,0.0018947690255607357,3.81997013092041,2019-07-26 12:06:07:616,-168.8603310188358,-178.18498739932295,0,-24.290109634399414,30.58754539489746,-10.19584846496582
0.053383760154247284,-0.0556827187538147,9.795350074768066,-0.0006254629525980806,0.005828419591800884,0.001628387897971511,3.8299920558929443,2019-07-26 12:06:07:626,-169.08015915029034,-178.21442167475328,0,-24.290109634399414,30.58754539489746,-10.19584846496582
0.05817325785756111,-0.02215622365474701,9.864797592163086,-0.002223749913189172,0.006893944102157782,-0.0013018046355471218,3.839977264404297,2019-07-26 12:06:07:636,-169.29566373243662,-178.24631274651296,0,-24.290109634399414,30.58754539489746,-10.19584846496582
0.017462514340877533,-0.0820249691605568,9.824087142944336,-0.0038220366787245193,0.004762895081443986,0.005890486329510593,3.849980592727661,2019-07-26 12:06:07:646,-169.51038882092774,-178.2696722543938,0,-24.290109634399414,30.58754539489746,-10.19584846496582
0.06296275556087494,-0.02934047393500805,9.824087142944336,-9.270064052837282e-05,0.004762895081443986,-0.0010354235079578973,3.8599796295166016,2019-07-26 12:06:07:656,-169.71551105243435,-178.30080439859103,0,-24.290109634399414,30.58754539489746,-10.19584846496582
0.017462514340877533,-0.06765646487474442,9.812113761901855,-0.0003590817924995654,0.004230132566191211,0.0002964822275160976,3.8699796199798584,2019-07-26 12:06:07:666,-169.92153667118387,-178.3266854974733,0,-24.290109634399414,30.58754539489746,-10.19584846496582
0.01506776548922062,-0.04370897263288498,9.754639625549316,-0.001158225272795111,0.005295657336622434,0.001628387897971511,3.879991292953491,2019-07-26 12:06:07:676,-170.12431284529697,-178.3543660572147,0,-24.290109634399414,30.58754539489746,-10.19584846496582
0.0294362623244524,-0.019761474803090096,9.82169246673584,0.003636635413922419,0.003430989183423538,0.001628387897971511,3.889955997467041,2019-07-26 12:06:07:686,-170.32031190991026,-178.38700788884933,0,-24.290109634399414,30.58754539489746,-10.19584846496582
0.031831011176109314,-0.05328797176480293,9.812113761901855,0.004702159924279317,0.002365464673066639,-0.0015681857631363464,3.8999831676483154,2019-07-26 12:06:07:696,-170.511520088487,-178.41569194367534,0,-25.33968162536621,33.13650894165039,-10.94554328918457
-0.0016954827588051558,-0.03891947120428085,9.800139427185059,-0.0014246064003843356,0.003430989183423538,-0.0029000914010824694,3.9099855422973633,2019-07-26 12:06:07:706,-163.50341489020167,-178.44202722888073,0,-25.33968162536621,33.13650894165039,-10.94554328918457
0.053383760154247284,-0.03652472048997879,9.812113761901855,-0.0019573686555627847,0.008758612515431006,-0.0029000914010824694,3.919956684112549,2019-07-26 12:06:07:716,-163.8320159452845,-178.46782524702323,0,-25.33968162536621,33.13650894165039,-10.94554328918457
0.02225201390683651,-0.041314221918582916,9.807323455810547,0.002038348518349909,0.004496513953854761,0.0008292445152038374,3.929990768432617,2019-07-26 12:06:07:726,-164.15530903422191,-178.49478993031425,0,-25.33968162536621,33.13650894165039,-10.94554328918457
0.048594262450933456,-0.05328797176480293,9.819297790527344,0.002038348518349909,0.002365464673066639,-0.0010354235079578973,3.9399797916412354,2019-07-26 12:06:07:736,-164.46785867914733,-178.5198187408427,0,-25.33968162536621,33.13650894165039,-10.94554328918457
0.060568008571863174,-0.046103719621896744,9.79295539855957,0.0009728239429744294,0.006627562974568559,-0.0023673291459040203,3.9499547481536865,2019-07-26 12:06:07:746,-164.77512632222172,-178.54457248383497,0,-25.33968162536621,33.13650894165039,-10.94554328918457
0.06296275556087494,-0.05089322105050087,9.790560722351074,-0.0016909875279735602,0.006893944102157782,-0.0023673291459040203,3.9599697589874268,2019-07-26 12:06:07:756,-165.0761313048888,-178.56677348532463,0,-25.33968162536621,33.13650894165039,-10.94554328918457
0.03422576189041138,-0.04849847033619881,9.788166046142578,-0.0024901310407783963,0.0031646080558343135,-0.004498378166617817,3.97001576423645,2019-07-26 12:06:07:766,-165.37238693065345,-178.58835563421127,0,-25.33968162536621,33.13650894165039,-10.94554328918457
0.08212075382471085,-0.0748407170176506,9.769007682800293,-9.270064052837282e-05,0.003697370311012762,-0.004231997299102917,3.9800069332122803,2019-07-26 12:06:07:776,-165.6573807971498,-178.60775778765912,0,-25.33968162536621,33.13650894165039,-10.94554328918457
0.04619951173663139,-0.04370897263288498,9.797744750976562,0.003636635413922419,0.003963751438601987,-0.0005026612202701574,3.9902091026306152,2019-07-26 12:06:07:786,-165.94110049808162,-178.63257384026807,0,-25.33968162536621,33.13650894165039,-10.94554328918457
0.08691025525331497,-0.0556827187538147,9.816903114318848,-0.002756512168367621,0.004230132566191211,0.0024275314107763475,4.000524997711182,2019-07-26 12:06:07:797,-166.21458406647082,-178.65182598332296,0,-25.33968162536621,33.13650894165039,-10.94554328918457
0.060568008571863174,-0.0820249691605568,9.78098201751709,-0.0003590817924995654,0.005828419591800884,0.0013620067703822866,4.010197639465332,2019-07-26 12:06:07:806,-166.48636199498682,-178.6689848234008,0,-25.33968162536621,33.13650894165039,-10.94554328918457
0.05098900943994522,-0.05328797176480293,9.852824211120605,0.00150558626317146,-0.0013638715032939924,0.002693912538365572,4.020409822463989,2019-07-26 12:06:07:817,-166.74992255870788,-178.6902709447099,0,-25.33968162536621,33.13650894165039,-10.94554328918457
0.02225201390683651,-0.05807746946811676,9.761823654174805,-0.0016909875279735602,0.0012999400326725785,-0.0036992350439244686,4.030409574508667,2019-07-26 12:06:07:827,-167.01304190133942,-178.7086985765312,0,-25.33968162536621,33.13650894165039,-10.94554328918457
0.04141001030802727,-0.034129973500967026,9.807323455810547,-0.0019573686555627847,0.006094800719390108,-0.005031140421796266,4.039958715438843,2019-07-26 12:06:07:836,-167.27121055689693,-178.72948727011325,0,-25.33968162536621,33.13650894165039,-10.94554328918457
0.048594262450933456,-0.07963021844625473,9.790560722351074,0.00150558626317146,0.008225849740103906,0.003226674793544021,4.049989223480225,2019-07-26 12:06:07:846,-167.5247316737084,-178.74642554250204,0,-25.33968162536621,33.13650894165039,-10.94554328918457
0.0390152633190155,-0.05328797176480293,9.828876495361328,0.00150558626317146,0.006094800719390108,0.0029602936659547966,4.059982061386108,2019-07-26 12:06:07:856,-167.77310817732612,-178.7661292066233,0,-25.33968162536621,33.13650894165039,-10.94554328918457
0.053383760154247284,-0.03891947120428085,9.843245506286621,-0.0016909875279735602,0.006094800719390108,-0.00023628007642628753,4.069985389709473,2019-07-26 12:06:07:866,-168.0148546887881,-178.7853259766396,0,-25.33968162536621,33.13650894165039,-10.94554328918457
0.05817325785756111,-0.03173522278666496,9.848034858703613,-0.0038220366787245193,0.004762895081443986,-0.0007690423803686727,4.079969882965088,2019-07-26 12:06:07:876,-168.25045885581852,-178.8037840244509,0,-25.33968162536621,33.13650894165039,-10.94554328918457
0.01267301570624113,-0.06526172161102295,9.852824211120605,0.0039030165415116433,0.007693087484925456,-0.0005026612202701574,4.089990139007568,2019-07-26 12:06:07:886,-168.48830417452805,-178.8223142815547,0,-25.33968162536621,33.13650894165039,-10.94554328918457
0.019857265055179596,-0.024550974369049072,9.79295539855957,-0.006219466827027541,0.00502927620903321,-0.001834566890725571,4.099985122680664,2019-07-26 12:06:07:896,-168.71903702589054,-178.83950471709298,0,-25.33968162536621,33.13650894165039,-10.94554328918457
0.010278265923261642,-0.06047222018241882,9.838455200195312,0.002038348518349909,0.0012999400326725785,0.0002964822275160976,4.109986782073975,2019-07-26 12:06:07:906,-168.94418917977106,-178.85681604302673,0,-25.33968162536621,33.13650894165039,-10.94554328918457
0.0030940165743231773,-0.06765646487474442,9.857613563537598,0.0009728239429744294,0.007693087484925456,0.0008292445152038374,4.119980573654175,2019-07-26 12:06:07:916,-169.16926270312945,-178.8723609013416,0,-25.33968162536621,33.13650894165039,-10.94554328918457
0.03662051260471344,-0.01257722545415163,9.802534103393555,0.00150558626317146,0.007693087484925456,0.0021611501531499603,4.129977703094482,2019-07-26 12:06:07:926,-169.38591495164414,-178.89428854926072,0,-25.33968162536621,33.13650894165039,-10.94554328918457
0.005488766357302666,-0.05328797176480293,9.843245506286621,0.0028374920311547455,0.004230132566191211,0.001095625642793062,4.13995361328125,2019-07-26 12:06:07:936,-169.59992716187784,-178.9117886527731,0,-25.33968162536621,33.13650894165039,-10.94554328918457
0.03422576189041138,-0.05089322105050087,9.754639625549316,0.00044006165528668966,0.002631845800655864,-0.003965616171513693,4.149949073791504,2019-07-26 12:06:07:946,-169.8053851083029,-178.92782129049783,0,-25.039804458618164,32.53675079345703,-9.746031761169434
0.05817325785756111,-0.026945723220705986,9.860008239746094,0.0007064428153852049,0.0010335588400647727,-0.001834566890725571,4.159956693649292,2019-07-26 12:06:07:956,-170.00309745859354,-178.9465302492751,0,-25.039804458618164,32.53675079345703,-9.746031761169434
0.053383760154247284,-0.041314221918582916,9.80492877960205,-0.003555655551135295,0.003430989183423538,0.0024275314107763475,4.16994571685791,2019-07-26 12:06:07:966,-170.1987209182546,-178.96077691835495,0,-25.039804458618164,32.53675079345703,-9.746031761169434
0.02225201390683651,-0.026945723220705986,9.831271171569824,0.0007064428153852049,0.005295657336622434,0.001095625642793062,4.179946660995483,2019-07-26 12:06:07:976,-170.39512663403767,-178.9788173461126,0,-25.039804458618164,32.53675079345703,-9.746031761169434
0.0030940165743231773,-0.04370897263288498,9.824087142944336,0.0007064428153852049,0.002631845800655864,-0.0010354235079578973,4.189947605133057,2019-07-26 12:06:07:986,-170.58834112190513,-178.99453937082836,0,-25.039804458618164,32.53675079345703,-9.746031761169434
0.027041513472795486,-0.07963021844625473,9.843245506286621,0.0007064428153852049,0.0005007965523770329,0.001628387897971511,4.199945688247681,2019-07-26 12:06:07:996,-170.77370737336295,-179.005775109809,0,-25.039804458618164,32.53675079345703,-9.746031761169434
0.04141001030802727,-0.026945723220705986,9.883955955505371,-9.270064052837282e-05,0.003697370311012762,0.0005628633876146128,4.209948778152466,2019-07-26 12:06:08:006,-170.95550901406557,-179.022483543339,0,-25.039804458618164,32.53675079345703,-9.746031761169434
0.027041513472795486,-0.019761474803090096,9.831271171569824,-0.003555655551135295,0.0028982269282450887,3.010106944941304e-05,4.2199766635894775,2019-07-26 12:06:08:016,-171.1348788191347,-179.037728449932,0,-25.039804458618164,32.53675079345703,-9.746031761169434
0.0006992669077590108,-0.03652472048997879,9.769007682800293,-0.001158225272795111,0.003697370311012762,-0.0005026612202701574,4.229944944381714,2019-07-26 12:06:08:026,-171.31416870123115,-179.0520412310155,0,-25.039804458618164,32.53675079345703,-9.746031761169434
0.04141001030802727,-0.06286697089672089,9.83366584777832,0.0007064428153852049,0.005828419591800884,-0.0023673291459040203,4.239943742752075,2019-07-26 12:06:08:036,-171.48633210992537,-179.06407124662599,0,-25.039804458618164,32.53675079345703,-9.746031761169434
0.048594262450933456,-0.06047222018241882,9.771402359008789,0.0023047297759762964,0.004496513953854761,-0.0010354235079578973,4.249942779541016,2019-07-26 12:06:08:046,-171.65343129327167,-179.07699216915356,0,-25.039804458618164,32.53675079345703,-9.746031761169434
0.04141001030802727,-0.0556827187538147,9.828876495361328,-0.0019573686555627847,0.003430989183423538,-0.0010354235079578973,4.259953260421753,2019-07-26 12:06:08:056,-171.8174633573033,-179.08786032292684,0,-25.039804458618164,32.53675079345703,-9.746031761169434
0.04619951173663139,-0.02215622365474701,9.816903114318848,0.0041693976691008685,0.002631845800655864,-0.0036992350439244686,4.269940137863159,2019-07-26 12:06:08:066,-171.97719715374606,-179.1058548898313,0,-25.039804458618164,32.53675079345703,-9.746031761169434
0.024646764621138573,-0.04370897263288498,9.788166046142578,-0.0024901310407783963,0.006094800719390108,-0.0021009480183147955,4.279947519302368,2019-07-26 12:06:08:076,-172.13819253068988,-179.1172215124099,0,-24.739927291870117,32.836631774902344,-11.245421409606934
0.04380476102232933,-0.05089322105050087,9.802534103393555,-0.0030228932959568454,0.002631845800655864,-0.0015681857631363464,4.289947509765625,2019-07-26 12:06:08:086,-172.2917857169136,-179.12723037257865,0,-24.739927291870117,32.836631774902344,-11.245421409606934
0.07733125984668732,-0.0556827187538147,9.7642183303833,-0.0016909875279735602,0.0018327022878510278,0.001095625642793062,4.299949884414673,2019-07-26 12:06:08:096,-172.43790400340626,-179.137201273979,0,-24.739927291870117,32.836631774902344,-11.245421409606934
0.05817325785756111,-0.08681446313858032,9.812113761901855,-0.005420323444259867,0.003963751438601987,-0.0036992350439244686,4.3099424839019775,2019-07-26 12:06:08:106,-172.5845761862228,-179.14127756431756,0,-24.739927291870117,32.836631774902344,-11.245421409606934
0.03662051260471344,-0.07723546773195267,9.802534103393555,0.0033702542863331946,0.004496513953854761,-0.0005026612202701574,4.319945335388184,2019-07-26 12:06:08:116,-172.73112925331077,-179.15131631158724,0,-24.739927291870117,32.836631774902344,-11.245421409606934
0.05577851086854935,-0.03173522278666496,9.852824211120605,-0.001158225272795111,0.0005007965523770329,0.0008292445152038374,4.329945802688599,2019-07-26 12:06:08:126,-172.87030072453598,-179.16394871590097,0,-24.739927291870117,32.836631774902344,-11.245421409606934
0.060568008571863174,-0.05089322105050087,9.831271171569824,-0.0024901310407783963,0.009291374770609455,0.0018947690255607357,4.339944839477539,2019-07-26 12:06:08:136,-173.0110516911131,-179.1733397001683,0,-24.739927291870117,32.836631774902344,-11.245421409606934
0.03422576189041138,-0.06286697089672089,9.864797592163086,-0.0003590817924995654,0.006627562974568559,-0.0021009480183147955,4.349951982498169,2019-07-26 12:06:08:146,-173.150578962689,-179.1823684777974,0,-24.739927291870117,32.836631774902344,-11.245421409606934
-0.0016954827588051558,-0.0556827187538147,9.83366584777832,-0.0024901310407783963,0.005295657336622434,-0.0013018046355471218,4.359966278076172,2019-07-26 12:06:08:156,-166.09074271296677,-179.1908322748103,0,-24.739927291870117,32.836631774902344,-11.245421409606934
0.01506776548922062,-0.041314221918582916,9.816903114318848,-0.002223749913189172,0.004230132566191211,-0.003965616171513693,4.369950294494629,2019-07-26 12:06:08:166,-166.36954043472744,-179.200946460313,0,-24.739927291870117,32.836631774902344,-11.245421409606934
0.053383760154247284,-0.026945723220705986,9.785771369934082,0.002038348518349909,0.007426706357336231,0.001095625642793062,4.379942893981934,2019-07-26 12:06:08:176,-166.64006543954923,-179.21491587294668,0,-24.739927291870117,32.836631774902344,-11.245421409606934
0.048594262450933456,-0.05807746946811676,9.769007682800293,-9.270064052837282e-05,0.007693087484925456,0.004025818176311695,4.3899500370025635,2019-07-26 12:06:08:186,-166.90588675981866,-179.2237529947835,0,-24.739927291870117,32.836631774902344,-11.245421409606934
0.024646764621138573,-0.06765646487474442,9.836060523986816,-0.0019573686555627847,0.003963751438601987,-0.0015681857631363464,4.399953603744507,2019-07-26 12:06:08:196,-167.16712408098954,-179.23029652918387,0,-25.189743041992188,32.086936950683594,-10.19584846496582
0.06296275556087494,-0.06526172161102295,9.797744750976562,-0.005953085699438316,0.001566321160261803,-0.0007690423803686727,4.4099438190460205,2019-07-26 12:06:08:206,-167.41729638751485,-179.23471851242297,0,-25.189743041992188,32.086936950683594,-10.19584846496582
0.007883516140282154,-0.04849847033619881,9.82169246673584,-0.0006254629525980806,0.005295657336622434,-0.0005026612202701574,4.419946670532227,2019-07-26 12:06:08:216,-167.67100502737895,-179.2440144824014,0,-25.189743041992188,32.086936950683594,-10.19584846496582
0.0030940165743231773,-0.0556827187538147,9.86240291595459,-0.0048875611890814175,0.0028982269282450887,-0.0034328539163352434,4.429944038391113,2019-07-26 12:06:08:226,-167.91885235425244,-179.24992083289055,0,-25.189743041992188,32.086936950683594,-10.19584846496582
0.05098900943994522,-0.04849847033619881,9.838455200195312,0.003636635413922419,0.00502927620903321,-0.0026337102734932446,4.439952373504639,2019-07-26 12:06:08:236,-168.1573627967612,-179.26131736158501,0,-25.189743041992188,32.086936950683594,-10.19584846496582
0.0294362623244524,-0.0748407170176506,9.814508438110352,-0.001158225272795111,0.003697370311012762,-0.0013018046355471218,4.4499430656433105,2019-07-26 12:06:08:246,-168.39285278839057,-179.26670324644212,0,-25.189743041992188,32.086936950683594,-10.19584846496582
0.04619951173663139,-0.03891947120428085,9.845640182495117,0.0012392051355822353,0.003697370311012762,0.001095625642793062,4.459945201873779,2019-07-26 12:06:08:256,-168.6216952094816,-179.2775354015059,0,-25.189743041992188,32.086936950683594,-10.19584846496582
0.007883516140282154,-0.10836721211671829,9.79295539855957,-0.00675222908220599,0.0018327022878510278,0.001628387897971511,4.469977855682373,2019-07-26 12:06:08:266,-168.84937124166726,-179.27550095240846,0,-25.189743041992188,32.086936950683594,-10.19584846496582
0.04141001030802727,-0.06765646487474442,9.838455200195312,-0.0006254629525980806,0.007959468612514682,0.001628387897971511,4.479964971542358,2019-07-26 12:06:08:276,-169.0720241647189,-179.2817601537931,0,-25.189743041992188,32.086936950683594,-10.19584846496582
