ACCELEROMETER X (m/s²),ACCELEROMETER Y (m/s²),ACCELEROMETER Z (m/s²),GYROSCOPE X (rad/s),GYROSCOPE Y (rad/s),GYROSCOPE Z (rad/s),Time since start in ms ,YYYY-MO-DD HH-MI-SS_SSS,Pitch (Deg),Roll (Deg),Heading (Deg),MagX,MagY,MagZ
0.08930500596761703,-0.2448679506778717,9.788166046142578,-0.0024901310407783963,0.004496513953854761,-0.0013018046355471218,0.0,2019-07-26 12:01:04:915,-3.589545216264939,-3.571338912041221,0,10.34578800201416,24.14017105102539,-73.9198989868164
0.11325250566005707,-0.24007844924926758,9.790560722351074,0.0012392051355822353,0.005295657336622434,0.003493055921133246,0.010013103485107422,2019-07-26 12:01:04:925,-7.107476902475977,-7.0725150103860885,0,10.34578800201416,24.14017105102539,-73.9198989868164
0.08691025525331497,-0.2520521879196167,9.816903114318848,-0.0003590817924995654,0.007693087484925456,0.0024275314107763475,0.019893646240234375,2019-07-26 12:01:04:935,-10.559450753974009,-10.501450201022635,0,10.34578800201416,24.14017105102539,-73.9198989868164
0.11564724892377853,-0.2712101936340332,9.812113761901855,-0.0003590817924995654,0.002631845800655864,0.0037594370487224705,0.02998948097229004,2019-07-26 12:01:04:945,-13.93624834741592,-13.859552202779533,0,10.645665168762207,23.840293884277344,-74.51966094970703
0.053383760154247284,-0.21373620629310608,9.771402359008789,-9.270064052837282e-05,0.004230132566191211,0.006156867457099816,0.04013347625732422,2019-07-26 12:01:04:955,-17.253672417893274,-17.157247001179368,0,10.645665168762207,23.840293884277344,-74.51966094970703
0.09888400137424469,-0.26163119077682495,9.838455200195312,-0.002223749913189172,0.006094800719390108,0.005890486329510593,0.050069332122802734,2019-07-26 12:01:04:965,-20.500482299761916,-20.38239561649079,0,10.645665168762207,23.840293884277344,-74.51966094970703
0.09409450739622116,-0.2520521879196167,9.824087142944336,-0.0003590817924995654,0.0063611818469793335,-0.0007690423803686727,0.05994439125061035,2019-07-26 12:01:04:975,-23.683024648377433,-23.545154806557928,0,10.645665168762207,23.840293884277344,-74.51966094970703
0.05098900943994522,-0.18499919772148132,9.828876495361328,0.00017368051144281974,0.00502927620903321,0.001628387897971511,0.07009243965148926,2019-07-26 12:01:04:985,-26.806285311548823,-26.65278478897542,0,10.645665168762207,23.840293884277344,-74.51966094970703
0.07972601056098938,-0.23768369853496552,9.797744750976562,-0.0030228932959568454,0.0010335588400647727,3.010106944941304e-05,0.0799558162689209,2019-07-26 12:01:04:995,-29.861407702988043,-29.690261593068584,0,10.645665168762207,23.840293884277344,-74.51966094970703
0.06775225698947906,-0.21613094210624695,9.776191711425781,-0.005153942316670643,0.0018327022878510278,-0.0010354235079578973,0.08994841575622559,2019-07-26 12:01:05:005,-32.85726639854673,-32.66823492498959,0,10.645665168762207,23.840293884277344,-74.51966094970703
0.048594262450933456,-0.27599969506263733,9.79295539855957,-0.0006254629525980806,0.006094800719390108,-0.0005026612202701574,0.10046553611755371,2019-07-26 12:01:05:015,-35.79803408717967,-35.582213511090224,0,10.645665168762207,23.840293884277344,-74.51966094970703
0.060568008571863174,-0.22331519424915314,9.795350074768066,0.00017368051144281974,0.003430989183423538,0.0013620067703822866,0.11045360565185547,2019-07-26 12:01:05:025,-38.67691210403896,-38.44454649300841,0,10.645665168762207,23.840293884277344,-74.51966094970703
0.08451550453901291,-0.24965745210647583,9.819297790527344,-0.0008918440801873052,0.004762895081443986,-0.0029000914010824694,0.12047123908996582,2019-07-26 12:01:05:035,-41.496190190592706,-41.24602507186499,0,10.645665168762207,23.840293884277344,-74.51966094970703
0.08930500596761703,-0.2640259563922882,9.857613563537598,-0.0006254629525980806,0.003963751438601987,-0.005563903197123366,0.12995100021362305,2019-07-26 12:01:05:045,-44.25799510816078,-43.990086819901336,0,10.645665168762207,23.840293884277344,-74.51966094970703
0.07014700770378113,-0.28078919649124146,9.843245506286621,-0.0016909875279735602,0.002365464673066639,-0.0036992350439244686,0.14042019844055176,2019-07-26 12:01:05:055,-46.96605960373898,-46.67661143044856,0,10.645665168762207,23.840293884277344,-74.51966094970703
0.10606825351715088,-0.2783944308757782,9.840849876403809,-0.004088417806313744,0.006627562974568559,-0.003965616171513693,0.1504378318786621,2019-07-26 12:01:05:065,-49.618115725208355,-49.308370578627176,0,10.645665168762207,23.840293884277344,-74.51966094970703
0.110857754945755,-0.2448679506778717,9.816903114318848,0.0028374920311547455,0.000767177712475548,-0.0010354235079578973,0.16044902801513672,2019-07-26 12:01:05:075,-52.213244916499185,-51.895220975741616,0,10.645665168762207,23.840293884277344,-74.51966094970703
0.08930500596761703,-0.22331519424915314,9.7642183303833,0.0028374920311547455,0.007160325229747007,-0.006096665452301814,0.1699526309967041,2019-07-26 12:01:05:085,-54.762320530278885,-54.4326273117017,0,10.645665168762207,23.840293884277344,-74.51966094970703
0.05098900943994522,-0.2520521879196167,9.7642183303833,0.005501303307046991,0.004230132566191211,-0.0029000914010824694,0.18038034439086914,2019-07-26 12:01:05:095,-57.26356697693593,-56.91762191979999,0,10.645665168762207,23.840293884277344,-74.51966094970703
0.024646764621138573,-0.2328941971063614,9.824087142944336,0.002038348518349909,-0.0005647280555077374,-0.009293238983372509,0.1899569034576416,2019-07-26 12:01:05:105,-59.71511709236322,-59.35320504777433,0,10.645665168762207,23.840293884277344,-74.51966094970703
0.031831011176109314,-0.23528894782066345,9.807323455810547,0.0017719673907606846,0.00502927620903321,-0.008227714473015612,0.20002079010009766,2019-07-26 12:01:05:115,-62.1199375105185,-61.73965570282246,0,10.645665168762207,23.840293884277344,-74.51966094970703
-0.023248229175806046,-0.22810469567775726,9.855218887329102,0.0007064428153852049,0.004496513953854761,-0.003965616171513693,0.2099924087524414,2019-07-26 12:01:05:125,-57.282759563956816,-64.07873999056974,0,10.645665168762207,23.840293884277344,-74.51966094970703
-0.044800978153944016,-0.18978869915008545,9.888745307922363,0.0017719673907606846,0.003697370311012762,-0.00876047672819406,0.21999216079711914,2019-07-26 12:01:05:135,-52.54437192669328,-66.37616995926163,0,10.645665168762207,23.840293884277344,-74.51966094970703
-0.037616729736328125,-0.23528894782066345,9.826481819152832,0.0009728239429744294,0.006094800719390108,-0.006895808835069488,0.22995233535766602,2019-07-26 12:01:05:145,-47.90127973641013,-68.62175763538187,0,10.645665168762207,23.840293884277344,-74.51966094970703
-0.018458731472492218,-0.22331519424915314,9.814508438110352,0.0025711109035655207,0.004496513953854761,-0.006895808835069488,0.23998785018920898,2019-07-26 12:01:05:155,-43.34794308415026,-70.82470210236235,0,10.645665168762207,23.840293884277344,-74.51966094970703
0.01506776548922062,-0.2568416893482208,9.802534103393555,0.0009728239429744294,0.003697370311012762,-0.01408809927997855,0.24995088577270508,2019-07-26 12:01:05:165,-46.08129119739514,-72.9787343720048,0,10.645665168762207,23.840293884277344,-74.51966094970703
-0.011274481192231178,-0.2855786979198456,9.785771369934082,0.0039030165415116433,0.007693087484925456,-0.009026857335634634,0.25998926162719727,2019-07-26 12:01:05:175,-41.56532185185323,-75.08792780487809,0,10.645665168762207,23.840293884277344,-74.51966094970703
0.05098900943994522,-0.2783944308757782,9.819297790527344,0.0009728239429744294,0.009557755378050028,-0.012489812514443206,0.2699604034423828,2019-07-26 12:01:05:185,-44.33341621193779,-77.15423388222123,0,10.645665168762207,23.840293884277344,-74.51966094970703
0.060568008571863174,-0.2855786979198456,9.771402359008789,-0.0016909875279735602,0.0063611818469793335,-0.012489812514443206,0.2799863815307617,2019-07-26 12:01:05:195,-47.043226098065645,-79.17671628830456,0,10.795604705810547,23.090599060058594,-74.66959381103516
0.08930500596761703,-0.2783944308757782,9.848034858703613,-0.0016909875279735602,0.009824137025787903,-0.009826001238550958,0.28995227813720703,2019-07-26 12:01:05:205,-49.697467773596834,-81.15985041173465,0,10.795604705810547,23.090599060058594,-74.66959381103516
0.11325250566005707,-0.24007844924926758,9.812113761901855,0.005767684434636216,0.008225849740103906,-0.009559619590813083,0.29999661445617676,2019-07-26 12:01:05:215,-52.29493200204623,-83.11187414740563,0,10.795604705810547,23.090599060058594,-74.66959381103516
0.13959474861621857,-0.2448679506778717,9.776191711425781,0.00150558626317146,0.0010335588400647727,-0.005297521549385491,0.3099544048309326,2019-07-26 12:01:05:225,-54.83324977805236,-85.02178230203089,0,10.795604705810547,23.090599060058594,-74.66959381103516
0.18509499728679657,-0.21373620629310608,9.778586387634277,0.0025711109035655207,0.0012999400326725785,-0.004231997299102917,0.3199491500854492,2019-07-26 12:01:05:235,-57.315626320115484,-86.89774662185128,0,10.795604705810547,23.090599060058594,-74.66959381103516
0.16114749014377594,-0.20415720343589783,9.769007682800293,0.0009728239429744294,0.003963751438601987,-0.003965616171513693,0.3299884796142578,2019-07-26 12:01:05:245,-59.75264712049841,-88.73639569291238,0,10.795604705810547,23.090599060058594,-74.66959381103516
0.1707264930009842,-0.218525692820549,9.78098201751709,0.0028374920311547455,0.0018327022878510278,-0.0036992350439244686,0.3399527072906494,2019-07-26 12:01:05:255,-62.138619695318816,-90.53765765800625,0,10.795604705810547,23.090599060058594,-74.66959381103516
0.10367350280284882,-0.18978869915008545,9.807323455810547,-0.0003590817924995654,0.004496513953854761,0.004292199303900919,0.34999608993530273,2019-07-26 12:01:05:265,-64.48626998506847,-92.30452932188253,0,10.795604705810547,23.090599060058594,-74.66959381103516
0.1252262443304062,-0.1873939484357834,9.75224494934082,0.00044006165528668966,0.003697370311012762,0.00802153535022439,0.3599543571472168,2019-07-26 12:01:05:275,-66.78389837045026,-94.03666820368322,0,10.795604705810547,23.090599060058594,-74.66959381103516
0.14917375147342682,-0.21613094210624695,9.826481819152832,0.00310387315874397,0.004762895081443986,0.008287916477813613,0.369976282119751,2019-07-26 12:01:05:285,-69.03350605852421,-95.73248142554012,0,10.795604705810547,23.090599060058594,-74.66959381103516
0.13241049647331238,-0.20894670486450195,9.807323455810547,0.0033702542863331946,0.007160325229747007,0.011484490008884308,0.37995195388793945,2019-07-26 12:01:05:295,-71.24137638963884,-97.39530935148503,0,10.795604705810547,23.090599060058594,-74.66959381103516
0.16114749014377594,-0.2640259563922882,9.785771369934082,0.0025711109035655207,0.0063611818469793335,0.017611257503882427,0.3899822235107422,2019-07-26 12:01:05:305,-73.40126277383827,-99.0179412215038,0,10.795604705810547,23.090599060058594,-74.66959381103516
0.09888400137424469,-0.2448679506778717,9.826481819152832,0.004435778796690093,0.00556203846421166,0.021873355545310016,0.39995694160461426,2019-07-26 12:01:05:315,-75.52482172689538,-100.61151740596965,0,10.795604705810547,23.090599060058594,-74.66959381103516
0.14677900075912476,-0.2903681993484497,9.759428977966309,0.00044006165528668966,0.003430989183423538,0.02080783103495312,0.4099597930908203,2019-07-26 12:01:05:325,-77.59901939628533,-102.16545033095586,0,10.795604705810547,23.090599060058594,-74.66959381103516
0.10846300423145294,-0.2520521879196167,9.778586387634277,0.0033702542863331946,0.004496513953854761,0.025602690291261863,0.4199810028076172,2019-07-26 12:01:05:335,-79.63685930140332,-103.69450722657622,0,10.795604705810547,23.090599060058594,-74.66959381103516
0.14917375147342682,-0.23528894782066345,9.785771369934082,0.0028374920311547455,0.006627562974568559,0.02666821480161876,0.42995357513427734,2019-07-26 12:01:05:345,-81.63036635584238,-105.1946588894992,0,10.795604705810547,23.090599060058594,-74.66959381103516
0.09648925811052322,-0.17781496047973633,9.816903114318848,0.00150558626317146,0.0010335588400647727,0.028266502607451408,0.43999505043029785,2019-07-26 12:01:05:355,-83.58707906230353,-106.67086074024022,0,10.795604705810547,23.090599060058594,-74.66959381103516
0.03422576189041138,-0.22092044353485107,9.828876495361328,0.0033702542863331946,0.00023441540853316294,0.028799263822332558,0.4499523639678955,2019-07-26 12:01:05:365,-85.51147829301384,-108.11357580666268,0,10.795604705810547,23.090599060058594,-74.66959381103516
0.08212075382471085,-0.18978869915008545,9.840849876403809,0.003636635413922419,0.004762895081443986,0.028799263822332558,0.4599494934082031,2019-07-26 12:01:05:375,-87.39436000748886,-109.53124850640533,0,10.795604705810547,23.090599060058594,-74.66959381103516
0.024646764621138573,-0.1873939484357834,9.857613563537598,0.0017719673907606846,0.003963751438601987,0.024004404566023815,0.4699869155883789,2019-07-26 12:01:05:385,-89.24584167677027,-110.91984090200809,0,10.795604705810547,23.090599060058594,-74.66959381103516
0.05577851086854935,-0.165841206908226,9.809718132019043,0.003636635413922419,0.007426706357336231,0.026934597489653933,0.4799528121948242,2019-07-26 12:01:05:395,-91.05856504853094,-112.28410830285476,0,10.795604705810547,23.090599060058594,-74.66959381103516
0.04380476102232933,-0.1730254590511322,9.838455200195312,0.007365971200171563,0.00556203846421166,0.01920954322912047,0.48999547958374023,2019-07-26 12:01:05:405,-92.83542810639413,-113.62242902870986,0,10.795604705810547,23.090599060058594,-74.66959381103516
0.07254175841808319,-0.1610517054796219,9.788166046142578,0.00017368051144281974,0.00556203846421166,0.018410399326204148,0.4999547004699707,2019-07-26 12:01:05:415,-94.57333746638426,-114.93122470319096,0,10.795604705810547,23.090599060058594,-74.66959381103516
0.1180419996380806,-0.17781496047973633,9.80492877960205,0.0033702542863331946,0.007959468612514682,0.017078494208406677,0.5099449157714844,2019-07-26 12:01:05:425,-96.27254050950475,-116.21371154806762,0,10.795604705810547,23.090599060058594,-74.66959381103516
0.04380476102232933,-0.2328941971063614,9.845640182495117,-9.270064052837282e-05,0.00556203846421166,0.01627935030549035,0.5199878215789795,2019-07-26 12:01:05:435,-97.94512785584105,-117.46228397774044,0,10.795604705810547,23.090599060058594,-74.66959381103516
0.04141001030802727,-0.20894670486450195,9.7642183303833,0.00150558626317146,0.00502927620903321,0.012550014519241206,0.5299487113952637,2019-07-26 12:01:05:445,-99.58417839179174,-118.68936241299866,0,10.19584846496582,23.990232467651367,-74.36972045898438
0.0390152633190155,-0.2328941971063614,9.75224494934082,-0.002756512168367621,0.002631845800655864,0.010152584891086835,0.5399999618530273,2019-07-26 12:01:05:455,-101.18939579923635,-119.88665894659249,0,10.19584846496582,23.990232467651367,-74.36972045898438
0.04380476102232933,-0.25444695353507996,9.812113761901855,-0.001158225272795111,0.00023441540853316294,0.01281639616697908,0.5499579906463623,2019-07-26 12:01:05:465,-102.76062321451364,-121.0585690216308,0,10.19584846496582,23.990232467651367,-74.36972045898438
0.0030940165743231773,-0.21134145557880402,9.836060523986816,-0.0032892744235460706,0.002631845800655864,0.008287916477813613,0.5599870681762695,2019-07-26 12:01:05:475,-104.30653236757956,-122.21092754364587,0,10.19584846496582,23.990232467651367,-74.36972045898438
-0.006484982091933489,-0.2328941971063614,9.797744750976562,-0.0014246064003843356,-0.0010974903757047679,0.003226674793544021,0.5699512958526611,2019-07-26 12:01:05:485,-98.6205461497479,-123.33867844348202,0,10.19584846496582,23.990232467651367,-74.36972045898438
0.017462514340877533,-0.24965745210647583,9.848034858703613,-0.002223749913189172,0.0020990834154402524,0.007755154222635165,0.5799963474273682,2019-07-26 12:01:05:495,-100.247287236216,-124.44160674074601,0,10.19584846496582,23.990232467651367,-74.36972045898438
0.0006992669077590108,-0.22810469567775726,9.874377250671387,-0.002223749913189172,-0.0010974903757047679,0.005357724074332143,0.5899503231048584,2019-07-26 12:01:05:505,-101.8416469388316,-125.52506501348466,0,10.19584846496582,23.990232467651367,-74.36972045898438
-0.06156422570347786,-0.24247319996356964,9.86240291595459,0.0012392051355822353,0.0018327022878510278,0.00748877309504594,0.5999720096588135,2019-07-26 12:01:05:515,-96.21299836474586,-126.58709367380025,0,10.19584846496582,23.990232467651367,-74.36972045898438
-0.04719572514295578,-0.2448679506778717,9.819297790527344,0.0023047297759762964,0.000767177712475548,0.006423248584689041,0.6099503040313721,2019-07-26 12:01:05:525,-90.69467594739838,-127.62807283734432,0,10.19584846496582,23.990232467651367,-74.36972045898438
-0.0783274695277214,-0.2520521879196167,9.75224494934082,-0.0006254629525980806,0.0020990834154402524,0.0056241052019213676,0.6199767589569092,2019-07-26 12:01:05:535,-85.29116767408657,-128.6455490219122,0,10.19584846496582,23.990232467651367,-74.36972045898438
-0.056774724274873734,-0.2448679506778717,9.85042953491211,0.0025711109035655207,0.004496513953854761,-0.0013018046355471218,0.6299972534179688,2019-07-26 12:01:05:545,-79.99447889918642,-129.64560467629823,0,10.19584846496582,23.990232467651367,-74.36972045898438
-0.13580146431922913,-0.23768369853496552,9.831271171569824,0.00044006165528668966,0.0031646080558343135,-0.0023673291459040203,0.6399495601654053,2019-07-26 12:01:05:555,-74.81218554161636,-130.62523990224926,0,10.19584846496582,23.990232467651367,-74.36972045898438
-0.11424871534109116,-0.23049944639205933,9.871981620788574,0.00044006165528668966,0.003697370311012762,-0.007961333345426386,0.6499767303466797,2019-07-26 12:01:05:565,-69.73128466058068,-131.58623191562265,0,10.19584846496582,23.990232467651367,-74.36972045898438
-0.07353797554969788,-0.24247319996356964,9.807323455810547,-0.0014246064003843356,0.0012999400326725785,-0.009826001238550958,0.6599841117858887,2019-07-26 12:01:05:575,-64.74598164608054,-132.52538128387005,0,10.19584846496582,23.990232467651367,-74.36972045898438
-0.04719572514295578,-0.24247319996356964,9.843245506286621,-0.0048875611890814175,-0.0002983468954092222,-0.009826001238550958,0.6699531078338623,2019-07-26 12:01:05:585,-59.85638932732028,-133.44391564888312,0,10.19584846496582,23.990232467651367,-74.36972045898438
-0.07114322483539581,-0.2855786979198456,9.838455200195312,-0.005953085699438316,0.008758612515431006,-0.010358763493729408,0.6799945831298828,2019-07-26 12:01:05:595,-55.07248601618568,-134.3384279172256,0,10.19584846496582,23.990232467651367,-74.36972045898438
-0.016063980758190155,-0.2448679506778717,9.795350074768066,0.0012392051355822353,-0.0002983468954092222,-0.01621914830069235,0.690199613571167,2019-07-26 12:01:05:605,-50.37274459365331,-135.22372936081766,0,10.19584846496582,23.990232467651367,-74.36972045898438
-0.032827228307724,-0.2783944308757782,9.836060523986816,0.00017368051144281974,0.004496513953854761,-0.015153623790335451,0.6999509334564209,2019-07-26 12:01:05:615,-45.77157610825003,-136.086925163571,0,10.19584846496582,23.990232467651367,-74.36972045898438
0.01506776548922062,-0.3095261752605438,9.790560722351074,-0.0003590817924995654,0.002365464673066639,-0.0156863860455139,0.7099785804748535,2019-07-26 12:01:05:625,-48.45571288983955,-136.92876870126753,0,10.19584846496582,23.990232467651367,-74.36972045898438
0.007883516140282154,-0.2640259563922882,9.826481819152832,0.0007064428153852049,0.002365464673066639,-0.017817436106524996,0.7199606895446777,2019-07-26 12:01:05:635,-51.08700512458646,-137.7598072923393,0,10.19584846496582,23.990232467651367,-74.36972045898438
0.06296275556087494,-0.23768369853496552,9.871981620788574,0.0023047297759762964,0.00023441540853316294,-0.018882960616881897,0.7299926280975342,2019-07-26 12:01:05:645,-53.65808860214815,-138.57832496653097,0,10.19584846496582,23.990232467651367,-74.36972045898438
0.06775225698947906,-0.28078919649124146,9.845640182495117,0.002038348518349909,0.002631845800655864,-0.02101400963759569,0.7399649620056152,2019-07-26 12:01:05:655,-56.178515085888705,-139.3752281586587,0,10.19584846496582,23.990232467651367,-74.36972045898438
0.07972601056098938,-0.2783944308757782,9.824087142944336,0.0007064428153852049,0.0028982269282450887,-0.02048124634211994,0.7499856948852539,2019-07-26 12:01:05:665,-58.64727619442901,-140.15565688094196,0,10.19584846496582,23.990232467651367,-74.36972045898438
0.05817325785756111,-0.26163119077682495,9.82169246673584,0.00017368051144281974,0.003430989183423538,-0.02714077609229651,0.7599632740020752,2019-07-26 12:01:05:675,-61.06946574135847,-140.92212325306815,0,10.19584846496582,23.990232467651367,-74.36972045898438
0.03422576189041138,-0.16823595762252808,9.845640182495117,-0.001158225272795111,-0.0029621583988665027,-0.023411439265750063,0.7699832916259766,2019-07-26 12:01:05:685,-63.44242639302129,-141.6834503821404,0,10.19584846496582,23.990232467651367,-74.36972045898438
0.0294362623244524,-0.2855786979198456,9.919877052307129,0.0025711109035655207,0.002631845800655864,-0.02261229536283374,0.7799773216247559,2019-07-26 12:01:05:695,-65.7716543786079,-142.41824406933173,0,11.095481872558594,23.990232467651367,-75.26935577392578
0.01267301570624113,-0.20415720343589783,9.824087142944336,-0.0006254629525980806,0.0005007965523770329,-0.024210583168666384,0.7899668216705322,2019-07-26 12:01:05:705,-68.05502396868648,-143.14571818313655,0,11.095481872558594,23.990232467651367,-75.26935577392578
0.08930500596761703,-0.24965745210647583,9.893534660339355,-0.002223749913189172,0.0028982269282450887,-0.02261229536283374,0.7999856472015381,2019-07-26 12:01:05:715,-70.28521045960431,-143.85264247460327,0,11.095481872558594,23.990232467651367,-75.26935577392578
0.09409450739622116,-0.15865695476531982,9.749850273132324,0.004702159924279317,0.00849223086769313,-0.025808868893904435,0.8099639415740967,2019-07-26 12:01:05:725,-72.47320554090072,-144.55957858917475,0,11.095481872558594,23.990232467651367,-75.26935577392578
0.12762099504470825,-0.1993677020072937,9.907903671264648,-0.0003590817924995654,0.004230132566191211,-0.021546770852476842,0.8199944496154785,2019-07-26 12:01:05:735,-74.6113644812574,-145.24512967618702,0,11.095481872558594,23.990232467651367,-75.26935577392578
0.065357506275177,-0.19697295129299164,9.843245506286621,-0.0006254629525980806,0.0012999400326725785,-0.02101400963759569,0.8299627304077148,2019-07-26 12:01:05:745,-76.71225621462935,-145.9169491705347,0,11.095481872558594,23.990232467651367,-75.26935577392578
-0.0040902323089540005,-0.17781496047973633,9.769007682800293,-0.002756512168367621,0.005295657336622434,-0.019415721831763044,0.8399817943572998,2019-07-26 12:01:05:755,-71.58147005222173,-146.57620386675453,0,11.095481872558594,23.990232467651367,-75.26935577392578
0.10127875208854675,-0.2065519541501999,9.704349517822266,-0.001158225272795111,0.005295657336622434,-0.02048124634211994,0.8499646186828613,2019-07-26 12:01:05:765,-73.74085021615483,-147.21964403853997,0,11.095481872558594,23.990232467651367,-75.26935577392578
0.065357506275177,-0.1993677020072937,9.75224494934082,0.004968541051868542,0.004230132566191211,-0.018882960616881897,0.8599786758422852,2019-07-26 12:01:05:775,-75.86073219270547,-147.85462191814207,0,11.095481872558594,23.990232467651367,-75.26935577392578
0.1180419996380806,-0.20894670486450195,9.79295539855957,0.0023047297759762964,0.005828419591800884,-0.017284672811049246,0.8699676990509033,2019-07-26 12:01:05:785,-77.9329746759245,-148.47437612359755,0,11.095481872558594,23.990232467651367,-75.26935577392578
0.23777948319911957,-0.15626220405101776,9.754639625549316,0.00949702074103401,0.007693087484925456,-0.015420005438073325,0.8799753189086914,2019-07-26 12:01:05:795,-79.95071077862781,-149.09187006764253,0,11.095481872558594,23.990232467651367,-75.26935577392578
0.18509499728679657,-0.1275252103805542,9.71392822265625,0.009763401348474586,0.005295657336622434,-0.014354480927716426,0.889976978302002,2019-07-26 12:01:05:805,-81.93283824197047,-149.70047290711202,0,11.095481872558594,23.990232467651367,-75.26935577392578
0.19946348667144775,-0.1730254590511322,9.733086585998535,-0.0003590817924995654,0.0031646080558343135,-0.010625145141467283,0.8999738693237305,2019-07-26 12:01:05:815,-83.87247749270196,-150.28589304716326,0,11.095481872558594,23.990232467651367,-75.26935577392578
0.12283150106668472,-0.25444695353507996,9.783376693725586,0.0023047297759762964,0.0063611818469793335,-0.009559619590813083,0.9099700450897217,2019-07-26 12:01:05:825,-85.78421201616919,-150.85167243383194,0,11.095481872558594,23.990232467651367,-75.26935577392578
0.13480524718761444,-0.218525692820549,9.790560722351074,-0.0038220366787245193,0.0028982269282450887,-0.0071621899626587125,0.9199669361114502,2019-07-26 12:01:05:835,-87.6543776206844,-151.4069209498738,0,11.095481872558594,23.990232467651367,-75.26935577392578
0.13959474861621857,-0.2568416893482208,9.860008239746094,-0.003555655551135295,0.00023441540853316294,-0.013022574769621653,0.9299614429473877,2019-07-26 12:01:05:845,-89.48519920826966,-151.94694411884507,0,11.095481872558594,23.990232467651367,-75.26935577392578
0.09888400137424469,-0.19697295129299164,9.809718132019043,-9.270064052837282e-05,0.006893944102157782,-0.007694952217837162,0.9399826526641846,2019-07-26 12:01:05:855,-91.2878236979491,-152.4849469042249,0,11.095481872558594,23.990232467651367,-75.26935577392578
0.13959474861621857,-0.21134145557880402,9.766613006591797,0.00017368051144281974,0.002631845800655864,-0.003965616171513693,0.9499638080596924,2019-07-26 12:01:05:865,-93.0471646962782,-153.01055250414691,0,11.095481872558594,23.990232467651367,-75.26935577392578
0.163542240858078,-0.24007844924926758,9.788166046142578,-0.004354798933902968,0.0028982269282450887,-0.004498378166617817,0.9599847793579102,2019-07-26 12:01:05:875,-94.76870780631138,-153.5197903948812,0,11.095481872558594,23.990232467651367,-75.26935577392578
0.08930500596761703,-0.22331519424915314,9.778586387634277,-0.0032892744235460706,0.004496513953854761,-0.004764759294207041,0.9699757099151611,2019-07-26 12:01:05:885,-96.46539112154517,-154.02138442312923,0,11.095481872558594,23.990232467651367,-75.26935577392578
0.15156850218772888,-0.22092044353485107,9.869586944580078,-0.0024901310407783963,0.004230132566191211,-0.0029000914010824694,0.9799768924713135,2019-07-26 12:01:05:895,-98.12086220543566,-154.513912517553,0,11.095481872558594,23.990232467651367,-75.26935577392578
0.1371999979019165,-0.21134145557880402,9.83366584777832,-0.0016909875279735602,0.006627562974568559,-0.0015681857631363464,0.9899773597717285,2019-07-26 12:01:05:905,-99.74617964514647,-154.99806093855588,0,11.095481872558594,23.990232467651367,-75.26935577392578
0.13480524718761444,-0.16344645619392395,9.819297790527344,-0.0008918440801873052,0.00023441540853316294,-0.0021009480183147955,0.9999732971191406,2019-07-26 12:01:05:915,-101.33565679001973,-155.47852665500628,0,11.095481872558594,23.990232467651367,-75.26935577392578
0.14917375147342682,-0.20176245272159576,9.86240291595459,-0.007018610209795215,0.003697370311012762,0.001628387897971511,1.0099833011627197,2019-07-26 12:01:05:925,-102.89369057763636,-155.94157166823248,0,11.095481872558594,23.990232467651367,-75.26935577392578
0.12043675035238266,-0.2257099449634552,9.80492877960205,-0.0030228932959568454,0.007693087484925456,0.003493055921133246,1.0199663639068604,2019-07-26 12:01:05:935,-104.42605420614193,-156.39467138386956,0,11.095481872558594,23.990232467651367,-75.26935577392578
0.08451550453901291,-0.2448679506778717,9.79295539855957,0.00150558626317146,0.000767177712475548,0.0021611501531499603,1.0299830436706543,2019-07-26 12:01:05:945,-105.92807533467725,-156.83897767413214,0,11.245421409606934,24.739927291870117,-73.9198989868164
0.1180419996380806,-0.22092044353485107,9.910298347473145,-0.0024901310407783963,0.0018327022878510278,0.007222391967456715,1.0399577617645264,2019-07-26 12:01:05:955,-107.39689188057498,-157.27526292172348,0,11.245421409606934,24.739927291870117,-73.9198989868164
0.10606825351715088,-0.21373620629310608,9.769007682800293,-0.002223749913189172,0.00502927620903321,0.001628387897971511,1.0499851703643799,2019-07-26 12:01:05:965,-108.8393442781436,-157.70343811033538,0,11.245421409606934,24.739927291870117,-73.9198989868164
0.12283150106668472,-0.2328941971063614,9.769007682800293,-0.0014246064003843356,0.0012999400326725785,0.005091342946742919,1.0599758625030518,2019-07-26 12:01:05:975,-110.24887911371944,-158.12125660060164,0,11.245421409606934,24.739927291870117,-73.9198989868164
0.13001574575901031,-0.24726270139217377,9.864797592163086,-0.0030228932959568454,0.004230132566191211,0.00988620324334896,1.0699756145477295,2019-07-26 12:01:05:985,-111.63117465875425,-158.5284176187436,0,11.245421409606934,24.739927291870117,-73.9198989868164
0.07733125984668732,-0.24007844924926758,9.7642183303833,-0.0019573686555627847,0.003430989183423538,0.006156867457099816,1.0799839496612549,2019-07-26 12:01:05:995,-112.99140396371753,-158.92857968080264,0,11.245421409606934,24.739927291870117,-73.9198989868164
0.1371999979019165,-0.25444695353507996,9.783376693725586,-0.001158225272795111,0.006627562974568559,0.015213825795133452,1.0899744033813477,2019-07-26 12:01:06:005,-114.31922467589274,-159.31956200598063,0,11.245421409606934,24.739927291870117,-73.9198989868164
0.17312124371528625,-0.21613094210624695,9.83366584777832,-9.270064052837282e-05,0.0005007965523770329,0.010152584891086835,1.0999858379364014,2019-07-26 12:01:06:015,-115.61294999200868,-159.7079370033906,0,11.245421409606934,24.739927291870117,-73.9198989868164
0.12762099504470825,-0.22092044353485107,9.785771369934082,0.00017368051144281974,0.00556203846421166,0.009087060380729938,1.1099798679351807,2019-07-26 12:01:06:025,-116.88886861037578,-160.0880102963442,0,11.245421409606934,24.739927291870117,-73.9198989868164
0.1252262443304062,-0.23768369853496552,9.840849876403809,0.002038348518349909,0.0063611818469793335,0.014681063539955002,1.119978427886963,2019-07-26 12:01:06:035,-118.1400813634067,-160.45972280971023,0,11.245421409606934,24.739927291870117,-73.9198989868164
0.12043675035238266,-0.25444695353507996,9.831271171569824,-0.0003590817924995654,0.007426706357336231,0.014947445187692877,1.1299798488616943,2019-07-26 12:01:06:045,-119.36741322163739,-160.8206754331927,0,11.245421409606934,24.739927291870117,-73.9198989868164
0.12762099504470825,-0.25444695353507996,9.848034858703613,-0.0024901310407783963,0.0020990834154402524,0.013082776774419656,1.139974594116211,2019-07-26 12:01:06:055,-120.56639384518589,-161.17326363733335,0,11.245421409606934,24.739927291870117,-73.9198989868164
0.110857754945755,-0.20176245272159576,9.809718132019043,-0.0024901310407783963,-0.001630252630883217,0.016012969698049776,1.1499865055084229,2019-07-26 12:01:06:065,-121.74120027083805,-161.52483307201422,0,11.245421409606934,24.739927291870117,-73.9198989868164
0.05577851086854935,-0.20894670486450195,9.761823654174805,0.0009728239429744294,0.006627562974568559,0.015480207442871327,1.1599655151367188,2019-07-26 12:01:06:075,-122.90354219580217,-161.87035752713368,0,12.145054817199707,23.840293884277344,-73.9198989868164
0.07733125984668732,-0.20415720343589783,9.740270614624023,0.0009728239429744294,0.0020990834154402524,0.017078494208406677,1.16998291015625,2019-07-26 12:01:06:085,-124.03755441935431,-162.20948255862066,0,12.145054817199707,23.840293884277344,-73.9198989868164
0.06296275556087494,-0.1921834498643875,9.783376693725586,-9.270064052837282e-05,0.0028982269282450887,0.011218109401443733,1.179976463317871,2019-07-26 12:01:06:095,-125.15105497943577,-162.54273355940362,0,12.145054817199707,23.840293884277344,-73.9198989868164
0.065357506275177,-0.26881542801856995,9.831271171569824,-0.0032892744235460706,0.009557755378050028,0.011484490008884308,1.189981460571289,2019-07-26 12:01:06:105,-126.2457853851598,-162.85870619596034,0,12.145054817199707,23.840293884277344,-73.9198989868164
0.05577851086854935,-0.2520521879196167,9.802534103393555,-0.0008918440801873052,0.009291374770609455,0.01095172775370586,1.1999766826629639,2019-07-26 12:01:06:115,-127.31956384519822,-163.171573148978,0,12.145054817199707,23.840293884277344,-73.9198989868164
0.048594262450933456,-0.2448679506778717,9.85042953491211,-0.0008918440801873052,0.0005007965523770329,0.011218109401443733,1.2099664211273193,2019-07-26 12:01:06:125,-128.36780047703076,-163.47916143144315,0,12.145054817199707,23.840293884277344,-73.9198989868164
0.06296275556087494,-0.21134145557880402,9.83366584777832,-0.0032892744235460706,0.0028982269282450887,0.009353440988170512,1.219984531402588,2019-07-26 12:01:06:135,-129.39473782504342,-163.78310413779226,0,12.145054817199707,23.840293884277344,-73.9198989868164
0.05577851086854935,-0.2783944308757782,9.797744750976562,0.0025711109035655207,0.004762895081443986,0.012283633911800632,1.2299623489379883,2019-07-26 12:01:06:145,-130.40298787413096,-164.07633108730008,0,12.145054817199707,23.840293884277344,-73.9198989868164
0.07733125984668732,-0.2712101936340332,9.886350631713867,0.00044006165528668966,0.0020990834154402524,0.0056241052019213676,1.240023136138916,2019-07-26 12:01:06:155,-131.38715071865485,-164.36362528051248,0,12.145054817199707,23.840293884277344,-73.9198989868164
0.08212075382471085,-0.2664206922054291,9.867192268371582,0.002038348518349909,0.0012999400326725785,0.00748877309504594,1.249971628189087,2019-07-26 12:01:06:165,-132.35059707539185,-164.64655844927907,0,12.145054817199707,23.840293884277344,-73.9198989868164
0.060568008571863174,-0.24007844924926758,9.75224494934082,-0.0032892744235460706,0.007959468612514682,0.004558580691564469,1.259969711303711,2019-07-26 12:01:06:175,-133.30093669197467,-164.92357653010316,0,12.145054817199707,23.840293884277344,-73.9198989868164
0.08212075382471085,-0.28078919649124146,9.857613563537598,-0.0030228932959568454,0.006094800719390108,0.007222391967456715,1.2699859142303467,2019-07-26 12:01:06:185,-134.2287996751141,-165.1907728894522,0,12.145054817199707,23.840293884277344,-73.9198989868164
0.10367350280284882,-0.2831839323043823,9.80492877960205,0.00017368051144281974,0.003963751438601987,0.010152584891086835,1.2799608707427979,2019-07-26 12:01:06:195,-135.1343277346937,-165.45396780874694,0,10.795604705810547,23.090599060058594,-74.06983947753906
0.08212075382471085,-0.2592364549636841,9.778586387634277,0.002038348518349909,0.003963751438601987,0.004824961819153694,1.289987564086914,2019-07-26 12:01:06:205,-136.02424956739912,-165.71566421090387,0,10.795604705810547,23.090599060058594,-74.06983947753906
0.10127875208854675,-0.2736049294471741,9.797744750976562,-0.0006254629525980806,0.0031646080558343135,0.007755154222635165,1.2999656200408936,2019-07-26 12:01:06:215,-136.89369275491396,-165.96900878209405,0,10.795604705810547,23.090599060058594,-74.06983947753906
0.11564724892377853,-0.2831839323043823,9.80492877960205,0.004435778796690093,0.00902499312287158,0.01095172775370586,1.3099629878997803,2019-07-26 12:01:06:225,-137.74736986007764,-166.21903173456778,0,10.795604705810547,23.090599060058594,-74.06983947753906
0.1180419996380806,-0.21373620629310608,9.881561279296875,0.0017719673907606846,0.004496513953854761,0.002693912538365572,1.3199455738067627,2019-07-26 12:01:06:235,-138.58125475921716,-166.47086226235234,0,10.795604705810547,23.090599060058594,-74.06983947753906
0.07254175841808319,-0.23049944639205933,9.802534103393555,-0.0008918440801873052,0.003697370311012762,0.006156867457099816,1.3299839496612549,2019-07-26 12:01:06:245,-139.40323372754403,-166.7140019206131,0,10.795604705810547,23.090599060058594,-74.06983947753906
0.07014700770378113,-0.26163119077682495,9.874377250671387,0.0012392051355822353,0.00556203846421166,0.001628387897971511,1.3399603366851807,2019-07-26 12:01:06:255,-140.2101443740394,-166.95006100966035,0,10.795604705810547,23.090599060058594,-74.06983947753906
0.07972601056098938,-0.15865695476531982,9.826481819152832,0.0017719673907606846,0.003697370311012762,0.0037594370487224705,1.349994421005249,2019-07-26 12:01:06:265,-140.99872758301848,-167.19355795802704,0,10.795604705810547,23.090599060058594,-74.06983947753906
0.03422576189041138,-0.2257099449634552,9.747454643249512,-0.005153942316670643,0.002631845800655864,-0.0029000914010824694,1.359964370727539,2019-07-26 12:01:06:275,-141.77620278746528,-167.42027173181904,0,10.795604705810547,23.090599060058594,-74.06983947753906
0.05577851086854935,-0.18499919772148132,9.797744750976562,0.0007064428153852049,0.0028982269282450887,0.0029602936659547966,1.3699610233306885,2019-07-26 12:01:06:285,-142.53578191632258,-167.6506284364208,0,10.795604705810547,23.090599060058594,-74.06983947753906
0.05098900943994522,-0.21134145557880402,9.836060523986816,-0.001158225272795111,0.0010335588400647727,-0.0021009480183147955,1.3799612522125244,2019-07-26 12:01:06:295,-143.27970639140165,-167.8723477068494,0,10.795604705810547,23.090599060058594,-74.06983947753906
0.048594262450933456,-0.19697295129299164,9.845640182495117,0.00044006165528668966,0.004762895081443986,-0.0026337102734932446,1.389979600906372,2019-07-26 12:01:06:305,-144.01113578066213,-168.09222604568336,0,10.795604705810547,23.090599060058594,-74.06983947753906
0.02225201390683651,-0.2592364549636841,9.907903671264648,-0.0032892744235460706,-3.1965737342537616e-05,-0.008227714473015612,1.3999619483947754,2019-07-26 12:01:06:315,-144.7283215575133,-168.29856226422643,0,10.795604705810547,23.090599060058594,-74.06983947753906
0.05817325785756111,-0.23528894782066345,9.790560722351074,-9.270064052837282e-05,0.0005007965523770329,-0.007961333345426386,1.4099805355072021,2019-07-26 12:01:06:325,-145.42722815910633,-168.50500527066404,0,12.894749641418457,23.990232467651367,-73.76996612548828
0.0294362623244524,-0.24247319996356964,9.816903114318848,-0.0024901310407783963,0.0010335588400647727,-0.004764759294207041,1.419975996017456,2019-07-26 12:01:06:335,-146.11582762427165,-168.70520973604718,0,12.894749641418457,23.990232467651367,-73.76996612548828
0.07733125984668732,-0.1993677020072937,9.769007682800293,-0.0032892744235460706,0.005828419591800884,-0.0071621899626587125,1.4299752712249756,2019-07-26 12:01:06:345,-146.78771262995238,-168.90587594227043,0,12.894749641418457,23.990232467651367,-73.76996612548828
0.12762099504470825,-0.24965745210647583,9.783376693725586,-0.004354798933902968,0.00502927620903321,-0.0071621899626587125,1.439974069595337,2019-07-26 12:01:06:355,-147.4398347180973,-169.0960777600878,0,12.894749641418457,23.990232467651367,-73.76996612548828
0.06296275556087494,-0.24726270139217377,9.824087142944336,-0.005686704571849092,0.003697370311012762,-0.006096665452301814,1.4499750137329102,2019-07-26 12:01:06:365,-148.08577019455853,-169.2821273355134,0,12.894749641418457,23.990232467651367,-73.76996612548828
0.05098900943994522,-0.20176245272159576,9.80492877960205,-0.0048875611890814175,0.003963751438601987,-0.0031664725286716937,1.4599764347076416,2019-07-26 12:01:06:375,-148.72032164561284,-169.47016311034804,0,12.894749641418457,23.990232467651367,-73.76996612548828
0.031831011176109314,-0.2640259563922882,9.733086585998535,-0.0014246064003843356,-0.0002983468954092222,-0.003965616171513693,1.469985008239746,2019-07-26 12:01:06:385,-149.34199996756706,-169.64888202695522,0,12.894749641418457,23.990232467651367,-73.76996612548828
0.01267301570624113,-0.22331519424915314,9.826481819152832,-0.0048875611890814175,0.0018327022878510278,-0.0029000914010824694,1.479978322982788,2019-07-26 12:01:06:395,-149.95471047666376,-169.8271244332241,0,12.894749641418457,23.990232467651367,-73.76996612548828
0.03422576189041138,-0.25444695353507996,9.819297790527344,-0.002223749913189172,0.0063611818469793335,-0.00023628007642628753,1.489978551864624,2019-07-26 12:01:06:405,-150.55519400126354,-169.99964587592285,0,12.894749641418457,23.990232467651367,-73.76996612548828
0.03662051260471344,-0.20176245272159576,9.888745307922363,-0.0032892744235460706,0.0010335588400647727,-0.005297521549385491,1.4999806880950928,2019-07-26 12:01:06:415,-151.1404269926672,-170.17442849245484,0,12.894749641418457,23.990232467651367,-73.76996612548828
0.017462514340877533,-0.2736049294471741,9.843245506286621,0.00150558626317146,0.006627562974568559,-0.0007690423803686727,1.5099644660949707,2019-07-26 12:01:06:425,-151.7193008619997,-170.33994002376699,0,12.894749641418457,23.990232467651367,-73.76996612548828
0.027041513472795486,-0.27599969506263733,9.82169246673584,-0.002756512168367621,0.00556203846421166,0.0024275314107763475,1.519981861114502,2019-07-26 12:01:06:435,-152.2848883774136,-170.49939781446506,0,12.894749641418457,23.990232467651367,-73.76996612548828
0.031831011176109314,-0.2592364549636841,9.855218887329102,-0.0006254629525980806,-0.0013638715032939924,0.0018947690255607357,1.5299673080444336,2019-07-26 12:01:06:445,-152.83472477436362,-170.6589234027965,0,11.395359992980957,24.290109634399414,-74.66959381103516
0.07733125984668732,-0.25444695353507996,9.740270614624023,-0.0038220366787245193,0.003963751438601987,0.002693912538365572,1.5399830341339111,2019-07-26 12:01:06:455,-153.37116180473163,-170.81366732576194,0,11.395359992980957,24.290109634399414,-74.66959381103516
0.05098900943994522,-0.2448679506778717,9.757034301757812,0.00150558626317146,0.005295657336622434,0.003226674793544021,1.5499603748321533,2019-07-26 12:01:06:465,-153.90071698193054,-170.9694849498,0,11.395359992980957,24.290109634399414,-74.66959381103516
0.04619951173663139,-0.26881542801856995,9.816903114318848,0.0012392051355822353,0.0063611818469793335,0.002693912538365572,1.559981346130371,2019-07-26 12:01:06:475,-154.42088915273635,-171.1194218515423,0,11.395359992980957,24.290109634399414,-74.66959381103516
0.08930500596761703,-0.2927629351615906,9.812113761901855,-0.002756512168367621,0.0020990834154402524,0.00802153535022439,1.5699670314788818,2019-07-26 12:01:06:485,-154.9232190460797,-171.26130743815142,0,11.395359992980957,24.290109634399414,-74.66959381103516
0.0916997566819191,-0.2712101936340332,9.737875938415527,-0.0006254629525980806,0.0063611818469793335,0.0013620067703822866,1.5799853801727295,2019-07-26 12:01:06:495,-155.41754246001273,-171.40382272951564,0,11.395359992980957,24.290109634399414,-74.66959381103516
0.08691025525331497,-0.2520521879196167,9.802534103393555,0.00017368051144281974,0.004496513953854761,0.0018947690255607357,1.589975357055664,2019-07-26 12:01:06:505,-155.90155432974845,-171.54638530546072,0,11.395359992980957,24.290109634399414,-74.66959381103516
0.07733125984668732,-0.27599969506263733,9.797744750976562,0.0025711109035655207,0.0018327022878510278,0.0024275314107763475,1.5999724864959717,2019-07-26 12:01:06:515,-156.37550775726322,-171.68462927692036,0,11.395359992980957,24.290109634399414,-74.66959381103516
0.07254175841808319,-0.22092044353485107,9.788166046142578,0.00017368051144281974,0.000767177712475548,0.0029602936659547966,1.609982967376709,2019-07-26 12:01:06:525,-156.83993640356402,-171.82517521066737,0,11.395359992980957,24.290109634399414,-74.66959381103516
0.08451550453901291,-0.2664206922054291,9.82169246673584,0.0012392051355822353,0.00502927620903321,0.001628387897971511,1.6199772357940674,2019-07-26 12:01:06:535,-157.29609964696056,-171.95829092993085,0,11.395359992980957,24.290109634399414,-74.66959381103516
0.048594262450933456,-0.2257099449634552,9.836060523986816,-0.0003590817924995654,0.0018327022878510278,0.0024275314107763475,1.629988193511963,2019-07-26 12:01:06:545,-157.74554658413064,-172.0926323382924,0,11.395359992980957,24.290109634399414,-74.66959381103516
0.08451550453901291,-0.23768369853496552,9.816903114318848,0.0009728239429744294,0.003697370311012762,0.00802153535022439,1.6399879455566406,2019-07-26 12:01:06:555,-158.18284651734203,-172.223586797282,0,11.395359992980957,24.290109634399414,-74.66959381103516
0.07972601056098938,-0.22331519424915314,9.874377250671387,0.0007064428153852049,-3.1965737342537616e-05,0.004292199303900919,1.6499831676483154,2019-07-26 12:01:06:565,-158.60991969192207,-172.35360036036172,0,11.395359992980957,24.290109634399414,-74.66959381103516
0.04619951173663139,-0.21373620629310608,9.7642183303833,0.00150558626317146,0.003963751438601987,0.0021611501531499603,1.6599791049957275,2019-07-26 12:01:06:575,-159.03452416253958,-172.48229360457444,0,11.095481872558594,23.39047622680664,-74.36972045898438
0.053383760154247284,-0.24247319996356964,9.795350074768066,-0.0016909875279735602,0.006094800719390108,0.005357724074332143,1.6699855327606201,2019-07-26 12:01:06:585,-159.4510130282093,-172.60333753691236,0,11.095481872558594,23.39047622680664,-74.36972045898438
0.04380476102232933,-0.22810469567775726,9.800139427185059,0.0023047297759762964,0.0010335588400647727,0.00748877309504594,1.6799490451812744,2019-07-26 12:01:06:595,-159.85744900116902,-172.72589304232648,0,11.095481872558594,23.39047622680664,-74.36972045898438
0.10127875208854675,-0.2257099449634552,9.790560722351074,0.0041693976691008685,0.007959468612514682,0.0037594370487224705,1.6899683475494385,2019-07-26 12:01:06:605,-160.25292434286553,-172.8473077443235,0,11.095481872558594,23.39047622680664,-74.36972045898438
0.06296275556087494,-0.23768369853496552,9.807323455810547,0.0041693976691008685,0.004762895081443986,0.002693912538365572,1.6999413967132568,2019-07-26 12:01:06:615,-160.64317636097283,-172.96493018645253,0,11.095481872558594,23.39047622680664,-74.36972045898438
0.05098900943994522,-0.2592364549636841,9.828876495361328,0.0028374920311547455,0.0031646080558343135,-0.00023628007642628753,1.7099673748016357,2019-07-26 12:01:06:625,-161.02614978951027,-173.0770124701554,0,11.095481872558594,23.39047622680664,-74.36972045898438
0.09409450739622116,-0.1993677020072937,9.852824211120605,-0.0006254629525980806,0.002631845800655864,0.004025818176311695,1.719961404800415,2019-07-26 12:01:06:635,-161.3961605239009,-173.191937283633,0,11.095481872558594,23.39047622680664,-74.36972045898438
0.07733125984668732,-0.21613094210624695,9.773797035217285,-0.0003590817924995654,0.009557755378050028,-0.0013018046355471218,1.7299668788909912,2019-07-26 12:01:06:645,-161.76454050823054,-173.30256095338387,0,11.095481872558594,23.39047622680664,-74.36972045898438
0.04619951173663139,-0.22092044353485107,9.790560722351074,0.00017368051144281974,-0.0013638715032939924,-0.0013018046355471218,1.739962100982666,2019-07-26 12:01:06:655,-162.123076967411,-173.41075442753572,0,11.095481872558594,23.39047622680664,-74.36972045898438
0.07014700770378113,-0.2257099449634552,9.814508438110352,-0.002756512168367621,0.0010335588400647727,-0.0029000914010824694,1.7499687671661377,2019-07-26 12:01:06:665,-162.47300612044404,-173.51464188819406,0,11.095481872558594,23.39047622680664,-74.36972045898438
0.04619951173663139,-0.19457820057868958,9.802534103393555,0.0009728239429744294,-0.0029621583988665027,-0.00023628007642628753,1.7599608898162842,2019-07-26 12:01:06:675,-162.81648338043556,-173.6221516673738,0,11.095481872558594,23.39047622680664,-74.36972045898438
0.017462514340877533,-0.218525692820549,9.80492877960205,0.0007064428153852049,0.002365464673066639,-0.0023673291459040203,1.7699713706970215,2019-07-26 12:01:06:685,-163.15944244404773,-173.7245705438542,0,11.095481872558594,23.39047622680664,-74.36972045898438
0.04619951173663139,-0.20894670486450195,9.706744194030762,0.0017719673907606846,0.004230132566191211,-0.004231997299102917,1.7799620628356934,2019-07-26 12:01:06:695,-163.49317262294355,-173.82641007321362,0,10.94554328918457,24.440048217773438,-74.81953430175781
0.04141001030802727,-0.17542020976543427,9.800139427185059,-0.0008918440801873052,-0.0002983468954092222,-0.007428571090247938,1.789961814880371,2019-07-26 12:01:06:705,-163.81829967174306,-173.9288716833909,0,10.94554328918457,24.440048217773438,-74.81953430175781
0.0006992669077590108,-0.17542020976543427,9.80492877960205,-0.0008918440801873052,0.002631845800655864,-0.005563903197123366,1.7999622821807861,2019-07-26 12:01:06:715,-164.14332980090984,-174.0292940415232,0,10.94554328918457,24.440048217773438,-74.81953430175781
0.03422576189041138,-0.2257099449634552,9.831271171569824,0.00017368051144281974,0.0005007965523770329,-0.007694952217837162,1.8099677562713623,2019-07-26 12:01:06:725,-164.45675527721053,-174.12250200402107,0,10.94554328918457,24.440048217773438,-74.81953430175781
-0.0016954827588051558,-0.23768369853496552,9.836060523986816,-0.003555655551135295,0.002631845800655864,-0.007694952217837162,1.819962739944458,2019-07-26 12:01:06:735,-157.569294734446,-174.21037135531188,0,10.94554328918457,24.440048217773438,-74.81953430175781
0.024646764621138573,-0.24007844924926758,9.757034301757812,-0.006485847954616764,-0.0002983468954092222,-0.005031140421796266,1.830003023147583,2019-07-26 12:01:06:745,-158.01484600867752,-174.29431712073747,0,10.94554328918457,24.440048217773438,-74.81953430175781
0.0006992669077590108,-0.20176245272159576,9.819297790527344,0.00044006165528668966,0.0012999400326725785,-0.0029000914010824694,1.8399670124053955,2019-07-26 12:01:06:755,-158.45519476988693,-174.3851345444525,0,10.94554328918457,24.440048217773438,-74.81953430175781
0.01267301570624113,-0.24726270139217377,9.91269302368164,-0.0024901310407783963,0.0020990834154402524,-0.003965616171513693,1.8503508567810059,2019-07-26 12:01:06:765,-158.8858497377165,-174.46740213043267,0,10.94554328918457,24.440048217773438,-74.81953430175781
-0.018458731472492218,-0.19697295129299164,9.80492877960205,-0.005153942316670643,-0.002695777271277278,-0.005297521549385491,1.8603088855743408,2019-07-26 12:01:06:775,-152.1087827157042,-174.55215489718725,0,10.94554328918457,24.440048217773438,-74.81953430175781
0.03422576189041138,-0.2065519541501999,9.828876495361328,0.0023047297759762964,0.0018327022878510278,-0.0023673291459040203,1.870121955871582,2019-07-26 12:01:06:785,-152.6636266349253,-174.63830405892847,0,10.94554328918457,24.440048217773438,-74.81953430175781
0.017462514340877533,-0.26163119077682495,9.828876495361328,-0.0019573686555627847,0.0012999400326725785,0.001628387897971511,1.880009412765503,2019-07-26 12:01:06:795,-153.2090399085395,-174.71395578934,0,10.94554328918457,24.440048217773438,-74.81953430175781
0.048594262450933456,-0.23528894782066345,9.840849876403809,0.0009728239429744294,0.0020990834154402524,-0.001834566890725571,1.8899688720703125,2019-07-26 12:01:06:805,-153.74037446242622,-174.79282774784465,0,10.94554328918457,24.440048217773438,-74.81953430175781
0.05577851086854935,-0.218525692820549,9.759428977966309,-0.0014246064003843356,-0.0005647280555077374,-0.0007690423803686727,1.8999724388122559,2019-07-26 12:01:06:815,-154.25870053356246,-174.87051681162174,0,10.94554328918457,24.440048217773438,-74.81953430175781
0.07493650913238525,-0.24965745210647583,9.78098201751709,-0.004354798933902968,0.003430989183423538,3.010106944941304e-05,1.9099609851837158,2019-07-26 12:01:06:825,-154.76667160836206,-174.94142116420943,0,10.645665168762207,24.440048217773438,-73.02027130126953
0.110857754945755,-0.2568416893482208,9.797744750976562,0.0012392051355822353,0.0012999400326725785,0.0008292445152038374,1.9199752807617188,2019-07-26 12:01:06:835,-155.25910408843967,-175.0132569724423,0,10.645665168762207,24.440048217773438,-73.02027130126953
0.04619951173663139,-0.2520521879196167,9.807323455810547,0.00150558626317146,0.005828419591800884,0.004558580691564469,1.9299747943878174,2019-07-26 12:01:06:845,-155.7517964546326,-175.084393162937,0,10.645665168762207,24.440048217773438,-73.02027130126953
0.08691025525331497,-0.2712101936340332,9.82169246673584,-0.0008918440801873052,0.0031646080558343135,0.008554297605402838,1.9399611949920654,2019-07-26 12:01:06:855,-156.2283953115747,-175.15057063977235,0,10.645665168762207,24.440048217773438,-73.02027130126953
0.10367350280284882,-0.28078919649124146,9.82169246673584,-0.0019573686555627847,0.00556203846421166,0.004558580691564469,1.9499661922454834,2019-07-26 12:01:06:865,-156.6948567069806,-175.21370832762238,0,10.645665168762207,24.440048217773438,-73.02027130126953
0.07254175841808319,-0.2903681993484497,9.900718688964844,-0.004088417806313744,0.003697370311012762,0.006156867457099816,1.96000337600708,2019-07-26 12:01:06:875,-157.15464748100217,-175.27353221123812,0,10.645665168762207,24.440048217773438,-73.02027130126953
0.12043675035238266,-0.2592364549636841,9.785771369934082,0.0025711109035655207,0.005295657336622434,0.00748877309504594,1.9699633121490479,2019-07-26 12:01:06:885,-157.6004136696088,-175.3391499210457,0,10.645665168762207,24.440048217773438,-73.02027130126953
0.13480524718761444,-0.2736049294471741,9.766613006591797,0.0007064428153852049,0.006094800719390108,0.008820678732992063,1.9799659252166748,2019-07-26 12:01:06:895,-158.03601283281324,-175.40067005174362,0,10.645665168762207,24.440048217773438,-73.02027130126953
0.09888400137424469,-0.2568416893482208,9.836060523986816,0.0039030165415116433,0.0028982269282450887,0.006423248584689041,1.9899613857269287,2019-07-26 12:01:06:905,-158.46539944365182,-175.4649315559654,0,10.645665168762207,24.440048217773438,-73.02027130126953
0.14198949933052063,-0.23049944639205933,9.728297233581543,0.00150558626317146,0.003963751438601987,0.00988620324334896,1.9999737739562988,2019-07-26 12:01:06:915,-158.8815958133522,-175.52933344498783,0,10.645665168762207,24.440048217773438,-73.02027130126953
0.07493650913238525,-0.2568416893482208,9.75224494934082,0.0023047297759762964,0.005828419591800884,0.004558580691564469,2.009962558746338,2019-07-26 12:01:06:925,-159.29842780388117,-175.58986679763396,0,10.645665168762207,24.440048217773438,-73.02027130126953
0.12283150106668472,-0.24247319996356964,9.769007682800293,-0.0014246064003843356,0.004762895081443986,0.001628387897971511,2.0199615955352783,2019-07-26 12:01:06:935,-159.700725835287,-175.64883308369042,0,10.645665168762207,24.440048217773438,-73.02027130126953
0.13001574575901031,-0.22092044353485107,9.74266529083252,0.00017368051144281974,0.0063611818469793335,0.0024275314107763475,2.0299646854400635,2019-07-26 12:01:06:945,-160.0949928957386,-175.70997414183276,0,11.245421409606934,23.540414810180664,-75.4192886352539
0.10127875208854675,-0.24965745210647583,9.831271171569824,-0.001158225272795111,0.003697370311012762,-0.0010354235079578973,2.039968252182007,2019-07-26 12:01:06:955,-160.48336539194685,-175.766030706497,0,11.245421409606934,23.540414810180664,-75.4192886352539
0.13241049647331238,-0.2664206922054291,9.83366584777832,0.0017719673907606846,0.004230132566191211,0.003493055921133246,2.04996395111084,2019-07-26 12:01:06:965,-160.86064343351927,-175.82066625156472,0,11.245421409606934,23.540414810180664,-75.4192886352539
0.0916997566819191,-0.24247319996356964,9.831271171569824,-0.0003590817924995654,0.006094800719390108,-0.0013018046355471218,2.0599653720855713,2019-07-26 12:01:06:975,-161.23616522184028,-175.87579475477025,0,11.245421409606934,23.540414810180664,-75.4192886352539
0.09409450739622116,-0.23049944639205933,9.83366584777832,-0.0014246064003843356,0.0012999400326725785,-0.0013018046355471218,2.0702624320983887,2019-07-26 12:01:06:985,-161.60122903074708,-175.93060003489845,0,11.245421409606934,23.540414810180664,-75.4192886352539
0.065357506275177,-0.25444695353507996,9.812113761901855,0.0028374920311547455,0.006094800719390108,0.0008292445152038374,2.079941511154175,2019-07-26 12:01:06:995,-161.9648841301526,-175.98382101777355,0,11.245421409606934,23.540414810180664,-75.4192886352539
0.08451550453901291,-0.24726270139217377,9.845640182495117,0.004968541051868542,0.006627562974568559,-0.0029000914010824694,2.089972972869873,2019-07-26 12:01:07:005,-162.31948316377705,-176.03817080978155,0,11.245421409606934,23.540414810180664,-75.4192886352539
0.04141001030802727,-0.1993677020072937,9.783376693725586,0.004435778796690093,-0.0021630148860616663,-0.003965616171513693,2.099970579147339,2019-07-26 12:01:07:015,-162.6670289836909,-176.09654900455425,0,11.245421409606934,23.540414810180664,-75.4192886352539
0.053383760154247284,-0.26881542801856995,9.785771369934082,-0.0006254629525980806,0.003697370311012762,-0.0031664725286716937,2.109971523284912,2019-07-26 12:01:07:025,-163.00951348250467,-176.1427963739563,0,11.245421409606934,23.540414810180664,-75.4192886352539
0.031831011176109314,-0.2520521879196167,9.845640182495117,-0.0032892744235460706,0.0020990834154402524,-0.007961333345426386,2.1199676990509033,2019-07-26 12:01:07:035,-163.3467966558317,-176.18876475456824,0,11.245421409606934,23.540414810180664,-75.4192886352539
0.07014700770378113,-0.2065519541501999,9.836060523986816,-0.001158225272795111,0.005295657336622434,-0.0036992350439244686,2.12996506690979,2019-07-26 12:01:07:045,-163.67466135289163,-176.24027921699994,0,11.245421409606934,23.540414810180664,-75.4192886352539
0.0390152633190155,-0.20894670486450195,9.814508438110352,-0.0008918440801873052,-0.0008311091830969619,-0.007694952217837162,2.1399641036987305,2019-07-26 12:01:07:055,-163.99614621096492,-176.29058054156314,0,11.245421409606934,23.540414810180664,-75.4192886352539
0.05817325785756111,-0.18260444700717926,9.80492877960205,-0.0038220366787245193,0.001566321160261803,-0.0071621899626587125,2.1499617099761963,2019-07-26 12:01:07:065,-164.31030385407385,-176.34128460856095,0,11.245421409606934,23.540414810180664,-75.4192886352539
0.07733125984668732,-0.20894670486450195,9.757034301757812,0.0023047297759762964,0.003697370311012762,-0.0013018046355471218,2.159965753555298,2019-07-26 12:01:07:075,-164.61709269969427,-176.39121753192202,0,9.746031761169434,25.33968162536621,-74.21977996826172
0.06775225698947906,-0.21373620629310608,9.812113761901855,-9.270064052837282e-05,0.004496513953854761,-0.01169066965182418,2.1699657440185547,2019-07-26 12:01:07:085,-164.91936325373212,-176.4383837223325,0,9.746031761169434,25.33968162536621,-74.21977996826172
0.05817325785756111,-0.17781496047973633,9.79295539855957,0.0025711109035655207,0.004762895081443986,-0.006629427707480263,2.179964065551758,2019-07-26 12:01:07:095,-165.21684287727183,-176.49025487807373,0,9.746031761169434,25.33968162536621,-74.21977996826172
0.060568008571863174,-0.21373620629310608,9.814508438110352,0.0009728239429744294,0.004762895081443986,-0.009559619590813083,2.189969062805176,2019-07-26 12:01:07:105,-165.50811004738458,-176.5360449726052,0,9.746031761169434,25.33968162536621,-74.21977996826172
0.1180419996380806,-0.21134145557880402,9.790560722351074,-0.004088417806313744,0.005828419591800884,-0.007961333345426386,2.1999638080596924,2019-07-26 12:01:07:115,-165.78740346819828,-176.57829746317464,0,9.746031761169434,25.33968162536621,-74.21977996826172
0.03662051260471344,-0.26163119077682495,9.85042953491211,0.002038348518349909,-0.0005647280555077374,-0.006096665452301814,2.2099649906158447,2019-07-26 12:01:07:125,-166.0670781664762,-176.61744737512421,0,9.746031761169434,25.33968162536621,-74.21977996826172
0.07972601056098938,-0.22331519424915314,9.86240291595459,-0.003555655551135295,0.0031646080558343135,-0.009826001238550958,2.2199652194976807,2019-07-26 12:01:07:135,-166.3382503793269,-176.65715925899391,0,9.746031761169434,25.33968162536621,-74.21977996826172
0.04619951173663139,-0.22810469567775726,9.814508438110352,-0.004354798933902968,0.005295657336622434,-0.007961333345426386,2.229966878890991,2019-07-26 12:01:07:145,-166.60906527874315,-176.6949423579254,0,9.746031761169434,25.33968162536621,-74.21977996826172
0.053383760154247284,-0.23049944639205933,9.819297790527344,-0.0003590817924995654,0.0005007965523770329,-0.005563903197123366,2.2399706840515137,2019-07-26 12:01:07:155,-166.87093543408307,-176.73394738085514,0,9.746031761169434,25.33968162536621,-74.21977996826172
0.08691025525331497,-0.26881542801856995,9.812113761901855,0.0012392051355822353,0.00502927620903321,-0.005563903197123366,2.249967098236084,2019-07-26 12:01:07:165,-167.12619002596392,-176.76857802070273,0,9.746031761169434,25.33968162536621,-74.21977996826172
0.04380476102232933,-0.26163119077682495,9.778586387634277,-0.0038220366787245193,0.001566321160261803,-0.005563903197123366,2.2599599361419678,2019-07-26 12:01:07:175,-167.37941180265727,-176.80040967108388,0,9.746031761169434,25.33968162536621,-74.21977996826172
0.05817325785756111,-0.23768369853496552,9.874377250671387,0.0009728239429744294,-0.0008311091830969619,-0.007961333345426386,2.2699735164642334,2019-07-26 12:01:07:185,-167.6246053724063,-176.83737073271323,0,9.746031761169434,25.33968162536621,-74.21977996826172
0.027041513472795486,-0.24965745210647583,9.814508438110352,-9.270064052837282e-05,0.005828419591800884,-0.008494095600604835,2.2799952030181885,2019-07-26 12:01:07:195,-167.87223572553364,-176.87142810650917,0,11.395359992980957,23.990232467651367,-74.06983947753906
0.053383760154247284,-0.2448679506778717,9.828876495361328,0.004435778796690093,-0.0005647280555077374,-0.0029000914010824694,2.289961338043213,2019-07-26 12:01:07:205,-168.10825121931543,-176.90793936830667,0,11.395359992980957,23.990232467651367,-74.06983947753906
0.05098900943994522,-0.2448679506778717,9.812113761901855,-0.0006254629525980806,0.004762895081443986,-0.0036992350439244686,2.299964189529419,2019-07-26 12:01:07:215,-168.3428065777862,-176.94083811822154,0,11.395359992980957,23.990232467651367,-74.06983947753906
0.04619951173663139,-0.22810469567775726,9.848034858703613,-0.0030228932959568454,0.0005007965523770329,-0.00023628007642628753,2.3099594116210938,2019-07-26 12:01:07:225,-168.57085578090042,-176.97378733951558,0,11.395359992980957,23.990232467651367,-74.06983947753906
0.04619951173663139,-0.23528894782066345,9.876771926879883,0.00017368051144281974,0.00023441540853316294,0.0013620067703822866,2.3199658393859863,2019-07-26 12:01:07:235,-168.79421028703806,-177.00711581730198,0,11.395359992980957,23.990232467651367,-74.06983947753906
0.0030940165743231773,-0.24965745210647583,9.771402359008789,-0.0016909875279735602,0.004496513953854761,-0.0013018046355471218,2.329960584640503,2019-07-26 12:01:07:245,-169.02048669838376,-177.03675295792772,0,11.395359992980957,23.990232467651367,-74.06983947753906
0.0294362623244524,-0.29994720220565796,9.757034301757812,-0.004621180061492193,0.006094800719390108,0.003493055921133246,2.3399689197540283,2019-07-26 12:01:07:255,-169.24004490574572,-177.05820471997268,0,11.395359992980957,23.990232467651367,-74.06983947753906
0.07972601056098938,-0.25444695353507996,9.809718132019043,-0.005686704571849092,0.003963751438601987,0.003493055921133246,2.3499667644500732,2019-07-26 12:01:07:265,-169.44815623400643,-177.0841318512094,0,11.395359992980957,23.990232467651367,-74.06983947753906
0.07733125984668732,-0.24726270139217377,9.840849876403809,-0.0006254629525980806,0.003963751438601987,0.00695601083986749,2.3599631786346436,2019-07-26 12:01:07:275,-169.652413316165,-177.11331174969504,0,11.395359992980957,23.990232467651367,-74.06983947753906
0.05098900943994522,-0.2520521879196167,9.778586387634277,-0.001158225272795111,-0.0002983468954092222,0.00988620324334896,2.3699634075164795,2019-07-26 12:01:07:285,-169.85322236943136,-177.14086465323282,0,11.395359992980957,23.990232467651367,-74.06983947753906
0.06296275556087494,-0.23768369853496552,9.807323455810547,-0.0030228932959568454,0.002631845800655864,0.004292199303900919,2.3799688816070557,2019-07-26 12:01:07:295,-170.05027986230644,-177.16858287593908,0,11.395359992980957,23.990232467651367,-74.06983947753906
0.07014700770378113,-0.22092044353485107,9.809718132019043,0.0009728239429744294,0.0018327022878510278,0.0056241052019213676,2.38997745513916,2019-07-26 12:01:07:305,-170.24211017155852,-177.19995561535043,0,11.395359992980957,23.990232467651367,-74.06983947753906
0.07972601056098938,-0.24726270139217377,9.83366584777832,-0.0016909875279735602,0.0018327022878510278,0.009087060380729938,2.399963855743408,2019-07-26 12:01:07:315,-170.4290053721348,-177.22620089209383,0,11.395359992980957,23.990232467651367,-74.06983947753906
0.08930500596761703,-0.2783944308757782,9.759428977966309,0.002038348518349909,0.002631845800655864,0.008287916477813613,2.4099576473236084,2019-07-26 12:01:07:325,-170.6114165584712,-177.25014152435404,0,10.645665168762207,24.440048217773438,-74.81953430175781
0.110857754945755,-0.30713143944740295,9.766613006591797,-0.001158225272795111,0.005295657336622434,0.012550014519241206,2.4199695587158203,2019-07-26 12:01:07:335,-170.78915890435508,-177.26846375228826,0,10.645665168762207,24.440048217773438,-74.81953430175781
0.16593699157238007,-0.2783944308757782,9.809718132019043,-0.001158225272795111,0.0010335588400647727,0.011750871656622183,2.429964542388916,2019-07-26 12:01:07:345,-170.95457380805686,-177.28993273073812,0,10.645665168762207,24.440048217773438,-74.81953430175781
0.15156850218772888,-0.24965745210647583,9.838455200195312,0.003636635413922419,-0.0021630148860616663,0.012017252264062759,2.4399685859680176,2019-07-26 12:01:07:355,-171.1166150506874,-177.3171047238539,0,10.645665168762207,24.440048217773438,-74.81953430175781
0.1252262443304062,-0.30234193801879883,9.80492877960205,-0.0003590817924995654,0.001566321160261803,0.016012969698049776,2.4499635696411133,2019-07-26 12:01:07:365,-171.28052722697157,-177.33523717901025,0,10.645665168762207,24.440048217773438,-74.81953430175781
0.14677900075912476,-0.29994720220565796,9.771402359008789,0.0039030165415116433,-0.0002983468954092222,0.014681063539955002,2.4599645137786865,2019-07-26 12:01:07:375,-171.4375373172672,-177.35555970121456,0,10.645665168762207,24.440048217773438,-74.81953430175781
0.10127875208854675,-0.29994720220565796,9.773797035217285,0.00150558626317146,0.0031646080558343135,0.01920954322912047,2.469963312149048,2019-07-26 12:01:07:385,-171.59868941543888,-177.37413792087742,0,10.645665168762207,24.440048217773438,-74.81953430175781
0.060568008571863174,-0.28797343373298645,9.83366584777832,0.0023047297759762964,0.00502927620903321,0.013082776774419656,2.479966878890991,2019-07-26 12:01:07:395,-171.76248267449515,-177.39440181389452,0,10.645665168762207,24.440048217773438,-74.81953430175781
0.09409450739622116,-0.28797343373298645,9.737875938415527,0.004968541051868542,0.0012999400326725785,0.015213825795133452,2.4899752140045166,2019-07-26 12:01:07:405,-171.91689121072352,-177.41542820517066,0,10.645665168762207,24.440048217773438,-74.81953430175781
0.08212075382471085,-0.27599969506263733,9.826481819152832,0.0041693976691008685,0.007426706357336231,0.016012969698049776,2.49998140335083,2019-07-26 12:01:07:415,-172.07314976080966,-177.4372849448917,0,10.645665168762207,24.440048217773438,-74.81953430175781
-0.0016954827588051558,-0.22810469567775726,9.785771369934082,0.00150558626317146,0.0031646080558343135,0.014681063539955002,2.509958267211914,2019-07-26 12:01:07:425,-165.033658118931,-177.4626764100168,0,10.645665168762207,24.440048217773438,-74.81953430175781
0.03662051260471344,-0.21613094210624695,9.83366584777832,0.0023047297759762964,-0.0002983468954092222,0.007222391967456715,2.519965171813965,2019-07-26 12:01:07:435,-165.32854995645502,-177.48953622630725,0,10.645665168762207,24.440048217773438,-74.81953430175781
0.010278265923261642,-0.17781496047973633,9.80492877960205,0.0039030165415116433,0.004762895081443986,0.0021611501531499603,2.529963254928589,2019-07-26 12:01:07:445,-165.6234515690719,-177.5211574175598,0,11.245421409606934,22.940658569335938,-73.02027130126953
0.010278265923261642,-0.17063070833683014,9.790560722351074,0.0007064428153852049,0.007160325229747007,0.004824961819153694,2.5399656295776367,2019-07-26 12:01:07:455,-165.9138010077162,-177.55116193928797,0,11.245421409606934,22.940658569335938,-73.02027130126953
-0.032827228307724,-0.19697295129299164,9.838455200195312,0.0023047297759762964,0.005828419591800884,-0.00023628007642628753,2.5500950813293457,2019-07-26 12:01:07:465,-159.00266347782485,-177.57851056553,0,11.245421409606934,22.940658569335938,-73.02027130126953
-0.044800978153944016,-0.20415720343589783,9.809718132019043,0.00017368051144281974,0.0031646080558343135,-0.0071621899626587125,2.5599546432495117,2019-07-26 12:01:07:475,-152.22959553620225,-177.60319146260576,0,11.245421409606934,22.940658569335938,-73.02027130126953
0.005488766357302666,-0.20894670486450195,9.836060523986816,0.0007064428153852049,0.005828419591800884,-0.009293238983372509,2.5699687004089355,2019-07-26 12:01:07:485,-152.78764142623618,-177.62718591829983,0,11.245421409606934,22.940658569335938,-73.02027130126953
-0.023248229175806046,-0.2065519541501999,9.785771369934082,-0.0019573686555627847,0.008225849740103906,-0.008494095600604835,2.5799710750579834,2019-07-26 12:01:07:495,-146.1392308646535,-177.64935919909087,0,11.245421409606934,22.940658569335938,-73.02027130126953
-0.0016954827588051558,-0.218525692820549,9.845640182495117,0.0023047297759762964,0.0063611818469793335,-0.02447696377610696,2.589968204498291,2019-07-26 12:01:07:505,-139.62021435106192,-177.67223612604582,0,11.245421409606934,22.940658569335938,-73.02027130126953
0.0294362623244524,-0.16344645619392395,9.82169246673584,-0.001158225272795111,0.0108896615361448,-0.023411439265750063,2.5999653339385986,2019-07-26 12:01:07:515,-140.43048846438452,-177.69907339861206,0,11.245421409606934,22.940658569335938,-73.02027130126953
0.03422576189041138,-0.22331519424915314,9.840849876403809,-0.0006254629525980806,0.008758612515431006,-0.02847268121009398,2.6099655628204346,2019-07-26 12:01:07:525,-141.222811361454,-177.7187412997884,0,11.245421409606934,22.940658569335938,-73.02027130126953
0.04141001030802727,-0.14189371466636658,9.800139427185059,0.0028374920311547455,0.0018327022878510278,-0.0314028741337241,2.6199631690979004,2019-07-26 12:01:07:535,-141.9945419662177,-177.74936908052646,0,11.245421409606934,22.940658569335938,-73.02027130126953
0.07254175841808319,-0.1802097111940384,9.766613006591797,-0.005420323444259867,0.00502927620903321,-0.03087011083824835,2.6299681663513184,2019-07-26 12:01:07:545,-142.74896531010145,-177.77019508798182,0,11.245421409606934,22.940658569335938,-73.02027130126953
0.065357506275177,-0.1993677020072937,9.840849876403809,-0.0008918440801873052,0.00849223086769313,-0.03539859156771112,2.6399667263031006,2019-07-26 12:01:07:555,-143.49114326481856,-177.79107833641885,0,11.245421409606934,22.940658569335938,-73.02027130126953
0.11564724892377853,-0.14428846538066864,9.831271171569824,-0.003555655551135295,0.0108896615361448,-0.03166925474116467,2.6499648094177246,2019-07-26 12:01:07:565,-144.21395474033915,-177.8164438555299,0,11.245421409606934,22.940658569335938,-73.02027130126953
0.13480524718761444,-0.15147270262241364,9.728297233581543,-0.0048875611890814175,0.007160325229747007,-0.03699687937354377,2.6599676609039307,2019-07-26 12:01:07:575,-144.91781934136552,-177.83952900593906,0,11.395359992980957,23.39047622680664,-74.66959381103516
0.17312124371528625,-0.21134145557880402,9.747454643249512,-0.0038220366787245193,0.003697370311012762,-0.03939430692110354,2.6699626445770264,2019-07-26 12:01:07:585,-145.60118790202313,-177.85575192003614,0,11.395359992980957,23.39047622680664,-74.66959381103516
0.15875273942947388,-0.2328941971063614,9.776191711425781,-0.0032892744235460706,0.00502927620903321,-0.04232449984473366,2.6799659729003906,2019-07-26 12:01:07:595,-146.27338246035964,-177.8694958300588,0,11.395359992980957,23.39047622680664,-74.66959381103516
0.17312124371528625,-0.2520521879196167,9.800139427185059,-0.0048875611890814175,0.0020990834154402524,-0.037796023276460096,2.6899638175964355,2019-07-26 12:01:07:605,-146.92885248773567,-177.87989655788223,0,11.395359992980957,23.39047622680664,-74.66959381103516
0.16833174228668213,-0.26881542801856995,9.740270614624023,-0.00914965923050901,-0.0008311091830969619,-0.03300115985896215,2.6999611854553223,2019-07-26 12:01:07:615,-147.5700071067877,-177.885545100358,0,11.395359992980957,23.39047622680664,-74.66959381103516
0.18509499728679657,-0.2592364549636841,9.807323455810547,-0.0024901310407783963,0.0063611818469793335,-0.020214865734679368,2.710145950317383,2019-07-26 12:01:07:625,-148.20062029471313,-177.89612728547067,0,11.395359992980957,23.39047622680664,-74.66959381103516
0.16833174228668213,-0.26881542801856995,9.78098201751709,-0.005153942316670643,0.00556203846421166,-0.021813153540512015,2.719957113265991,2019-07-26 12:01:07:635,-148.8199526079493,-177.90387963351947,0,11.395359992980957,23.39047622680664,-74.66959381103516
0.16114749014377594,-0.27599969506263733,9.773797035217285,-0.007018610209795215,0.003963751438601987,-0.014887243182894876,2.7299654483795166,2019-07-26 12:01:07:645,-149.42688924454689,-177.90950720291954,0,11.395359992980957,23.39047622680664,-74.66959381103516
0.10846300423145294,-0.29515770077705383,9.771402359008789,-0.011280708251222807,0.001566321160261803,-0.0063630465798910395,2.73996901512146,2019-07-26 12:01:07:655,-150.02651206848805,-177.91037737357286,0,11.395359992980957,23.39047622680664,-74.66959381103516
0.156358003616333,-0.2640259563922882,9.797744750976562,-0.0024901310407783963,-0.0002983468954092222,-0.0010354235079578973,2.7499725818634033,2019-07-26 12:01:07:665,-150.6075286230732,-177.91989888944403,0,11.395359992980957,23.39047622680664,-74.66959381103516
0.14917375147342682,-0.2736049294471741,9.745059967041016,-0.0032892744235460706,0.0018327022878510278,0.0056241052019213676,2.759962558746338,2019-07-26 12:01:07:675,-151.17886619951238,-177.92749125461245,0,11.395359992980957,23.39047622680664,-74.66959381103516
0.10846300423145294,-0.3095261752605438,9.795350074768066,-0.006485847954616764,0.004762895081443986,0.009087060380729938,2.7699661254882812,2019-07-26 12:01:07:685,-151.7452760898388,-177.92910025373493,0,11.395359992980957,23.39047622680664,-74.66959381103516
0.11325250566005707,-0.2736049294471741,9.809718132019043,-0.005686704571849092,0.002365464673066639,0.017078494208406677,2.7799644470214844,2019-07-26 12:01:07:695,-152.29846962315497,-177.9353730167317,0,11.995116233825684,22.490842819213867,-74.06983947753906
0.08930500596761703,-0.2328941971063614,9.769007682800293,0.0007064428153852049,0.004762895081443986,0.02080783103495312,2.789961814880371,2019-07-26 12:01:07:705,-152.84469860001167,-177.94974854114716,0,11.995116233825684,22.490842819213867,-74.06983947753906
0.06775225698947906,-0.29994720220565796,9.836060523986816,0.002038348518349909,0.002631845800655864,0.026135453586737613,2.79996395111084,2019-07-26 12:01:07:715,-153.38138960827922,-177.95696487811674,0,11.995116233825684,22.490842819213867,-74.06983947753906
0.07493650913238525,-0.2257099449634552,9.814508438110352,-0.0030228932959568454,-3.1965737342537616e-05,0.028266502607451408,2.8099639415740967,2019-07-26 12:01:07:725,-153.90499465230855,-177.9697795905186,0,11.995116233825684,22.490842819213867,-74.06983947753906
0.10367350280284882,-0.26881542801856995,9.783376693725586,0.0012392051355822353,-0.0010974903757047679,0.030397551628165202,2.8199737071990967,2019-07-26 12:01:07:735,-154.4141352152126,-177.97960237031924,0,11.995116233825684,22.490842819213867,-74.06983947753906
0.10367350280284882,-0.2736049294471741,9.845640182495117,-9.270064052837282e-05,0.0063611818469793335,0.027733739311975657,2.829960346221924,2019-07-26 12:01:07:745,-154.91735361503157,-177.98812217023556,0,11.995116233825684,22.490842819213867,-74.06983947753906
0.09409450739622116,-0.26881542801856995,9.864797592163086,0.0007064428153852049,-3.1965737342537616e-05,0.02933202711780831,2.83996844291687,2019-07-26 12:01:07:755,-155.40805869550113,-177.9975382760998,0,11.995116233825684,22.490842819213867,-74.06983947753906
0.08930500596761703,-0.28797343373298645,9.824087142944336,0.00150558626317146,0.003963751438601987,0.0346596496695928,2.849963426589966,2019-07-26 12:01:07:765,-155.89170548752645,-178.00485186712044,0,11.995116233825684,22.490842819213867,-74.06983947753906
0.08691025525331497,-0.2640259563922882,9.883955955505371,0.00310387315874397,0.0012999400326725785,0.02959840772524888,2.8599653244018555,2019-07-26 12:01:07:775,-156.3645255816478,-178.01589489779215,0,11.995116233825684,22.490842819213867,-74.06983947753906
0.04141001030802727,-0.22331519424915314,9.836060523986816,0.0041693976691008685,0.002631845800655864,0.03279498125631958,2.8699791431427,2019-07-26 12:01:07:785,-156.83389059104442,-178.03190926462364,0,11.995116233825684,22.490842819213867,-74.06983947753906
0.05098900943994522,-0.24007844924926758,9.86240291595459,0.0039030165415116433,0.0018327022878510278,0.024537165780904962,2.8800830841064453,2019-07-26 12:01:07:795,-157.29232815950243,-178.04559611686287,0,11.995116233825684,22.490842819213867,-74.06983947753906
0.07972601056098938,-0.25444695353507996,9.82169246673584,0.0025711109035655207,0.00023441540853316294,0.02480354638834554,2.889962911605835,2019-07-26 12:01:07:805,-157.73731005709016,-178.05643034828378,0,11.995116233825684,22.490842819213867,-74.06983947753906
0.031831011176109314,-0.2328941971063614,9.83366584777832,0.00310387315874397,0.0010335588400647727,0.018144018718763574,2.900355815887451,2019-07-26 12:01:07:815,-158.1794577497604,-178.06997898497806,0,11.995116233825684,22.490842819213867,-74.06983947753906
0.017462514340877533,-0.23768369853496552,9.733086585998535,0.005767684434636216,-0.0008311091830969619,0.019475923836561045,2.9099552631378174,2019-07-26 12:01:07:825,-158.6133646904231,-178.08371033026114,0,11.995116233825684,22.490842819213867,-74.06983947753906
0.03422576189041138,-0.3238946795463562,9.761823654174805,0.003636635413922419,0.0028982269282450887,0.017611257503882427,2.919945001602173,2019-07-26 12:01:07:835,-159.03870541871484,-178.08606876670757,0,11.995116233825684,22.490842819213867,-74.06983947753906
0.0390152633190155,-0.3502369225025177,9.867192268371582,0.005767684434636216,0.00502927620903321,0.018943162621679895,2.9299676418304443,2019-07-26 12:01:07:845,-159.45623066418122,-178.08693595726425,0,11.995116233825684,22.490842819213867,-74.06983947753906
0.024646764621138573,-0.3813686668872833,9.871981620788574,0.00310387315874397,0.006893944102157782,0.013349158422157531,2.940345287322998,2019-07-26 12:01:07:855,-159.86826224495985,-178.08275953134086,0,11.995116233825684,22.490842819213867,-74.06983947753906
0.005488766357302666,-0.35981592535972595,9.78098201751709,0.0023047297759762964,0.008758612515431006,0.014148301284776555,2.9499664306640625,2019-07-26 12:01:07:865,-160.2749855791132,-178.08021327499418,0,11.995116233825684,22.490842819213867,-74.06983947753906
-0.044800978153944016,-0.3119209408760071,9.66124439239502,0.002038348518349909,0.0063611818469793335,0.012017252264062759,2.959980010986328,2019-07-26 12:01:07:875,-153.47837629766124,-178.0827711464487,0,11.995116233825684,22.490842819213867,-74.06983947753906
0.03662051260471344,-0.2640259563922882,9.771402359008789,0.0025711109035655207,0.004496513953854761,0.0037594370487224705,2.969989776611328,2019-07-26 12:01:07:885,-154.00704146929854,-178.09160538889458,0,11.995116233825684,22.490842819213867,-74.06983947753906
0.07493650913238525,-0.2065519541501999,9.776191711425781,0.0028374920311547455,0.004762895081443986,0.0018947690255607357,2.9800772666931152,2019-07-26 12:01:07:895,-154.52081489164277,-178.1071730978884,0,11.995116233825684,22.490842819213867,-74.06983947753906
0.07493650913238525,-0.15865695476531982,9.831271171569824,0.008165114582939236,0.002365464673066639,0.009087060380729938,2.990004777908325,2019-07-26 12:01:07:905,-155.0229828731065,-178.13108993364608,0,11.995116233825684,22.490842819213867,-74.06983947753906
0.0030940165743231773,-0.18978869915008545,9.816903114318848,0.0023047297759762964,0.0031646080558343135,0.0008292445152038374,3.000093460083008,2019-07-26 12:01:07:915,-155.52395473598702,-178.14762266110796,0,11.995116233825684,22.490842819213867,-74.06983947753906
0.0390152633190155,-0.1275252103805542,9.85042953491211,0.002038348518349909,0.014352615674656071,0.0013620067703822866,3.0099613666534424,2019-07-26 12:01:07:925,-156.0168894799395,-178.1709652445403,0,11.995116233825684,22.490842819213867,-74.06983947753906
0.0390152633190155,-0.10836721211671829,9.814508438110352,0.004702159924279317,0.002631845800655864,-0.004498378166617817,3.0200507640838623,2019-07-26 12:01:07:935,-156.49348738598718,-178.19755764938458,0,11.995116233825684,22.490842819213867,-74.06983947753906
0.027041513472795486,-0.11315671354532242,9.79295539855957,-0.0003590817924995654,0.007160325229747007,-0.0013018046355471218,3.0300018787384033,2019-07-26 12:01:07:945,-156.96445426163348,-178.2201654963892,0,11.545299530029297,23.840293884277344,-74.51966094970703
0.04380476102232933,-0.15865695476531982,9.79295539855957,0.0025711109035655207,0.004496513953854761,-0.013022574769621653,3.0401134490966797,2019-07-26 12:01:07:955,-157.42259238377022,-178.23865846415484,0,11.545299530029297,23.840293884277344,-74.51966094970703
0.07014700770378113,-0.1275252103805542,9.783376693725586,-0.001158225272795111,0.0119551860465017,-0.012756194162181081,3.0500006675720215,2019-07-26 12:01:07:965,-157.87256155153446,-178.25830625318022,0,11.545299530029297,23.840293884277344,-74.51966094970703
0.0916997566819191,-0.18260444700717926,9.814508438110352,-0.0019573686555627847,0.00849223086769313,-0.017284672811049246,3.060101270675659,2019-07-26 12:01:07:975,-158.3092203626712,-178.27071206725867,0,11.545299530029297,23.840293884277344,-74.51966094970703
0.06775225698947906,-0.1993677020072937,9.75224494934082,-0.001158225272795111,0.006627562974568559,-0.0156863860455139,3.070002794265747,2019-07-26 12:01:07:985,-158.73875972795008,-178.28123089795878,0,11.545299530029297,23.840293884277344,-74.51966094970703
0.07254175841808319,-0.21134145557880402,9.828876495361328,-0.00675222908220599,0.0031646080558343135,-0.01861658000944132,3.0800979137420654,2019-07-26 12:01:07:995,-159.15732111289455,-178.28714305735775,0,11.545299530029297,23.840293884277344,-74.51966094970703
0.05577851086854935,-0.1993677020072937,9.831271171569824,-0.0038220366787245193,0.003430989183423538,-0.021280390245036265,3.0900020599365234,2019-07-26 12:01:08:005,-159.5695813453233,-178.2960399363845,0,11.545299530029297,23.840293884277344,-74.51966094970703
0.09409450739622116,-0.1466832011938095,9.840849876403809,-0.0030228932959568454,0.000767177712475548,-0.019682104519798217,3.100100040435791,2019-07-26 12:01:08:015,-159.96766822811566,-178.3113259282808,0,11.545299530029297,23.840293884277344,-74.51966094970703
0.04619951173663139,-0.1538674533367157,9.809718132019043,-0.0032892744235460706,-0.0002983468954092222,-0.019948485127238794,3.110001802444458,2019-07-26 12:01:08:025,-160.36275226305006,-178.3252981816857,0,11.545299530029297,23.840293884277344,-74.51966094970703
0.04141001030802727,-0.1538674533367157,9.812113761901855,-0.0030228932959568454,0.004762895081443986,-0.018882960616881897,3.120107412338257,2019-07-26 12:01:08:035,-160.75336374815657,-178.33910888041942,0,11.545299530029297,23.840293884277344,-74.51966094970703
0.10367350280284882,-0.12273570895195007,9.776191711425781,-0.0024901310407783963,0.0028982269282450887,-0.019948485127238794,3.1300013065338135,2019-07-26 12:01:08:045,-161.1277549300619,-178.35655763209581,0,11.545299530029297,23.840293884277344,-74.51966094970703
0.060568008571863174,-0.10357771068811417,9.826481819152832,-0.0048875611890814175,0.004230132566191211,-0.015952767693251775,3.140094518661499,2019-07-26 12:01:08:055,-161.50053413359288,-178.3745782679675,0,11.545299530029297,23.840293884277344,-74.51966094970703
0.07972601056098938,-0.165841206908226,9.836060523986816,-0.008616896975330562,0.005828419591800884,-0.015952767693251775,3.150005578994751,2019-07-26 12:01:08:065,-161.86447899907577,-178.38297244379834,0,11.545299530029297,23.840293884277344,-74.51966094970703
0.08451550453901291,-0.18978869915008545,9.790560722351074,-0.005420323444259867,0.003697370311012762,-0.013022574769621653,3.1601102352142334,2019-07-26 12:01:08:075,-162.21939552104257,-178.39002700112573,0,11.245421409606934,24.739927291870117,-73.9198989868164
0.048594262450933456,-0.218525692820549,9.80492877960205,-0.007284991337384439,-0.0005647280555077374,-0.005031140421796266,3.170006036758423,2019-07-26 12:01:08:085,-162.569014588481,-178.39264339829813,0,11.245421409606934,24.739927291870117,-73.9198989868164
0.10367350280284882,-0.22810469567775726,9.843245506286621,-0.0075513724649736635,0.0018327022878510278,-0.003965616171513693,3.179955244064331,2019-07-26 12:01:08:095,-162.90658927592563,-178.39402159713987,0,11.245421409606934,24.739927291870117,-73.9198989868164
0.07014700770378113,-0.2568416893482208,9.848034858703613,-0.004621180061492193,0.0031646080558343135,-0.005830284324712591,3.189974069595337,2019-07-26 12:01:08:105,-163.24207560333323,-178.3936622139456,0,11.245421409606934,24.739927291870117,-73.9198989868164
0.08691025525331497,-0.24007844924926758,9.795350074768066,-0.005953085699438316,-3.1965737342537616e-05,0.003226674793544021,3.1999714374542236,2019-07-26 12:01:08:115,-163.5670491596288,-178.39436708355802,0,11.245421409606934,24.739927291870117,-73.9198989868164
0.07733125984668732,-0.26163119077682495,9.761823654174805,-0.002756512168367621,0.0018327022878510278,0.00802153535022439,3.209973096847534,2019-07-26 12:01:08:125,-163.88765987749048,-178.3942268393328,0,11.245421409606934,24.739927291870117,-73.9198989868164
0.060568008571863174,-0.2520521879196167,9.800139427185059,-0.004621180061492193,0.00902499312287158,0.009353440988170512,3.220006227493286,2019-07-26 12:01:08:135,-164.20790895418062,-178.394273331424,0,11.245421409606934,24.739927291870117,-73.9198989868164
0.08212075382471085,-0.3191051781177521,9.790560722351074,-0.002223749913189172,0.0012999400326725785,0.01281639616697908,3.2299976348876953,2019-07-26 12:01:08:145,-164.51486863693518,-178.3878045276691,0,11.245421409606934,24.739927291870117,-73.9198989868164
0.06296275556087494,-0.3286841809749603,9.838455200195312,-0.0024901310407783963,0.00502927620903321,0.015746588050311903,3.2399942874908447,2019-07-26 12:01:08:155,-164.82006088208178,-178.38038206033173,0,11.245421409606934,24.739927291870117,-73.9198989868164
0.07733125984668732,-0.3430526852607727,9.848034858703613,-0.002223749913189172,0.003963751438601987,0.016545731953228227,3.249997138977051,2019-07-26 12:01:08:165,-165.11688787337184,-178.37162401515056,0,11.245421409606934,24.739927291870117,-73.9198989868164
0.060568008571863174,-0.34065791964530945,9.783376693725586,0.0017719673907606846,0.0031646080558343135,0.024004404566023815,3.26001238822937,2019-07-26 12:01:08:175,-165.40923557857775,-178.36530325551342,0,11.245421409606934,24.739927291870117,-73.9198989868164
0.10127875208854675,-0.3382631838321686,9.840849876403809,-0.001158225272795111,0.003430989183423538,0.018410399326204148,3.2700021266937256,2019-07-26 12:01:08:185,-165.6911824203187,-178.35797403619347,0,11.245421409606934,24.739927291870117,-73.9198989868164
0.08930500596761703,-0.29515770077705383,9.814508438110352,0.00044006165528668966,0.003963751438601987,0.028000122000010834,3.279993772506714,2019-07-26 12:01:08:195,-165.96915582923054,-178.35661000802259,0,10.94554328918457,23.540414810180664,-73.9198989868164
0.09409450739622116,-0.2855786979198456,9.749850273132324,-0.0024901310407783963,0.001566321160261803,0.028266502607451408,3.289999008178711,2019-07-26 12:01:08:205,-166.23959392478838,-178.35452394056793,0,10.94554328918457,23.540414810180664,-73.9198989868164
0.09648925811052322,-0.23768369853496552,9.807323455810547,0.00310387315874397,0.004762895081443986,0.026135453586737613,3.2999963760375977,2019-07-26 12:01:08:215,-166.5062019856255,-178.36140961896473,0,10.94554328918457,23.540414810180664,-73.9198989868164
0.09648925811052322,-0.25444695353507996,9.876771926879883,0.0012392051355822353,0.000767177712475548,0.024004404566023815,3.30999493598938,2019-07-26 12:01:08:225,-166.76531420329056,-178.36536240889131,0,10.94554328918457,23.540414810180664,-73.9198989868164
0.060568008571863174,-0.24965745210647583,9.888745307922363,0.003636635413922419,0.000767177712475548,0.023471641270548065,3.320021867752075,2019-07-26 12:01:08:235,-167.0234212678604,-178.37117826819602,0,10.94554328918457,23.540414810180664,-73.9198989868164
0.031831011176109314,-0.19697295129299164,9.757034301757812,0.00150558626317146,0.0012999400326725785,0.01734487585614455,3.329955816268921,2019-07-26 12:01:08:245,-167.2799395537508,-178.38146414314352,0,10.94554328918457,23.540414810180664,-73.9198989868164
-0.030432479456067085,-0.21373620629310608,9.797744750976562,0.00150558626317146,0.0020990834154402524,0.017611257503882427,3.340001106262207,2019-07-26 12:01:08:255,-160.33908401558904,-178.3896900759335,0,10.94554328918457,23.540414810180664,-73.9198989868164
-0.011274481192231178,-0.24726270139217377,9.819297790527344,0.0009728239429744294,-0.004294064036812625,0.012017252264062759,3.3499996662139893,2019-07-26 12:01:08:265,-153.53120730681482,-178.3935928855101,0,10.94554328918457,23.540414810180664,-73.9198989868164
-0.028037728741765022,-0.2448679506778717,9.83366584777832,0.005234922179457767,0.003963751438601987,0.009353440988170512,3.3599953651428223,2019-07-26 12:01:08:275,-146.86607506787925,-178.40013063553923,0,10.94554328918457,23.540414810180664,-73.9198989868164
-0.059169474989175797,-0.24007844924926758,9.831271171569824,0.005767684434636216,0.0028982269282450887,0.0037594370487224705,3.3700010776519775,2019-07-26 12:01:08:285,-140.33727845277232,-178.40739086053108,0,10.94554328918457,23.540414810180664,-73.9198989868164
-0.0783274695277214,-0.2664206922054291,9.79295539855957,0.0017719673907606846,0.005295657336622434,-0.0013018046355471218,3.379993200302124,2019-07-26 12:01:08:295,-133.94266928250366,-178.40906988008965,0,10.94554328918457,23.540414810180664,-73.9198989868164
-0.04001147672533989,-0.28078919649124146,9.886350631713867,-0.0006254629525980806,0.004762895081443986,-0.0034328539163352434,3.3899950981140137,2019-07-26 12:01:08:305,-127.67112842267125,-178.40800001164484,0,10.94554328918457,23.540414810180664,-73.9198989868164
0.019857265055179596,-0.26881542801856995,9.836060523986816,-0.0003590817924995654,0.0020990834154402524,-0.015952767693251775,3.399996280670166,2019-07-26 12:01:08:315,-128.71657122849098,-178.40832876247455,0,10.94554328918457,23.540414810180664,-73.9198989868164
-0.04719572514295578,-0.24247319996356964,9.771402359008789,0.0007064428153852049,0.004762895081443986,-0.017284672811049246,3.409994125366211,2019-07-26 12:01:08:325,-122.55044829849865,-178.41212919400598,0,9.746031761169434,23.540414810180664,-74.21977996826172
0.017462514340877533,-0.25444695353507996,9.783376693725586,0.0009728239429744294,0.006893944102157782,-0.018350197321406143,3.41996169090271,2019-07-26 12:01:08:335,-123.70125235564997,-178.41463471762216,0,9.746031761169434,23.540414810180664,-74.21977996826172
0.005488766357302666,-0.20894670486450195,9.845640182495117,0.00150558626317146,0.00502927620903321,-0.021546770852476842,3.4299917221069336,2019-07-26 12:01:08:345,-124.82942089373863,-178.42287468167308,0,9.746031761169434,23.540414810180664,-74.21977996826172
0.005488766357302666,-0.22092044353485107,9.78098201751709,0.006300446689814665,0.009557755378050028,-0.02314505865830949,3.4399969577789307,2019-07-26 12:01:08:355,-125.93755890212996,-178.43207864141954,0,9.746031761169434,23.540414810180664,-74.21977996826172
0.04380476102232933,-0.20894670486450195,9.869586944580078,-0.0008918440801873052,0.003963751438601987,-0.02607525158193961,3.449988603591919,2019-07-26 12:01:08:365,-127.01594555545407,-178.43868043161547,0,9.746031761169434,23.540414810180664,-74.21977996826172
0.09888400137424469,-0.1993677020072937,9.800139427185059,0.00044006165528668966,0.005295657336622434,-0.027673537307177653,3.460005044937134,2019-07-26 12:01:08:375,-128.0670430721098,-178.44684577225047,0,9.746031761169434,23.540414810180664,-74.21977996826172
0.05817325785756111,-0.21373620629310608,9.838455200195312,-0.0032892744235460706,0.00556203846421166,-0.03166925474116467,3.4699950218200684,2019-07-26 12:01:08:385,-129.10204661541636,-178.4511731769818,0,9.746031761169434,23.540414810180664,-74.21977996826172
0.12043675035238266,-0.20415720343589783,9.797744750976562,0.00150558626317146,0.007693087484925456,-0.029271825113010304,3.4799938201904297,2019-07-26 12:01:08:395,-130.1102396012772,-178.4591208215598,0,9.746031761169434,23.540414810180664,-74.21977996826172
0.09648925811052322,-0.18499919772148132,9.7642183303833,-0.005420323444259867,0.003963751438601987,-0.033800303761878474,3.489994764328003,2019-07-26 12:01:08:405,-131.09893717885507,-178.46518595276325,0,9.746031761169434,23.540414810180664,-74.21977996826172
0.1252262443304062,-0.1873939484357834,9.905508995056152,0.0039030165415116433,0.002631845800655864,-0.03273477925152157,3.500004291534424,2019-07-26 12:01:08:415,-132.06395163532238,-178.4763998377374,0,9.746031761169434,23.540414810180664,-74.21977996826172
0.07493650913238525,-0.21134145557880402,9.800139427185059,0.0023047297759762964,0.002631845800655864,-0.023944202561225814,3.5099971294403076,2019-07-26 12:01:08:425,-133.01538727930802,-178.48345700737798,0,9.746031761169434,23.540414810180664,-74.21977996826172
0.08930500596761703,-0.24965745210647583,9.843245506286621,-0.0014246064003843356,0.004496513953854761,-0.023944202561225814,3.51999568939209,2019-07-26 12:01:08:435,-133.94720767107304,-178.48393006623675,0,9.746031761169434,23.540414810180664,-74.21977996826172
0.10606825351715088,-0.22092044353485107,9.819297790527344,-0.0008918440801873052,0.0031646080558343135,-0.019682104519798217,3.530003070831299,2019-07-26 12:01:08:445,-134.85766403040037,-178.48797317943672,0,10.19584846496582,23.39047622680664,-73.47008514404297
0.0916997566819191,-0.23768369853496552,9.785771369934082,-0.0003590817924995654,0.005828419591800884,-0.019682104519798217,3.53999400138855,2019-07-26 12:01:08:455,-135.7530426876126,-178.49018494215812,0,10.19584846496582,23.39047622680664,-73.47008514404297
0.07972601056098938,-0.21613094210624695,9.709138870239258,-0.0008918440801873052,0.006627562974568559,-0.021813153540512015,3.5499942302703857,2019-07-26 12:01:08:465,-136.63229388107945,-178.49437594338045,0,10.19584846496582,23.39047622680664,-73.47008514404297
0.156358003616333,-0.1730254590511322,9.855218887329102,0.00044006165528668966,0.006094800719390108,-0.009293238983372509,3.5599942207336426,2019-07-26 12:01:08:475,-137.48489122061153,-178.50461904952144,0,10.19584846496582,23.39047622680664,-73.47008514404297
0.13241049647331238,-0.218525692820549,9.745059967041016,-0.002756512168367621,0.004762895081443986,-0.009293238983372509,3.569995641708374,2019-07-26 12:01:08:485,-138.32229902479278,-178.5072866751483,0,10.19584846496582,23.39047622680664,-73.47008514404297
0.08691025525331497,-0.17542020976543427,9.797744750976562,-0.0016909875279735602,0.004230132566191211,-0.007694952217837162,3.579968214035034,2019-07-26 12:01:08:495,-139.14805724046684,-178.51567961547494,0,10.19584846496582,23.39047622680664,-73.47008514404297
0.08691025525331497,-0.1802097111940384,9.831271171569824,0.0033702542863331946,0.003697370311012762,-0.0036992350439244686,3.589963436126709,2019-07-26 12:01:08:505,-139.95704133027044,-178.5262549388554,0,10.19584846496582,23.39047622680664,-73.47008514404297
0.09409450739622116,-0.18978869915008545,9.848034858703613,-0.004354798933902968,0.004230132566191211,-0.0021009480183147955,3.599943161010742,2019-07-26 12:01:08:515,-140.74932241453135,-178.53120853807582,0,10.19584846496582,23.39047622680664,-73.47008514404297
0.12283150106668472,-0.1993677020072937,9.852824211120605,-0.0014246064003843356,0.003963751438601987,-0.0026337102734932446,3.6099483966827393,2019-07-26 12:01:08:525,-141.52227780837995,-178.5366000837631,0,10.19584846496582,23.39047622680664,-73.47008514404297
0.16114749014377594,-0.20894670486450195,9.766613006591797,-0.0048875611890814175,0.000767177712475548,0.0024275314107763475,3.6199450492858887,2019-07-26 12:01:08:535,-142.2733571761506,-178.53861268799332,0,10.19584846496582,23.39047622680664,-73.47008514404297
0.09648925811052322,-0.1993677020072937,9.79295539855957,-0.002223749913189172,0.005828419591800884,0.0021611501531499603,3.629938840866089,2019-07-26 12:01:08:545,-143.01987039511974,-178.54326693164433,0,10.19584846496582,23.39047622680664,-73.47008514404297
0.12283150106668472,-0.21613094210624695,9.828876495361328,-0.006485847954616764,0.002365464673066639,0.010152584891086835,3.6399381160736084,2019-07-26 12:01:08:555,-143.74648133077315,-178.5435661440944,0,10.19584846496582,23.39047622680664,-73.47008514404297
0.10127875208854675,-0.24726270139217377,9.838455200195312,-9.270064052837282e-05,0.00502927620903321,0.009619822635908387,3.6499383449554443,2019-07-26 12:01:08:565,-144.46257986477477,-178.54384937126287,0,10.19584846496582,23.39047622680664,-73.47008514404297
0.13241049647331238,-0.23528894782066345,9.778586387634277,-0.004354798933902968,0.0028982269282450887,0.017611257503882427,3.659937620162964,2019-07-26 12:01:08:575,-145.15943976248894,-178.5429600439659,0,11.245421409606934,24.14017105102539,-73.62002563476562
0.10127875208854675,-0.2520521879196167,9.809718132019043,0.0039030165415116433,0.0010335588400647727,0.013082776774419656,3.6703500747680664,2019-07-26 12:01:08:585,-145.84502485697774,-178.54494594349399,0,11.245421409606934,24.14017105102539,-73.62002563476562
0.10127875208854675,-0.1921834498643875,9.749850273132324,-0.0024901310407783963,0.002631845800655864,0.02027506773947737,3.6799538135528564,2019-07-26 12:01:08:595,-146.51764055249672,-178.5501195195131,0,11.245421409606934,24.14017105102539,-73.62002563476562
0.07254175841808319,-0.23049944639205933,9.754639625549316,-0.0024901310407783963,-0.0005647280555077374,0.021074211642393696,3.6904103755950928,2019-07-26 12:01:08:605,-147.17843456369175,-178.55058245560056,0,11.245421409606934,24.14017105102539,-73.62002563476562
0.1180419996380806,-0.23049944639205933,9.83366584777832,0.0012392051355822353,0.0028982269282450887,0.018943162621679895,3.6999731063842773,2019-07-26 12:01:08:615,-147.82266730817642,-178.55338104481126,0,11.245421409606934,24.14017105102539,-73.62002563476562
0.07254175841808319,-0.2257099449634552,9.778586387634277,-0.0030228932959568454,0.0028982269282450887,0.023205260663107494,3.709975481033325,2019-07-26 12:01:08:625,-148.45934096029717,-178.554170270653,0,11.245421409606934,24.14017105102539,-73.62002563476562
0.07493650913238525,-0.2592364549636841,9.783376693725586,0.002038348518349909,0.003430989183423538,0.024004404566023815,3.719975709915161,2019-07-26 12:01:08:635,-149.08330362599358,-178.55387445885555,0,11.245421409606934,24.14017105102539,-73.62002563476562
0.031831011176109314,-0.2257099449634552,9.860008239746094,-0.0030228932959568454,0.004496513953854761,0.016545731953228227,3.7299623489379883,2019-07-26 12:01:08:645,-149.7004596263388,-178.5548747912202,0,11.245421409606934,24.14017105102539,-73.62002563476562
0.060568008571863174,-0.26881542801856995,9.82169246673584,-0.0030228932959568454,-0.0018966337584724418,0.02267249736763174,3.7399518489837646,2019-07-26 12:01:08:655,-150.29832009924945,-178.55072634631205,0,11.245421409606934,24.14017105102539,-73.62002563476562
0.06775225698947906,-0.2975524365901947,9.814508438110352,-0.002756512168367621,0.004496513953854761,0.02080783103495312,3.7499492168426514,2019-07-26 12:01:08:665,-150.88696737365154,-178.54343366570632,0,11.245421409606934,24.14017105102539,-73.62002563476562
0.06775225698947906,-0.29994720220565796,9.82169246673584,0.0012392051355822353,0.0031646080558343135,0.02027506773947737,3.759953737258911,2019-07-26 12:01:08:675,-151.46310109289175,-178.5382765802019,0,11.245421409606934,24.14017105102539,-73.62002563476562
0.060568008571863174,-0.26881542801856995,9.80492877960205,-9.270064052837282e-05,0.0063611818469793335,0.020541448346917943,3.7699458599090576,2019-07-26 12:01:08:685,-152.03032947544398,-178.5360500753831,0,11.245421409606934,24.14017105102539,-73.62002563476562
0.0390152633190155,-0.29994720220565796,9.802534103393555,0.004702159924279317,0.002365464673066639,0.018144018718763574,3.779956340789795,2019-07-26 12:01:08:695,-152.58649162558035,-178.5329192265552,0,9.296215057373047,23.090599060058594,-73.76996612548828
0.05577851086854935,-0.2831839323043823,9.783376693725586,-0.0008918440801873052,0.003430989183423538,0.009353440988170512,3.7899508476257324,2019-07-26 12:01:08:705,-153.13015402893035,-178.5286006003487,0,9.296215057373047,23.090599060058594,-73.76996612548828
0.06775225698947906,-0.24965745210647583,9.819297790527344,-0.0006254629525980806,0.00556203846421166,0.01281639616697908,3.799952268600464,2019-07-26 12:01:08:715,-153.66276788183143,-178.52854850282333,0,9.296215057373047,23.090599060058594,-73.76996612548828
0.06296275556087494,-0.22810469567775726,9.83366584777832,-0.002756512168367621,0.0063611818469793335,0.006689629712278266,3.8099520206451416,2019-07-26 12:01:08:725,-154.18574729048163,-178.52985355363978,0,9.296215057373047,23.090599060058594,-73.76996612548828
0.065357506275177,-0.2065519541501999,9.814508438110352,0.0033702542863331946,0.0063611818469793335,0.00748877309504594,3.8199496269226074,2019-07-26 12:01:08:735,-154.69797243090397,-178.53703553210366,0,9.296215057373047,23.090599060058594,-73.76996612548828
0.01506776548922062,-0.28078919649124146,9.831271171569824,-0.005420323444259867,0.003697370311012762,0.0018947690255607357,3.829951047897339,2019-07-26 12:01:08:745,-155.20433307495142,-178.53053148701642,0,9.296215057373047,23.090599060058594,-73.76996612548828
-0.0040902323089540005,-0.22092044353485107,9.915087699890137,-0.001158225272795111,0.003430989183423538,-0.0063630465798910395,3.8399527072906494,2019-07-26 12:01:08:755,-148.50264594893662,-178.53374221171313,0,9.296215057373047,23.090599060058594,-73.76996612548828
0.024646764621138573,-0.2592364549636841,9.845640182495117,0.00150558626317146,0.006094800719390108,-0.0036992350439244686,3.8499491214752197,2019-07-26 12:01:08:765,-149.133145440418,-178.53374737390422,0,9.296215057373047,23.090599060058594,-73.76996612548828
0.024646764621138573,-0.218525692820549,9.788166046142578,-9.270064052837282e-05,0.0010335588400647727,-0.005031140421796266,3.8599541187286377,2019-07-26 12:01:08:775,-149.74817773511927,-178.53744146076514,0,9.296215057373047,23.090599060058594,-73.76996612548828
0.08451550453901291,-0.2448679506778717,9.82169246673584,0.0007064428153852049,0.0028982269282450887,-0.005830284324712591,3.8699471950531006,2019-07-26 12:01:08:785,-150.34498006244854,-178.53852572988083,0,9.296215057373047,23.090599060058594,-73.76996612548828
0.005488766357302666,-0.25444695353507996,9.871981620788574,0.0039030165415116433,0.003430989183423538,-0.007961333345426386,3.8799493312835693,2019-07-26 12:01:08:795,-150.93937024593208,-178.5404181769656,0,9.296215057373047,23.090599060058594,-73.76996612548828
0.08930500596761703,-0.24247319996356964,9.766613006591797,0.0017719673907606846,0.005295657336622434,-0.012489812514443206,3.8899497985839844,2019-07-26 12:01:08:805,-151.51307863020304,-178.5421613072218,0,9.296215057373047,23.090599060058594,-73.76996612548828
0.04141001030802727,-0.24965745210647583,9.82169246673584,0.002038348518349909,0.0028982269282450887,-0.017284672811049246,3.8999483585357666,2019-07-26 12:01:08:815,-152.0796128174842,-178.54334070615215,0,9.296215057373047,23.090599060058594,-73.76996612548828
0.06296275556087494,-0.29994720220565796,9.754639625549316,-0.0003590817924995654,0.003697370311012762,-0.017817436106524996,3.9099502563476562,2019-07-26 12:01:08:825,-152.63270064560118,-178.53704736030733,0,11.69523811340332,23.39047622680664,-75.26935577392578
0.11564724892377853,-0.2520521879196167,9.757034301757812,-0.0003590817924995654,0.0031646080558343135,-0.018350197321406143,3.919951915740967,2019-07-26 12:01:08:835,-153.16824228724553,-178.5365090507645,0,11.69523811340332,23.39047622680664,-75.26935577392578
0.09888400137424469,-0.23768369853496552,9.795350074768066,0.003636635413922419,0.001566321160261803,-0.016485529948430225,3.929948091506958,2019-07-26 12:01:08:845,-153.69418897415957,-178.54001992326644,0,11.69523811340332,23.39047622680664,-75.26935577392578
0.07972601056098938,-0.2257099449634552,9.816903114318848,0.0028374920311547455,0.005828419591800884,-0.019948485127238794,3.9399611949920654,2019-07-26 12:01:08:855,-154.21427601351624,-178.5444726443076,0,11.69523811340332,23.39047622680664,-75.26935577392578
0.06775225698947906,-0.20894670486450195,9.769007682800293,-0.0030228932959568454,0.00849223086769313,-0.019948485127238794,3.949946880340576,2019-07-26 12:01:08:865,-154.72680475501951,-178.5473823236453,0,11.69523811340332,23.39047622680664,-75.26935577392578
0.09888400137424469,-0.2448679506778717,9.838455200195312,0.005767684434636216,0.0018327022878510278,-0.013821718672537979,3.9599497318267822,2019-07-26 12:01:08:875,-155.2217810726599,-178.55115949985063,0,11.69523811340332,23.39047622680664,-75.26935577392578
0.08930500596761703,-0.22810469567775726,9.795350074768066,-0.002756512168367621,0.006893944102157782,-0.011957050259264756,3.969949960708618,2019-07-26 12:01:08:885,-155.71076936354297,-178.5519083380314,0,11.69523811340332,23.39047622680664,-75.26935577392578
0.10127875208854675,-0.2328941971063614,9.790560722351074,0.0007064428153852049,0.005295657336622434,-0.017551053418489823,3.9799511432647705,2019-07-26 12:01:08:895,-156.1876742965452,-178.5540134130271,0,11.69523811340332,23.39047622680664,-75.26935577392578
0.12283150106668472,-0.2520521879196167,9.824087142944336,-9.270064052837282e-05,0.0005007965523770329,-0.017551053418489823,3.9899487495422363,2019-07-26 12:01:08:905,-156.64987519419577,-178.55348731317042,0,11.69523811340332,23.39047622680664,-75.26935577392578
0.09648925811052322,-0.2257099449634552,9.843245506286621,-0.002223749913189172,0.007426706357336231,-0.013555337024800104,3.999945640563965,2019-07-26 12:01:08:915,-157.10981390329457,-178.55489757846922,0,11.69523811340332,23.39047622680664,-75.26935577392578
0.10846300423145294,-0.22331519424915314,9.840849876403809,0.00044006165528668966,-3.1965737342537616e-05,-0.015952767693251775,4.009957313537598,2019-07-26 12:01:08:925,-157.55497021637177,-178.55804758313627,0,11.69523811340332,23.39047622680664,-75.26935577392578
0.10367350280284882,-0.2328941971063614,9.783376693725586,-0.0019573686555627847,0.0020990834154402524,-0.010891525748907857,4.0199501514434814,2019-07-26 12:01:08:935,-157.99290589747704,-178.55851488202737,0,11.69523811340332,23.39047622680664,-75.26935577392578
0.10367350280284882,-0.22331519424915314,9.826481819152832,0.0017719673907606846,0.006893944102157782,-0.004764759294207041,4.029955625534058,2019-07-26 12:01:08:945,-158.42483139741236,-178.56230265740442,0,10.19584846496582,23.990232467651367,-74.06983947753906
0.08930500596761703,-0.2257099449634552,9.80492877960205,0.00017368051144281974,0.0020990834154402524,-0.006096665452301814,4.0399463176727295,2019-07-26 12:01:08:955,-158.84707539390695,-178.56477965948363,0,10.19584846496582,23.990232467651367,-74.06983947753906
0.11564724892377853,-0.1921834498643875,9.785771369934082,-0.0008918440801873052,0.00023441540853316294,-0.005563903197123366,4.049954414367676,2019-07-26 12:01:08:965,-159.2567239332508,-178.57048106763432,0,10.19584846496582,23.990232467651367,-74.06983947753906
0.09409450739622116,-0.24007844924926758,9.924666404724121,0.003636635413922419,0.004496513953854761,0.0018947690255607357,4.059948444366455,2019-07-26 12:01:08:975,-159.66324877842402,-178.5733978110931,0,10.19584846496582,23.990232467651367,-74.06983947753906
0.065357506275177,-0.18499919772148132,9.819297790527344,-0.0008918440801873052,0.003963751438601987,-0.00023628007642628753,4.069951295852661,2019-07-26 12:01:08:985,-160.06458294663378,-178.5798420237259,0,10.19584846496582,23.990232467651367,-74.06983947753906
0.03422576189041138,-0.20894670486450195,9.78098201751709,0.00150558626317146,0.00502927620903321,0.0018947690255607357,4.079941749572754,2019-07-26 12:01:08:995,-160.46210273464848,-178.58461380605414,0,10.19584846496582,23.990232467651367,-74.06983947753906
0.027041513472795486,-0.1873939484357834,9.819297790527344,-0.0006254629525980806,0.005295657336622434,0.004025818176311695,4.089952230453491,2019-07-26 12:01:09:005,-160.85268155445019,-178.59070367831927,0,10.19584846496582,23.990232467651367,-74.06983947753906
0.053383760154247284,-0.20894670486450195,9.826481819152832,-0.0008918440801873052,0.004230132566191211,0.00748877309504594,4.099948167800903,2019-07-26 12:01:09:015,-161.23177688388347,-178.59402638154435,0,10.19584846496582,23.990232467651367,-74.06983947753906
0.08212075382471085,-0.1993677020072937,9.816903114318848,-0.0019573686555627847,0.005828419591800884,0.007755154222635165,4.109955787658691,2019-07-26 12:01:09:025,-161.60083085386816,-178.59777719714725,0,10.19584846496582,23.990232467651367,-74.06983947753906
0.06775225698947906,-0.19457820057868958,9.836060523986816,0.0009728239429744294,0.007426706357336231,0.007222391967456715,4.1199493408203125,2019-07-26 12:01:09:035,-161.9650885206623,-178.603701848688,0,10.19584846496582,23.990232467651367,-74.06983947753906
0.065357506275177,-0.24007844924926758,9.802534103393555,0.00017368051144281974,0.004762895081443986,0.00748877309504594,4.129951000213623,2019-07-26 12:01:09:045,-162.3208213781755,-178.603665803823,0,10.19584846496582,23.990232467651367,-74.06983947753906
0.0916997566819191,-0.24726270139217377,9.814508438110352,-0.0048875611890814175,0.004230132566191211,0.008287916477813613,4.139948606491089,2019-07-26 12:01:09:055,-162.66607329047935,-178.59998516389683,0,10.19584846496582,23.990232467651367,-74.06983947753906
0.04380476102232933,-0.20415720343589783,9.802534103393555,-0.0038220366787245193,0.002365464673066639,0.011218109401443733,4.149949312210083,2019-07-26 12:01:09:065,-163.0089593840099,-178.60197672698172,0,10.19584846496582,23.990232467651367,-74.06983947753906
0.027041513472795486,-0.22331519424915314,9.769007682800293,0.00017368051144281974,0.003697370311012762,0.01041896549852741,4.159947872161865,2019-07-26 12:01:09:075,-163.3476839739167,-178.6038441376844,0,10.795604705810547,23.690353393554688,-74.66959381103516
0.0916997566819191,-0.1873939484357834,9.745059967041016,-0.0014246064003843356,0.006094800719390108,0.00988620324334896,4.169959306716919,2019-07-26 12:01:09:085,-163.6733738303279,-178.60893360239635,0,10.795604705810547,23.690353393554688,-74.66959381103516
0.09409450739622116,-0.21134145557880402,9.812113761901855,0.0009728239429744294,0.00502927620903321,0.01095172775370586,4.179964303970337,2019-07-26 12:01:09:095,-163.9917431308342,-178.61262357664714,0,10.795604705810547,23.690353393554688,-74.66959381103516
0.10846300423145294,-0.218525692820549,9.78098201751709,-0.001158225272795111,0.004230132566191211,0.011484490008884308,4.189967393875122,2019-07-26 12:01:09:105,-164.3015774801265,-178.61412289270595,0,10.795604705810547,23.690353393554688,-74.66959381103516
0.10606825351715088,-0.2257099449634552,9.824087142944336,-0.002223749913189172,0.00502927620903321,0.009353440988170512,4.199962615966797,2019-07-26 12:01:09:115,-164.60599682483868,-178.61426943917843,0,10.795604705810547,23.690353393554688,-74.66959381103516
0.07733125984668732,-0.26163119077682495,9.843245506286621,-0.002223749913189172,0.002631845800655864,0.01095172775370586,4.209959268569946,2019-07-26 12:01:09:125,-164.90635172682082,-178.61028483394335,0,10.795604705810547,23.690353393554688,-74.66959381103516
0.08930500596761703,-0.2448679506778717,9.86240291595459,0.00150558626317146,0.002631845800655864,0.014681063539955002,4.219963550567627,2019-07-26 12:01:09:135,-165.19932701072563,-178.61047944644446,0,10.795604705810547,23.690353393554688,-74.66959381103516
0.07972601056098938,-0.24007844924926758,9.860008239746094,-0.005153942316670643,0.002365464673066639,0.013082776774419656,4.2299644947052,2019-07-26 12:01:09:145,-165.48740336386984,-178.60747960195764,0,10.795604705810547,23.690353393554688,-74.66959381103516
0.08212075382471085,-0.24965745210647583,9.85042953491211,0.0028374920311547455,-0.0008311091830969619,0.013082776774419656,4.239961862564087,2019-07-26 12:01:09:155,-165.7676357406982,-178.60788602008998,0,10.795604705810547,23.690353393554688,-74.66959381103516
0.110857754945755,-0.23049944639205933,9.773797035217285,-0.0016909875279735602,0.0020990834154402524,0.012550014519241206,4.249960660934448,2019-07-26 12:01:09:165,-166.04046470678915,-178.60775933979428,0,10.795604705810547,23.690353393554688,-74.66959381103516
0.09888400137424469,-0.2736049294471741,9.797744750976562,-0.0008918440801873052,0.00556203846421166,0.01441468293251443,4.259957551956177,2019-07-26 12:01:09:175,-166.31121272758054,-178.6031118207866,0,10.795604705810547,23.690353393554688,-74.66959381103516
0.03662051260471344,-0.29515770077705383,9.761823654174805,0.0007064428153852049,0.0020990834154402524,0.016545731953228227,4.269968032836914,2019-07-26 12:01:09:185,-166.5818695723785,-178.5968094095034,0,10.795604705810547,23.690353393554688,-74.66959381103516
0.08691025525331497,-0.25444695353507996,9.785771369934082,0.0017719673907606846,0.006094800719390108,0.01441468293251443,4.279959440231323,2019-07-26 12:01:09:195,-166.84347452368493,-178.59607825172117,0,9.59609317779541,24.290109634399414,-74.36972045898438
0.060568008571863174,-0.2592364549636841,9.75224494934082,0.0039030165415116433,0.0012999400326725785,0.01281639616697908,4.289961338043213,2019-07-26 12:01:09:205,-167.10021827029075,-178.59589481667618,0,9.59609317779541,24.290109634399414,-74.36972045898438
0.060568008571863174,-0.23049944639205933,9.85042953491211,0.0007064428153852049,0.0018327022878510278,0.011484490008884308,4.299960613250732,2019-07-26 12:01:09:215,-167.35219700951293,-178.59756409633158,0,9.59609317779541,24.290109634399414,-74.36972045898438
0.031831011176109314,-0.26163119077682495,9.7642183303833,0.00044006165528668966,-0.0008311091830969619,0.00695601083986749,4.3099610805511475,2019-07-26 12:01:09:225,-167.6009507492191,-178.59516257885846,0,9.59609317779541,24.290109634399414,-74.36972045898438
0.05817325785756111,-0.2568416893482208,9.749850273132324,0.0009728239429744294,0.0012999400326725785,0.009353440988170512,4.319958686828613,2019-07-26 12:01:09:235,-167.84282435860834,-178.59362539880163,0,9.59609317779541,24.290109634399414,-74.36972045898438
0.060568008571863174,-0.24247319996356964,9.812113761901855,-0.0016909875279735602,0.003963751438601987,0.008820678732992063,4.329961538314819,2019-07-26 12:01:09:245,-168.08112075340154,-178.59249146742005,0,9.59609317779541,24.290109634399414,-74.36972045898438
0.09409450739622116,-0.25444695353507996,9.836060523986816,0.002038348518349909,0.002365464673066639,0.006156867457099816,4.339960098266602,2019-07-26 12:01:09:255,-168.30986453744003,-178.59214916672744,0,9.59609317779541,24.290109634399414,-74.36972045898438
0.07972601056098938,-0.22331519424915314,9.831271171569824,0.0017719673907606846,0.0028982269282450887,0.0013620067703822866,4.3499674797058105,2019-07-26 12:01:09:265,-168.53600327921444,-178.59527712608374,0,9.59609317779541,24.290109634399414,-74.36972045898438
0.05817325785756111,-0.24726270139217377,9.807323455810547,0.0009728239429744294,0.002631845800655864,3.010106944941304e-05,4.36003041267395,2019-07-26 12:01:09:275,-168.75997324223056,-178.59503650177192,0,9.59609317779541,24.290109634399414,-74.36972045898438
0.10127875208854675,-0.20176245272159576,9.812113761901855,-9.270064052837282e-05,0.00556203846421166,0.005357724074332143,4.369994401931763,2019-07-26 12:01:09:285,-168.97605810755792,-178.59952423785086,0,9.59609317779541,24.290109634399414,-74.36972045898438
0.024646764621138573,-0.2328941971063614,9.857613563537598,-0.0014246064003843356,0.004496513953854761,-0.0023673291459040203,4.379963397979736,2019-07-26 12:01:09:295,-169.19618880359545,-178.5996681594298,0,9.59609317779541,24.290109634399414,-74.36972045898438
0.09409450739622116,-0.26881542801856995,9.816903114318848,-0.005153942316670643,0.0005007965523770329,-0.004231997299102917,4.389971971511841,2019-07-26 12:01:09:305,-169.40156326000664,-178.59340771305503,0,9.59609317779541,24.290109634399414,-74.36972045898438
0.04380476102232933,-0.22092044353485107,9.783376693725586,-9.270064052837282e-05,0.003430989183423538,-0.0013018046355471218,4.399960041046143,2019-07-26 12:01:09:315,-169.61032542548637,-178.59561581055289,0,9.59609317779541,24.290109634399414,-74.36972045898438
0.02225201390683651,-0.28797343373298645,9.819297790527344,0.0009728239429744294,0.0031646080558343135,-0.0015681857631363464,4.409956216812134,2019-07-26 12:01:09:325,-169.81729834696117,-178.59065255122164,0,10.495726585388184,23.690353393554688,-74.06983947753906
-0.020853480324149132,-0.23049944639205933,9.802534103393555,0.0012392051355822353,0.0010335588400647727,-0.0021009480183147955,4.419955253601074,2019-07-26 12:01:09:335,-162.82397043280224,-178.59259483966315,0,10.495726585388184,23.690353393554688,-74.06983947753906
0.0030940165743231773,-0.2448679506778717,9.831271171569824,0.004702159924279317,0.0031646080558343135,-0.007694952217837162,4.42999267578125,2019-07-26 12:01:09:345,-163.16891396380586,-178.59485760396535,0,10.495726585388184,23.690353393554688,-74.06983947753906
0.0390152633190155,-0.1993677020072937,9.788166046142578,0.00017368051144281974,0.00502927620903321,-0.008227714473015612,4.4399778842926025,2019-07-26 12:01:09:355,-163.50378788682022,-178.59972077367578,0,10.495726585388184,23.690353393554688,-74.06983947753906
0.05577851086854935,-0.24247319996356964,9.785771369934082,-0.005153942316670643,0.004762895081443986,-0.007961333345426386,4.449955224990845,2019-07-26 12:01:09:365,-163.82984882534467,-178.5964511373363,0,10.495726585388184,23.690353393554688,-74.06983947753906
0.053383760154247284,-0.16344645619392395,9.843245506286621,-0.004088417806313744,0.0028982269282450887,-0.010358763493729408,4.459960460662842,2019-07-26 12:01:09:375,-164.14866536501347,-178.60319916575352,0,10.495726585388184,23.690353393554688,-74.06983947753906
0.027041513472795486,-0.22092044353485107,9.814508438110352,0.005234922179457767,0.001566321160261803,-0.009026857335634634,4.469958066940308,2019-07-26 12:01:09:385,-164.4634140480449,-178.6082841592433,0,10.495726585388184,23.690353393554688,-74.06983947753906
0.03422576189041138,-0.2448679506778717,9.860008239746094,0.0025711109035655207,0.004230132566191211,-0.006629427707480263,4.479971170425415,2019-07-26 12:01:09:395,-164.77254644161582,-178.60911169996282,0,10.495726585388184,23.690353393554688,-74.06983947753906
0.04619951173663139,-0.20176245272159576,9.83366584777832,0.00044006165528668966,0.0018327022878510278,-0.011157907396645732,4.489955902099609,2019-07-26 12:01:09:405,-165.072739418933,-178.61366813303601,0,10.495726585388184,23.690353393554688,-74.06983947753906
0.07972601056098938,-0.22092044353485107,9.79295539855957,-0.0008918440801873052,0.004230132566191211,-0.006629427707480263,4.499960660934448,2019-07-26 12:01:09:415,-165.36433209921657,-178.61504730092284,0,10.495726585388184,23.690353393554688,-74.06983947753906
0.06296275556087494,-0.20415720343589783,9.800139427185059,-0.0014246064003843356,0.004762895081443986,-0.011157907396645732,4.509984970092773,2019-07-26 12:01:09:425,-165.65236427829143,-178.61807615288464,0,10.495726585388184,23.690353393554688,-74.06983947753906
0.065357506275177,-0.23768369853496552,9.816903114318848,0.00017368051144281974,0.0031646080558343135,-0.007428571090247938,4.519984483718872,2019-07-26 12:01:09:435,-165.93346483705687,-178.6180730264342,0,10.495726585388184,23.690353393554688,-74.06983947753906
