ACCELEROMETER X (m/s²),ACCELEROMETER Y (m/s²),ACCELEROMETER Z (m/s²),GYROSCOPE X (rad/s),GYROSCOPE Y (rad/s),GYROSCOPE Z (rad/s),Pitch (Deg),Roll (Deg),Heading (Deg),Time since start in ms ,YYYY-MO-DD HH-MI-SS_SSS
-0.4306023418903351,0.29658734798431396,9.75278091430664,-0.0029235329403103213,-0.004884098039367014,0.007944551269369684,3.5494386589820968,3.5651628229803025,0,0.0,2019-08-07 13:53:33:554
-0.2845225930213928,0.33729809522628784,9.83899211883545,-0.0026571518127210965,-0.0035521926614952163,0.014870461106838175,7.045948974260977,7.0550601537076485,0,0.003144979476928711,2019-08-07 13:53:33:557
-0.2773383557796478,0.31574535369873047,9.776728630065918,0.003203233254316169,-0.001687524508296319,0.005547121121066663,10.472819027459437,10.476419512030251,0,0.006170988082885742,2019-08-07 13:53:33:560
-0.3252333402633667,0.18403412401676178,9.807860374450684,-0.004788200833434893,-0.008347053218175584,0.005280739993477438,13.827168927542452,13.846419409602584,0,0.009993314743041992,2019-08-07 13:53:33:564
-0.38749682903289795,0.2870083451271057,9.747991561889648,-0.005853725863940442,-0.008613434345764809,0.006079883376245113,17.106609186933913,17.136788987114663,0,0.013118505477905273,2019-08-07 13:53:33:567
-0.34918084740638733,0.3732193410396576,9.745596885681152,-0.0018580084299534227,-0.003019430146242442,0.0036824529678677657,20.323939422859404,20.35049967973309,0,0.016082763671875,2019-08-07 13:53:33:570
-0.3587598502635956,0.3396928608417511,9.743202209472656,0.0008058029759759856,-0.005150479166956239,0.0034160718402785413,23.476357335032482,23.50338624898943,0,0.019789695739746094,2019-08-07 13:53:33:574
-0.25578561425209045,0.26306086778640747,9.764754295349121,-0.0034562954555630953,-0.003019430146242442,0.004215215223046215,26.57740991429589,26.603130430607816,0,0.023268938064575195,2019-08-07 13:53:33:578
-0.30128586292266846,0.27742937207221985,9.795886039733887,-0.007984774884654239,-0.007547909835407911,0.00021949806538816636,29.611924830054498,29.639994239771518,0,0.02632737159729004,2019-08-07 13:53:33:581
-0.4018653333187103,0.31814008951187134,9.78151798248291,-0.0018580084299534227,-0.004884098039367014,-0.0016451699740282137,32.57363597363101,32.61031826319547,0,0.029981613159179688,2019-08-07 13:53:33:584
-0.19591686129570007,0.3660351037979126,9.85096549987793,-0.002390770685131872,-0.006216004197461787,-0.00031326423855421875,35.500468382041966,35.5159724429284,0,0.033110857009887695,2019-08-07 13:53:33:587
-0.3443913459777832,0.3133505880832672,9.78151798248291,-0.0031899140678995457,-0.00435133604426289,0.00021949806538816636,38.35085182459458,38.3694854502639,0,0.03606581687927246,2019-08-07 13:53:33:590
-0.2533908486366272,0.23671860992908478,9.819833755493164,-0.0077183937570650145,-0.008347053218175584,-0.005374506150388846,41.15579924462437,41.175889523869365,0,0.039324045181274414,2019-08-07 13:53:33:594
-0.2653646171092987,0.3277190923690796,9.86054515838623,-0.005853725863940442,-0.0056832419422833385,-0.0027106946144222744,43.90315386901803,43.915641614227866,0,0.04340338706970215,2019-08-07 13:53:33:598
-0.25099611282348633,0.42829859256744385,9.709675788879395,-0.0015916273023641983,-0.0019539056358855436,-0.0016451699740282137,46.5958099817371,46.587087210348095,0,0.04645347595214844,2019-08-07 13:53:33:601
-0.3036805987358093,0.28940311074256897,9.767149925231934,-0.00025972161565413924,-0.004084954916673665,-0.008038317426281092,49.22907941416632,49.22145268547854,0,0.04995441436767578,2019-08-07 13:53:33:604
-0.2797331213951111,0.22713960707187653,9.750386238098145,-0.0034562954555630953,-0.005150479166956239,-0.006706411788334968,51.81274064460977,51.81107837386369,0,0.05379080772399902,2019-08-07 13:53:33:608
-0.21507486701011658,0.2941926121711731,9.889281272888184,-0.004521819705845669,-0.004084954916673665,-0.008304698553870315,54.352267061990275,54.341551183723375,0,0.056838274002075195,2019-08-07 13:53:33:611
-0.239022359251976,0.31814008951187134,9.776728630065918,0.0005394218158774704,-0.0027530490186532175,-0.0051081250227996205,56.83770298776844,56.81734836255114,0,0.06001543998718262,2019-08-07 13:53:33:614
-0.1743641197681427,0.3468770980834961,9.865334510803223,-0.004788200833434893,-0.0064823853250510115,-0.007239174043513418,59.281832816488674,59.24156470685797,0,0.06313419342041016,2019-08-07 13:53:33:617
-0.2198643684387207,0.19361311197280884,9.817439079284668,-0.0021243895575426474,-0.004884098039367014,-0.010968509829762562,61.671345816778704,61.63448899935675,0,0.06608223915100098,2019-08-07 13:53:33:620
-0.24141710996627808,0.2534818649291992,9.829413414001465,-0.007185631501886564,-0.00435133604426289,-0.010968509829762562,64.01057651007525,63.973569967090306,0,0.06934189796447754,2019-08-07 13:53:33:624
-0.3108648657798767,0.334903359413147,9.831808090209961,0.0005394218158774704,-0.0046177169117777896,-0.011234891477500435,66.29508208206863,66.25497059585611,0,0.07295536994934082,2019-08-07 13:53:33:627
-0.2078906148672104,0.30377161502838135,9.78151798248291,-0.004788200833434893,-0.0038185737890844406,-0.012833178243035783,68.54562716720896,68.495295662861,0,0.0766756534576416,2019-08-07 13:53:33:631
-0.2653646171092987,0.2415081113576889,9.762359619140625,-0.004788200833434893,-0.008613434345764809,-0.010968509829762562,70.74536462932556,70.6980427380805,0,0.08037900924682617,2019-08-07 13:53:33:635
-0.2845225930213928,0.26545560359954834,9.858149528503418,-0.005853725863940442,-0.006748766452640236,-0.013099558850476358,72.89872664407342,72.85438901459248,0,0.08389711380004883,2019-08-07 13:53:33:638
-0.1743641197681427,0.2606661021709442,9.704886436462402,-0.0031899140678995457,-0.007547909835407911,-0.013632321105654805,75.02126403943582,74.96699420453372,0,0.0864877700805664,2019-08-07 13:53:33:641
-0.20549586415290833,0.3253243565559387,9.745596885681152,-0.004521819705845669,-0.0046177169117777896,-0.014431465008571131,77.09767369789067,77.03038945065077,0,0.09032201766967773,2019-08-07 13:53:33:645
-0.21028536558151245,0.30377161502838135,9.898860931396484,-0.0018580084299534227,-0.0064823853250510115,-0.014431465008571131,79.13258041052885,79.05497122327952,0,0.09361791610717773,2019-08-07 13:53:33:648
-0.20549586415290833,0.2415081113576889,9.870123863220215,-0.004521819705845669,-0.0022202867634747683,-0.016296132381547052,81.12646944171942,81.04664318646047,0,0.0967874526977539,2019-08-07 13:53:33:651
-0.2198643684387207,0.26545560359954834,9.829413414001465,-0.004788200833434893,-0.007281528707818685,-0.014697845616011706,83.07961099938669,82.99562484147937,0,0.09996342658996582,2019-08-07 13:53:33:654
-0.1815483719110489,0.31095585227012634,9.829413414001465,-0.0037226765831523197,-0.003019430146242442,-0.014165083360833256,84.99738478207423,84.90012477292768,0,0.10308098793029785,2019-08-07 13:53:33:657
-0.1815483719110489,0.27024510502815247,9.867729187011719,-0.004521819705845669,-0.003019430146242442,-0.014165083360833256,86.87689409572559,86.77155201227679,0,0.10625076293945312,2019-08-07 13:53:33:661
-0.2342328578233719,0.2415081113576889,9.695306777954102,-0.004788200833434893,-0.006216004197461787,-0.01602975177410648,88.71307238510079,88.60865725115008,0,0.11024880409240723,2019-08-07 13:53:33:665
-0.1671798676252365,0.1768498718738556,9.745596885681152,-0.0077183937570650145,-0.0056832419422833385,-0.0178944201873797,90.52030649952019,90.41725521098701,0,0.11385607719421387,2019-08-07 13:53:33:668
-0.14562712609767914,0.20798161625862122,9.786307334899902,-0.0031899140678995457,-0.0027530490186532175,-0.019759088600652924,92.29325810601584,92.18503375165305,0,0.11649870872497559,2019-08-07 13:53:33:671
-0.22465386986732483,0.32292959094047546,9.807860374450684,-0.007984774884654239,-0.008080672090586358,-0.0189599446977366,94.0228466418799,93.90529348710878,0,0.1202385425567627,2019-08-07 13:53:33:675
-0.21268011629581451,0.2486923635005951,9.834202766418457,-0.006386488119118891,-0.006216004197461787,-0.019226325305177174,95.71886838439036,95.59950680893846,0,0.1238400936126709,2019-08-07 13:53:33:678
-0.1216796264052391,0.2750346064567566,9.877307891845703,-0.008251156012243464,-0.0014211433807070943,-0.02029184981553407,97.39058571819233,97.25683979271354,0,0.1264798641204834,2019-08-07 13:53:33:681
-0.2605751156806946,0.20079736411571503,9.79349136352539,-0.0037226765831523197,-0.005150479166956239,-0.022156518228807296,99.01337375545371,98.8889933942272,0,0.13022089004516602,2019-08-07 13:53:33:684
-0.1480218768119812,0.3013768494129181,9.779123306274414,-0.009316680002451712,-0.010211721631448806,-0.01656251402928493,100.61790776099906,100.4778667188428,0,0.13396239280700684,2019-08-07 13:53:33:688
-0.1480218768119812,0.3325085937976837,9.779123306274414,-0.005853725863940442,-0.001687524508296319,-0.020558230422974645,102.1884451795251,102.03019161367935,0,0.1364891529083252,2019-08-07 13:53:33:691
-0.2773383557796478,0.2415081113576889,9.805465698242188,-0.0034562954555630953,-0.007814290962997135,-0.01656251402928493,103.71391135663562,103.56209395583885,0,0.14022135734558105,2019-08-07 13:53:33:694
-0.140837624669075,0.23432385921478271,9.74080753326416,-0.007452012629475789,-0.0027530490186532175,-0.021623754933331542,105.22362374261166,105.06480095422343,0,0.1438291072845459,2019-08-07 13:53:33:698
-0.39947059750556946,0.3277190923690796,9.874913215637207,-0.006652869246708115,-0.010744483886627255,-0.018693564090296027,106.67441473622831,106.52647634379096,0,0.14647126197814941,2019-08-07 13:53:33:701
0.0076368567533791065,0.34208759665489197,9.783912658691406,0.0026704709991377204,0.00017714346610147965,-0.020025469208093498,100.94178364489551,107.95533554800498,0,0.15021562576293945,2019-08-07 13:53:33:704
-0.0498371347784996,0.31814008951187134,9.812649726867676,-0.0007924839195965244,0.00044352460994534954,-0.021090993718450395,102.51704151265477,109.35924428942039,0,0.15369129180908203,2019-08-07 13:53:33:708
-0.37552309036254883,0.15290237963199615,9.853360176086426,-0.010648586160546484,-0.008347053218175584,-0.020025469208093498,104.02455324307958,110.75619696516696,0,0.15689945220947266,2019-08-07 13:53:33:711
-0.02588963881134987,0.2989821135997772,9.774333953857422,-0.002390770685131872,-0.0035521926614952163,-0.020025469208093498,105.54164387200625,112.10644733400112,0,0.15999245643615723,2019-08-07 13:53:33:714
-0.2342328578233719,0.29179784655570984,9.803071022033691,-0.0031899140678995457,-0.0019539056358855436,-0.020025469208093498,107.00378868054963,113.43079512281065,0,0.1632080078125,2019-08-07 13:53:33:717
-0.2462066113948822,0.2798241078853607,9.82222843170166,-0.001058865047185749,-0.007281528707818685,-0.018693564090296027,108.43622654621169,114.72972129256986,0,0.16621994972229004,2019-08-07 13:53:33:720
-0.09054788202047348,0.12177062779664993,9.834202766418457,-0.014644303594533503,-0.007814290962997135,-0.0189599446977366,109.85860557620975,116.02403852588385,0,0.16999006271362305,2019-08-07 13:53:33:724
-0.3515755832195282,0.2750346064567566,9.884491920471191,-0.007452012629475789,-0.007814290962997135,-0.018160800794820277,111.22210450496567,117.27302781749364,0,0.17320871353149414,2019-08-07 13:53:33:727
-0.07378463447093964,0.29179784655570984,9.815044403076172,-0.0029235329403103213,-0.0008883811255286454,-0.014964227263749581,112.58919621895737,118.49399688799892,0,0.1761770248413086,2019-08-07 13:53:33:730
-0.2773383557796478,0.2989821135997772,9.81025505065918,-0.00025972161565413924,-0.005150479166956239,-0.013632321105654805,113.90612391127293,119.68925965890647,0,0.17997479438781738,2019-08-07 13:53:33:734
-0.25099611282348633,0.11937587708234787,9.81025505065918,-0.009849443297927462,-0.0054168602945454634,-0.018160800794820277,115.19967941309132,120.88333107345831,0,0.1832294464111328,2019-08-07 13:53:33:738
-0.12407437711954117,0.2678503692150116,9.81025505065918,-0.004788200833434893,0.002308192665616375,-0.012034034340119461,116.48080762866394,122.03518611088086,0,0.18620848655700684,2019-08-07 13:53:33:740
-0.2845225930213928,0.2941926121711731,9.86054515838623,-0.00425543883833077,-0.001687524508296319,-0.012833178243035783,117.71849394926781,123.16120727559417,0,0.18998980522155762,2019-08-07 13:53:33:744
-0.2078906148672104,0.21756061911582947,9.870123863220215,-0.0018580084299534227,-0.004084954916673665,-0.010169366967143538,118.94072937407525,124.27306410259888,0,0.1932060718536377,2019-08-07 13:53:33:747
-0.12646912038326263,0.21037636697292328,9.81025505065918,-0.004521819705845669,-0.0046177169117777896,-0.012034034340119461,120.14792272115935,125.36379647837093,0,0.1962132453918457,2019-08-07 13:53:33:750
-0.22944335639476776,0.3253243565559387,9.767149925231934,-0.0039890577107415445,-0.0008883811255286454,-0.00963660471196509,121.31823810127108,126.41921050466489,0,0.1999814510345459,2019-08-07 13:53:33:754
-0.22465386986732483,0.32292959094047546,9.795886039733887,-0.0013252461747749735,-0.0024866678910639927,-0.009103842456786639,122.46604843916855,127.45330390669876,0,0.20320677757263184,2019-08-07 13:53:33:757
-0.07857413589954376,0.23671860992908478,9.759964942932129,-0.0013252461747749735,-0.0024866678910639927,-0.006972792915924193,123.60791644965423,128.47667090989475,0,0.20617294311523438,2019-08-07 13:53:33:760
-0.2007063627243042,0.18163937330245972,9.834202766418457,-0.0039890577107415445,-8.92376858697129e-05,-0.004841743895210396,124.71239347492431,129.48682902676546,0,0.20998740196228027,2019-08-07 13:53:33:764
-0.19591686129570007,0.24390286207199097,9.831808090209961,-0.005587344736351217,-0.00435133604426289,-0.006706411788334968,125.79610131142081,130.46968169697314,0,0.2132091522216797,2019-08-07 13:53:33:767
-0.14323237538337708,0.30377161502838135,9.894071578979492,-0.0021243895575426474,0.0031073360483840485,-0.002177932229206663,126.86306536157946,131.42547647116663,0,0.21622467041015625,2019-08-07 13:53:33:771
-0.15041662752628326,0.2726398706436157,9.807860374450684,-0.0031899140678995457,-0.0035521926614952163,-0.0013787888464389891,127.90898354088974,132.36579640161395,0,0.21999621391296387,2019-08-07 13:53:33:774
-0.15999561548233032,0.25108709931373596,9.910834312438965,-0.006120106991529666,-0.001687524508296319,0.0028833095851000918,128.9326101649632,133.2905570854751,0,0.22320222854614258,2019-08-07 13:53:33:777
-0.1025216281414032,0.3013768494129181,9.834202766418457,-0.0034562954555630953,-0.0011547622531178697,0.0026169284575108674,129.94220485148043,134.19021602080375,0,0.22617316246032715,2019-08-07 13:53:33:780
-0.10012687742710114,0.2989821135997772,9.695306777954102,-0.005587344736351217,0.004972004201582946,0.0058135022486558875,130.93046192064415,135.07228213814042,0,0.22998785972595215,2019-08-07 13:53:33:784
-0.193522110581398,0.2678503692150116,9.76954460144043,-0.0029235329403103213,-0.0003556188378409054,0.009276456907315806,131.88922059716174,135.93995357966983,0,0.23319602012634277,2019-08-07 13:53:33:787
-0.09054788202047348,0.30377161502838135,9.82222843170166,-0.0034562954555630953,-0.0008883811255286454,0.009276456907315806,132.84102107846692,136.78630352452097,0,0.23617124557495117,2019-08-07 13:53:33:790
-0.16478511691093445,0.2870083451271057,9.862939834594727,-0.001058865047185749,0.0020418114079899874,0.0124730304383865,133.76462030363044,137.61746758159663,0,0.23998069763183594,2019-08-07 13:53:33:794
-0.10970588028430939,0.2798241078853607,9.803071022033691,-0.0034562954555630953,0.00017714346610147965,0.016202366224635646,134.6764725555875,138.43304124742198,0,0.2431948184967041,2019-08-07 13:53:33:797
-0.0953373834490776,0.31095585227012634,9.795886039733887,-0.0015916273023641983,0.0009762868976330894,0.018067034637908867,135.57159790630456,139.22833197603623,0,0.24671649932861328,2019-08-07 13:53:33:801
-0.13844287395477295,0.2941926121711731,9.70249080657959,-0.0037226765831523197,0.00044352460994534954,0.01753427342302772,136.4437120404392,140.0099046963965,0,0.2508997917175293,2019-08-07 13:53:33:805
-0.0953373834490776,0.29179784655570984,9.886886596679688,-0.0031899140678995457,-0.003019430146242442,0.02099722756153899,137.30446592225792,140.7766121845881,0,0.2548966407775879,2019-08-07 13:53:33:809
-0.1480218768119812,0.33011385798454285,9.803071022033691,-0.0034562954555630953,0.0015090491528115383,0.022595513286777037,138.14086780683493,141.52298116527786,0,0.2573432922363281,2019-08-07 13:53:33:812
-0.16239036619663239,0.3133505880832672,9.736018180847168,-0.0007924839195965244,-0.003019430146242442,0.022062752071895887,138.9595636606203,142.25581726825766,0,0.26102709770202637,2019-08-07 13:53:33:815
-0.18394312262535095,0.2726398706436157,9.762359619140625,-0.0037226765831523197,0.00044352460994534954,0.022595513286777037,139.75869559020475,142.97944447008612,0,0.2645576000213623,2019-08-07 13:53:33:819
-0.13125862181186676,0.31814008951187134,9.76954460144043,0.00027304068828824584,0.0007099057700438648,0.025792086817847733,140.54803564111282,143.68251761353426,0,0.26684117317199707,2019-08-07 13:53:33:821
-0.1743641197681427,0.25108709931373596,9.800676345825195,-0.0029235329403103213,0.003906479431151722,0.025525706210407156,141.31575609414705,144.38021501514993,0,0.2710990905761719,2019-08-07 13:53:33:825
-0.19112737476825714,0.2941926121711731,9.764754295349121,-0.002390770685131872,-0.0003556188378409054,0.02845589913403728,142.06708073601806,145.05854152551018,0,0.2744104862213135,2019-08-07 13:53:33:829
-0.16478511691093445,0.3444823622703552,9.719254493713379,-0.001058865047185749,0.001242668025222314,0.02765675523112095,142.80615280107068,145.7169087945663,0,0.2767000198364258,2019-08-07 13:53:33:831
-0.1288638710975647,0.334903359413147,9.827017784118652,-0.0018580084299534227,0.0025745737932055994,0.029521423644394175,143.53449572066904,146.36389987219633,0,0.2802157402038574,2019-08-07 13:53:33:834
-0.14323237538337708,0.2989821135997772,9.8797025680542,-0.00425543883833077,0.00017714346610147965,0.02898866242951303,144.24716293144724,147.00269835302973,0,0.2833290100097656,2019-08-07 13:53:33:838
-0.2462066113948822,0.27742937207221985,9.805465698242188,-0.004788200833434893,-0.0008883811255286454,0.03085332876219165,144.93360092376076,147.63102968944574,0,0.2862987518310547,2019-08-07 13:53:33:841
-0.16239036619663239,0.27024510502815247,9.745596885681152,0.00027304068828824584,-0.0003556188378409054,0.03378352168582177,145.6159100040133,148.24658447467885,0,0.28998780250549316,2019-08-07 13:53:33:844
-0.21507486701011658,0.2558766007423401,9.82222843170166,-0.0021243895575426474,0.0009762868976330894,0.03351714107838119,146.27833297010272,148.85217968513464,0,0.2931075096130371,2019-08-07 13:53:33:847
-0.21028536558151245,0.2870083451271057,9.83899211883545,-0.005853725863940442,-0.0008883811255286454,0.03618095339457074,146.92842589768387,149.4426880070113,0,0.29605674743652344,2019-08-07 13:53:33:850
-0.20310111343860626,0.2798241078853607,9.834202766418457,-0.0029235329403103213,0.002840954920794824,0.03191885327254855,147.56560694190003,150.02184179785405,0,0.299741268157959,2019-08-07 13:53:33:854
-0.2533908486366272,0.3085611164569855,9.771939277648926,-0.004788200833434893,0.0007099057700438648,0.03564819217968959,148.18444916277713,150.58616529355345,0,0.3032078742980957,2019-08-07 13:53:33:857
-0.21028536558151245,0.22713960707187653,9.73122787475586,0.0021377086139221083,0.00017714346610147965,0.031386092057667396,148.79597241117852,151.1473479301944,0,0.306138277053833,2019-08-07 13:53:33:860
-0.2462066113948822,0.28461360931396484,9.795886039733887,-0.006120106991529666,-8.92376858697129e-05,0.033250760470940624,149.3912771392719,151.69243208993197,0,0.3099668025970459,2019-08-07 13:53:33:864
-0.21507486701011658,0.2534818649291992,9.76954460144043,-0.005853725863940442,-0.003019430146242442,0.03378352168582177,149.97875732917691,152.22988321223195,0,0.31308579444885254,2019-08-07 13:53:33:867
-0.19831161201000214,0.21756061911582947,9.82222843170166,-0.005853725863940442,-0.0003556188378409054,0.03618095339457074,150.55610831763533,152.76088108321022,0,0.31604671478271484,2019-08-07 13:53:33:870
-0.22465386986732483,0.27024510502815247,9.755175590515137,-0.006120106991529666,0.0025745737932055994,0.0324516165680243,151.11806893215473,153.27519208050708,0,0.3197293281555176,2019-08-07 13:53:33:874
-0.2581803500652313,0.2822188436985016,9.762359619140625,-0.0034562954555630953,-0.0038185737890844406,0.03511542680361924,151.6661576954847,153.777247862803,0,0.32322049140930176,2019-08-07 13:53:33:877
-0.29649636149406433,0.36124560236930847,9.724043846130371,-0.0034562954555630953,-0.0019539056358855436,0.029521423644394175,152.19822904072512,154.25972488763517,0,0.3261723518371582,2019-08-07 13:53:33:880
-0.2198643684387207,0.2606661021709442,9.7982816696167,-0.005853725863940442,-0.003019430146242442,0.0324516165680243,152.72919766780268,154.7452974857375,0,0.3299601078033447,2019-08-07 13:53:33:884
-0.2581803500652313,0.3205348551273346,9.83899211883545,-0.006652869246708115,-0.0019539056358855436,0.0292550430369536,153.24489365995038,155.21423917989438,0,0.3330817222595215,2019-08-07 13:53:33:887
-0.2198643684387207,0.27024510502815247,9.81025505065918,-0.004788200833434893,-0.0011547622531178697,0.02872227974147785,153.75450859194916,155.67918513140614,0,0.33601832389831543,2019-08-07 13:53:33:890
-0.2917068600654602,0.29179784655570984,9.805465698242188,-0.005587344736351217,-0.0046177169117777896,0.029787804251834752,154.246182281288,156.13253191595436,0,0.33927392959594727,2019-08-07 13:53:33:894
-0.32762810587882996,0.2534818649291992,9.755175590515137,-0.005587344736351217,-0.0024866678910639927,0.02792313791915613,154.72334036256038,156.58135444056538,0,0.3432338237762451,2019-08-07 13:53:33:898
-0.28212785720825195,0.2558766007423401,9.803071022033691,-0.005853725863940442,-0.0014211433807070943,0.027123994016239807,155.19614324116122,157.02081035694374,0,0.3462352752685547,2019-08-07 13:53:33:901
-0.3635493516921997,0.3085611164569855,9.755175590515137,-0.0037226765831523197,-0.005150479166956239,0.0281895185265967,155.65061260929855,157.44493928159386,0,0.3499617576599121,2019-08-07 13:53:33:904
-0.34918084740638733,0.2798241078853607,9.805465698242188,-0.005320963088613342,0.0033737171759732733,0.02845589913403728,156.09621937579973,157.86428016438578,0,0.35308265686035156,2019-08-07 13:53:33:907
-0.3372071087360382,0.28940311074256897,9.874913215637207,-0.00425543883833077,-0.0008883811255286454,0.02845589913403728,156.5353270876807,158.27412728520721,0,0.35603880882263184,2019-08-07 13:53:33:910
-0.2988910973072052,0.3205348551273346,9.82222843170166,-0.0013252461747749735,-0.0019539056358855436,0.02739037462368038,156.97016514145932,158.6715367366687,0,0.359722375869751,2019-08-07 13:53:33:914
-0.19112737476825714,0.2606661021709442,9.846176147460938,-0.005587344736351217,-0.001687524508296319,0.02286189597481221,157.4088500621638,159.0688661915126,0,0.36319637298583984,2019-08-07 13:53:33:917
-0.4761025905609131,0.20079736411571503,9.726438522338867,-0.009849443297927462,-0.005949623069872562,0.02232913267933646,157.8056039282079,159.46545431470585,0,0.36612367630004883,2019-08-07 13:53:33:920
-0.21507486701011658,0.35645610094070435,9.762359619140625,6.659528697688281e-06,-0.004084954916673665,0.01939893975570634,158.22514396185235,159.8343211754406,0,0.37002015113830566,2019-08-07 13:53:33:924
-0.32283860445022583,0.30377161502838135,9.83899211883545,-0.0029235329403103213,-0.004884098039367014,0.019665322443741515,158.6240815901247,160.20288142736803,0,0.3737649917602539,2019-08-07 13:53:33:928
-0.5814715623855591,0.3468770980834961,9.915623664855957,-0.001058865047185749,-0.008347053218175584,0.020198083658622665,158.98584147963103,160.55892566104643,0,0.37667393684387207,2019-08-07 13:53:33:931
-0.05941613391041756,0.2798241078853607,9.659385681152344,-0.0039890577107415445,-8.92376858697129e-05,0.01060836306541058,159.39909479549974,160.9153975852433,0,0.38041234016418457,2019-08-07 13:53:33:935
-0.4689183235168457,0.32292959094047546,9.913228988647461,-0.004788200833434893,0.004705623073993721,0.012206649830945928,159.755971108913,161.26076882050663,0,0.3841128349304199,2019-08-07 13:53:33:938
-0.5527345538139343,0.3253243565559387,9.774333953857422,-0.0029235329403103213,-0.0038185737890844406,0.01300579269356495,160.0966044475443,161.59779862272313,0,0.38637423515319824,2019-08-07 13:53:33:941
-0.1552061289548874,0.3133505880832672,9.862939834594727,-0.001058865047185749,-8.92376858697129e-05,0.008210932396958909,160.4766619637344,161.92969279858204,0,0.39048194885253906,2019-08-07 13:53:33:945
-0.4569445848464966,0.2750346064567566,9.79349136352539,-0.007984774884654239,-0.008080672090586358,0.0068790267590127865,160.8151246472959,162.26033258297642,0,0.3936188220977783,2019-08-07 13:53:33:948
-0.3707335889339447,0.36842983961105347,9.889281272888184,-0.006120106991529666,-0.0006219999979394207,0.009276456907315806,161.1559875337966,162.57347580096257,0,0.3965921401977539,2019-08-07 13:53:33:951
-0.41862860321998596,0.22713960707187653,9.714465141296387,-0.011714110670903381,-0.004884098039367014,0.006346264503834336,161.48444532943913,162.89744435478548,0,0.3999772071838379,2019-08-07 13:53:33:954
-0.44736558198928833,0.3205348551273346,9.867729187011719,-0.0077183937570650145,-0.004884098039367014,-0.0016451699740282137,161.80369728149853,163.2036396147471,0,0.40310144424438477,2019-08-07 13:53:33:957
-0.3563650846481323,0.3516665995121002,9.786307334899902,-0.005320963088613342,-0.003285811533905992,0.002084166072295256,162.1264627339702,163.49929576321665,0,0.40607762336730957,2019-08-07 13:53:33:960
-0.32283860445022583,0.2870083451271057,9.721649169921875,-0.0013252461747749735,-0.0035521926614952163,-0.005640887277978069,162.44654342373866,163.7957316826966,0,0.4093353748321533,2019-08-07 13:53:33:964
-0.3827073574066162,0.2031921148300171,9.738412857055664,-0.009849443297927462,-0.0046177169117777896,-0.0016451699740282137,162.75363213543778,164.09810677460206,0,0.41330575942993164,2019-08-07 13:53:33:968
-0.3443913459777832,0.4187195897102356,9.728833198547363,6.659528697688281e-06,-0.00435133604426289,-0.005907268405567294,163.05875896281742,164.36685481364458,0,0.4163625240325928,2019-08-07 13:53:33:971
-0.3515755832195282,0.30377161502838135,9.759964942932129,-0.00425543883833077,-0.001687524508296319,-0.006972792915924193,163.3566667018311,164.64472966380006,0,0.41998767852783203,2019-08-07 13:53:33:974
-0.4353918433189392,0.2989821135997772,9.841386795043945,-0.006120106991529666,-0.005150479166956239,-0.004841743895210396,163.63977476071156,164.9181077836012,0,0.42311596870422363,2019-08-07 13:53:33:977
-0.40665483474731445,0.2534818649291992,9.817439079284668,-0.006919250374297341,-0.0022202867634747683,-0.013365940498214234,163.91990631999113,165.19130479135325,0,0.42604923248291016,2019-08-07 13:53:33:980
-0.2988910973072052,0.2822188436985016,9.889281272888184,-0.0039890577107415445,-0.003019430146242442,-0.014697845616011706,164.20751064224785,165.45561231886413,0,0.42974019050598145,2019-08-07 13:53:33:984
-0.4641288220882416,0.31814008951187134,9.76954460144043,-0.0026571518127210965,-0.004884098039367014,-0.014964227263749581,164.46991211148443,165.70971429284947,0,0.43320655822753906,2019-08-07 13:53:33:987
-0.3587598502635956,0.25827136635780334,9.836597442626953,-0.0034562954555630953,0.0009762868976330894,-0.014431465008571131,164.73857772615847,165.96600914841258,0,0.4361414909362793,2019-08-07 13:53:33:990
-0.4641288220882416,0.2726398706436157,9.807860374450684,-0.006386488119118891,-0.0022202867634747683,-0.023488423346604767,164.9900985128857,166.21622093269553,0,0.4399843215942383,2019-08-07 13:53:33:994
-0.4425760805606842,0.31574535369873047,9.7982816696167,-0.005320963088613342,-0.008879815473354034,-0.017095276284463376,165.24013166047095,166.45591715876924,0,0.4431121349334717,2019-08-07 13:53:33:997
-0.1288638710975647,0.27024510502815247,9.78151798248291,-0.004788200833434893,0.00044352460994534954,-0.022689279443688443,165.520159623953,166.6959433555338,0,0.4460728168487549,2019-08-07 13:53:34:000
-0.4425760805606842,0.24629761278629303,9.81025505065918,-0.009583061650189587,-0.007015147580229461,-0.025619472367318562,165.75937800934193,166.9350135871692,0,0.44932985305786133,2019-08-07 13:53:34:004
-0.35397034883499146,0.31574535369873047,9.824623107910156,-0.008251156012243464,-0.0064823853250510115,-0.022156518228807296,166.00436963993778,167.1613407193441,0,0.4533064365386963,2019-08-07 13:53:34:008
-0.34678611159324646,0.2941926121711731,9.805465698242188,-0.00425543883833077,-0.006748766452640236,-0.025619472367318562,166.2449070965444,167.38445915032884,0,0.4563019275665283,2019-08-07 13:53:34:011
-0.37312835454940796,0.27742937207221985,9.815044403076172,-0.0039890577107415445,-0.009945339983710931,-0.024553947856961668,166.4785259816377,167.60521436961733,0,0.4599893093109131,2019-08-07 13:53:34:014
-0.3707335889339447,0.2486923635005951,9.697701454162598,-0.006120106991529666,-0.004084954916673665,-0.028016904076067536,166.7058841399217,167.82480072084897,0,0.4631047248840332,2019-08-07 13:53:34:017
-0.44736558198928833,0.2989821135997772,9.755175590515137,-0.007185631501886564,-0.0064823853250510115,-0.03201261942945995,166.9203249672488,168.03438400438006,0,0.4660515785217285,2019-08-07 13:53:34:020
-0.40665483474731445,0.37561410665512085,9.652201652526855,-0.006919250374297341,-0.0046177169117777896,-0.033877287842733174,167.1346237692759,168.23055678650925,0,0.46973514556884766,2019-08-07 13:53:34:024
-0.3635493516921997,0.31574535369873047,9.762359619140625,-0.0015916273023641983,-0.0046177169117777896,-0.0346764317456495,167.3501771646277,168.42920625187134,0,0.4732060432434082,2019-08-07 13:53:34:027
-0.37552309036254883,0.24629761278629303,9.788702011108398,-0.009583061650189587,-0.003019430146242442,-0.039204910394517664,167.5597337594482,168.63337986003552,0,0.4761507511138916,2019-08-07 13:53:34:030
-0.3515755832195282,0.23671860992908478,9.774333953857422,-0.01038220555310591,-0.0056832419422833385,-0.0389385318676717,167.7685618298825,168.835199140559,0,0.4799823760986328,2019-08-07 13:53:34:034
-0.44018134474754333,0.36364033818244934,9.81025505065918,-0.005853725863940442,-0.0022202867634747683,-0.04053681551231514,167.9621981771171,169.017066196622,0,0.4831089973449707,2019-08-07 13:53:34:037
-0.45215508341789246,0.31574535369873047,9.834202766418457,-0.002390770685131872,-0.0019539056358855436,-0.04346700843594526,168.15062534619065,169.20033821112358,0,0.48603248596191406,2019-08-07 13:53:34:040
-0.37312835454940796,0.2223501205444336,9.884491920471191,-0.009849443297927462,-0.007015147580229461,-0.046663584047610555,168.34582712284097,169.39259551336573,0,0.489715576171875,2019-08-07 13:53:34:044
-0.3970758318901062,0.19121836125850677,9.78151798248291,-0.011714110670903381,-0.0056832419422833385,-0.049061011595170324,168.5335266074802,169.5846295510362,0,0.49318885803222656,2019-08-07 13:53:34:047
-0.2917068600654602,0.3205348551273346,9.762359619140625,-0.0077183937570650145,-0.0046177169117777896,-0.046663584047610555,168.72939554673147,169.75661302155305,0,0.49615907669067383,2019-08-07 13:53:34:050
-0.32283860445022583,0.334903359413147,9.714465141296387,-0.0015916273023641983,-0.005150479166956239,-0.04826187185344321,168.9178495192464,169.92233425776294,0,0.4999966621398926,2019-08-07 13:53:34:054
-0.41862860321998596,0.15529713034629822,9.886886596679688,-0.008251156012243464,-0.003019430146242442,-0.051192060615884126,169.0915316935226,170.10733894616763,0,0.5031247138977051,2019-08-07 13:53:34:057
-0.4425760805606842,0.16727086901664734,9.843781471252441,-0.008517537139832687,-0.009678958335973056,-0.053855875012668274,169.25980644349542,170.28712214427566,0,0.5060522556304932,2019-08-07 13:53:34:060
-0.36833885312080383,0.2941926121711731,9.79349136352539,-0.007452012629475789,-0.008347053218175584,-0.05518778013046575,169.4333286843554,170.44857116146545,0,0.5098855495452881,2019-08-07 13:53:34:064
-0.42102333903312683,0.26545560359954834,9.812649726867676,-0.008783917747273263,-0.007547909835407911,-0.05438863622754942,169.5969544668111,170.61027064536128,0,0.5132575035095215,2019-08-07 13:53:34:068
-0.3372071087360382,0.2415081113576889,9.747991561889648,-0.006120106991529666,-0.008080672090586358,-0.05944987817189334,169.76672722499504,170.7706927185713,0,0.5162022113800049,2019-08-07 13:53:34:070
-0.39947059750556946,0.20079736411571503,9.771939277648926,-0.009583061650189587,-0.004084954916673665,-0.06078178328969081,169.92544226761632,170.93377132223867,0,0.5199856758117676,2019-08-07 13:53:34:074
-0.3970758318901062,0.2750346064567566,9.771939277648926,-0.010648586160546484,-0.007547909835407911,-0.06051540060165564,170.08234097856763,171.08559681859495,0,0.52457594871521,2019-08-07 13:53:34:079
-0.3587598502635956,0.2415081113576889,9.74080753326416,-0.005587344736351217,-0.004884098039367014,-0.056786067936298396,170.2391295457049,171.236190027304,0,0.5268406867980957,2019-08-07 13:53:34:081
-0.3372071087360382,0.3325085937976837,9.750386238098145,-0.005587344736351217,-0.005150479166956239,-0.06317921499843979,170.3957501349863,171.3735072723894,0,0.5303597450256348,2019-08-07 13:53:34:085
-0.34678611159324646,0.3205348551273346,9.805465698242188,-0.007452012629475789,-0.004884098039367014,-0.05944987817189334,170.54818035096466,171.50989643840978,0,0.5334792137145996,2019-08-07 13:53:34:088
-0.3300228416919708,0.21995536983013153,9.745596885681152,-0.010648586160546484,-0.008613434345764809,-0.0682404569427837,170.69964903419347,171.65535127065795,0,0.5360069274902344,2019-08-07 13:53:34:090
-0.3372071087360382,0.21995536983013153,9.865334510803223,-0.005853725863940442,-0.005949623069872562,-0.06424473742820208,170.8475960003197,171.79777502633772,0,0.5392794609069824,2019-08-07 13:53:34:094
-0.3036805987358093,0.35645610094070435,9.834202766418457,-0.007984774884654239,-0.007814290962997135,-0.06690855182498623,170.9970075154416,171.92207823015207,0,0.5432407855987549,2019-08-07 13:53:34:098
-0.2462066113948822,0.25108709931373596,9.73122787475586,-0.006120106991529666,-0.003285811533905992,-0.07010512743665152,171.14864455242954,172.05512553293772,0,0.5462946891784668,2019-08-07 13:53:34:101
-0.2988910973072052,0.23432385921478271,9.855754852294922,-0.00425543883833077,-0.007814290962997135,-0.06850683546962967,171.29255713205004,172.18766937152506,0,0.5500016212463379,2019-08-07 13:53:34:104
-0.3252333402633667,0.2678503692150116,9.747991561889648,-0.009316680002451712,-0.009678958335973056,-0.06717493035183221,171.43018639329057,172.3140721487699,0,0.5531272888183594,2019-08-07 13:53:34:107
-0.3132596015930176,0.27742937207221985,9.85096549987793,-0.009316680002451712,-0.006216004197461787,-0.06850683546962967,171.56618207258322,172.43706667309317,0,0.55607008934021,2019-08-07 13:53:34:110
-0.27015411853790283,0.2822188436985016,9.75278091430664,-0.0026571518127210965,-0.005949623069872562,-0.06557664254599954,171.70422072250534,172.55566453251538,0,0.5593516826629639,2019-08-07 13:53:34:114
-0.2869173586368561,0.28461360931396484,9.815044403076172,-0.009849443297927462,-0.009412577728532483,-0.069305979372546,171.83873869674804,172.6735194041875,0,0.563307523727417,2019-08-07 13:53:34:118
-0.2773383557796478,0.21037636697292328,9.855754852294922,-0.007185631501886564,-0.005949623069872562,-0.06957236206058116,171.9707307960722,172.79680528174762,0,0.5663132667541504,2019-08-07 13:53:34:121
-0.27494361996650696,0.32292959094047546,9.81025505065918,-0.007185631501886564,-0.006216004197461787,-0.06664216913695105,172.10049057923476,172.9046435577831,0,0.5699851512908936,2019-08-07 13:53:34:124
-0.22225911915302277,0.29179784655570984,9.736018180847168,-0.006919250374297341,-0.007547909835407911,-0.06717493035183221,172.2336505291448,173.01343123122464,0,0.5731110572814941,2019-08-07 13:53:34:127
-0.2677593529224396,0.28940311074256897,9.86054515838623,-0.004788200833434893,-0.0056832419422833385,-0.06744131303986738,172.35880506567668,173.12032935696504,0,0.5760467052459717,2019-08-07 13:53:34:130
-0.2078906148672104,0.2486923635005951,9.805465698242188,-0.009316680002451712,-0.0064823853250510115,-0.06797407425474852,172.48868022959675,173.23079542442946,0,0.5797357559204102,2019-08-07 13:53:34:134
-0.23183810710906982,0.23671860992908478,9.755175590515137,-0.009849443297927462,-0.010211721631448806,-0.06983874474861634,172.61367026349023,173.34029951705838,0,0.583209753036499,2019-08-07 13:53:34:137
-0.25578561425209045,0.31814008951187134,9.69051742553711,-0.00425543883833077,-0.008879815473354034,-0.06637578644891587,172.73262621921774,173.43659070550927,0,0.5861566066741943,2019-08-07 13:53:34:140
-0.2653646171092987,0.21277111768722534,9.738412857055664,-0.007452012629475789,-0.0056832419422833385,-0.06238007109552346,172.84797885786463,173.54442953676804,0,0.5899884700775146,2019-08-07 13:53:34:144
-0.22944335639476776,0.15290237963199615,9.819833755493164,-0.009316680002451712,-0.007814290962997135,-0.059982639386774485,172.96561958412144,173.65733310897144,0,0.5931110382080078,2019-08-07 13:53:34:147
-0.19112737476825714,0.16487611830234528,9.891676902770996,-0.005054581961024118,-0.0046177169117777896,-0.06131454450457196,173.08493741495414,173.7659295399983,0,0.596076488494873,2019-08-07 13:53:34:150
-0.22465386986732483,0.25827136635780334,9.697701454162598,-0.0039890577107415445,-0.0035521926614952163,-0.06024902207480966,173.19734746282901,173.86082978090204,0,0.5993351936340332,2019-08-07 13:53:34:154
-0.09773212671279907,0.24390286207199097,9.812649726867676,-0.009583061650189587,-0.005150479166956239,-0.05811797305409586,173.3231791134455,173.95735280898205,0,0.60345458984375,2019-08-07 13:53:34:158
-0.33481234312057495,0.21756061911582947,9.92999267578125,-0.006652869246708115,-0.006216004197461787,-0.05758521183921472,173.4189886459572,174.05406198144408,0,0.6060206890106201,2019-08-07 13:53:34:160
0.12258484214544296,0.28940311074256897,9.685728073120117,-0.0021243895575426474,-0.0064823853250510115,-0.05598692403338206,166.36645539610748,174.13919228752994,0,0.6097140312194824,2019-08-07 13:53:34:164
0.0076368567533791065,0.2606661021709442,9.889281272888184,0.001871327486332884,0.002308192665616375,-0.05518778013046575,159.4395626890606,174.22584725128678,0,0.6131746768951416,2019-08-07 13:53:34:167
-0.3922863304615021,0.13374437391757965,9.836597442626953,-0.010648586160546484,-0.007814290962997135,-0.04746272795052688,159.80638657651738,174.32750910854085,0,0.6161155700683594,2019-08-07 13:53:34:170
0.012426355853676796,0.31574535369873047,9.762359619140625,-0.0005261027594980092,-8.92376858697129e-05,-0.053056731109751946,153.0117368740544,174.40402377668318,0,0.6199896335601807,2019-08-07 13:53:34:174
-0.2653646171092987,0.3468770980834961,9.800676345825195,0.001871327486332884,-0.0056832419422833385,-0.04719634526249171,153.5214778123877,174.4750749750954,0,0.62310791015625,2019-08-07 13:53:34:177
-0.1288638710975647,0.1960078626871109,9.99944019317627,-0.0021243895575426474,-0.006748766452640236,-0.046663584047610555,154.03739153686774,174.56346365632533,0,0.6260371208190918,2019-08-07 13:53:34:180
-0.13125862181186676,0.20798161625862122,9.92999267578125,-0.0026571518127210965,-0.0046177169117777896,-0.04613082283272941,154.54245269293898,174.64874662009836,0,0.6297214031219482,2019-08-07 13:53:34:184
-0.2078906148672104,0.20558686554431915,9.891676902770996,-0.009316680002451712,-0.008347053218175584,-0.04506529624177791,155.0291518973819,174.73377583738406,0,0.633195161819458,2019-08-07 13:53:34:187
-0.03546863794326782,0.3444823622703552,9.678544044494629,0.005334282535104291,-0.003019430146242442,-0.04053681551231514,155.52487503283177,174.79743853693037,0,0.6361770629882812,2019-08-07 13:53:34:190
-0.14562712609767914,0.24629761278629303,9.817439079284668,-0.00425543883833077,-0.00435133604426289,-0.04106958088838549,155.99831448737325,174.87366042099632,0,0.6399984359741211,2019-08-07 13:53:34:194
-0.2462066113948822,0.04992813616991043,9.83899211883545,-0.006919250374297341,-0.008879815473354034,-0.038405766491601344,156.4512370387875,174.97158610680788,0,0.643122673034668,2019-08-07 13:53:34:197
-0.14562712609767914,0.18642887473106384,9.79349136352539,-0.001058865047185749,-0.004084954916673665,-0.04053681551231514,156.90584497589282,175.0505172885479,0,0.646047830581665,2019-08-07 13:53:34:200
-0.1216796264052391,0.3588508367538452,9.827017784118652,0.0008058029759759856,-0.00435133604426289,-0.03334452662785203,157.35446593389776,175.1075089169988,0,0.6498379707336426,2019-08-07 13:53:34:204
-0.1552061289548874,0.23671860992908478,9.872518539428711,0.001338565231154435,-0.0054168602945454634,-0.033877287842733174,157.7903901796363,175.17763398159306,0,0.653214693069458,2019-08-07 13:53:34:207
0.053137101233005524,0.20079736411571503,9.776728630065918,-0.011181348415724934,-0.007814290962997135,-0.031213477607138232,151.04209537401917,175.25238805545246,0,0.6561431884765625,2019-08-07 13:53:34:210
-0.193522110581398,0.24629761278629303,9.86054515838623,-0.002390770685131872,-0.007015147580229461,-0.034143668450173754,151.6002804136265,175.31923932586176,0,0.6599860191345215,2019-08-07 13:53:34:214
-0.10970588028430939,0.2726398706436157,9.795886039733887,-0.0026571518127210965,-0.0022202867634747683,-0.02775052138803236,152.15583134467803,175.38143547649813,0,0.6631088256835938,2019-08-07 13:53:34:217
0.00045260769547894597,0.3325085937976837,9.759964942932129,0.001338565231154435,-0.0024866678910639927,-0.027217760173151213,145.5131772519941,175.43456171583148,0,0.6660408973693848,2019-08-07 13:53:34:220
-0.07857413589954376,0.1696656197309494,9.764754295349121,-0.005054581961024118,-0.007814290962997135,-0.02934880919386501,146.19531222960217,175.5070091906623,0,0.6697311401367188,2019-08-07 13:53:34:224
-0.12407437711954117,0.21756061911582947,9.83899211883545,-0.006919250374297341,-0.0038185737890844406,-0.023222042739164193,146.8576994417348,175.57288128943506,0,0.6731975078582764,2019-08-07 13:53:34:227
0.03637385368347168,0.2606661021709442,9.692912101745605,-0.0031899140678995457,-0.0056832419422833385,-0.019759088600652924,140.3257847096276,175.6311417122419,0,0.676140308380127,2019-08-07 13:53:34:230
-0.030679138377308846,0.2534818649291992,9.803071022033691,6.659528697688281e-06,-0.004084954916673665,-0.024021186642080517,141.11656497400745,175.68889365057237,0,0.6799862384796143,2019-08-07 13:53:34:234
-0.11689012497663498,0.21756061911582947,9.836597442626953,-0.0037226765831523197,-0.0038185737890844406,-0.01762803957993913,141.88128644812858,175.75042761317047,0,0.6831076145172119,2019-08-07 13:53:34:237
0.05074235051870346,0.2223501205444336,9.834202766418457,-0.006386488119118891,-0.0022202867634747683,-0.017361656891903953,135.44994402227354,175.81058069647997,0,0.6860809326171875,2019-08-07 13:53:34:240
0.04595285281538963,0.27024510502815247,9.776728630065918,-0.0005261027594980092,-0.003285811533905992,-0.014431465008571131,129.14692781604577,175.8627976572798,0,0.6893148422241211,2019-08-07 13:53:34:244
-0.06181088462471962,0.33011385798454285,9.786307334899902,-0.0034562954555630953,-0.004084954916673665,-0.011234891477500435,130.15766734884818,175.90767682524034,0,0.6933069229125977,2019-08-07 13:53:34:248
-0.004336891695857048,0.2223501205444336,9.776728630065918,-0.0013252461747749735,-0.0019539056358855436,-0.006972792915924193,131.15434821081186,175.96369878123505,0,0.6964290142059326,2019-08-07 13:53:34:251
0.0028473574202507734,0.2534818649291992,9.862939834594727,-0.0039890577107415445,-0.005150479166956239,-0.005907268405567294,124.93262190624044,176.0157783708412,0,0.6999900341033936,2019-08-07 13:53:34:254
-0.04025813564658165,0.27742937207221985,9.783912658691406,-0.004788200833434893,-0.007015147580229461,-0.0051081250227996205,126.03048321552247,176.0638170612157,0,0.7031097412109375,2019-08-07 13:53:34:257
-0.037863388657569885,0.33729809522628784,9.874913215637207,-0.0026571518127210965,-0.0038185737890844406,-0.0011124077188497644,127.10610779552628,176.10385181203367,0,0.7060387134552002,2019-08-07 13:53:34:260
0.012426355853676796,0.2534818649291992,9.654596328735352,-0.005853725863940442,-0.0038185737890844406,-0.0008460265262419585,120.96625044253199,176.15290651345745,0,0.7097227573394775,2019-08-07 13:53:34:264
0.031584352254867554,0.29658734798431396,9.922808647155762,6.659528697688281e-06,-0.00435133604426289,0.003149690712689317,114.95142026971956,176.195606487381,0,0.713191032409668,2019-08-07 13:53:34:267
0.0028473574202507734,0.2678503692150116,9.815044403076172,-0.006652869246708115,-0.0019539056358855436,0.011673887575767478,109.05304786136126,176.2415320472274,0,0.7161402702331543,2019-08-07 13:53:34:270
-0.023494889959692955,0.3396928608417511,9.74080753326416,-0.00425543883833077,-0.0046177169117777896,0.012739412086124375,110.47022020441017,176.27767489453933,0,0.7199864387512207,2019-08-07 13:53:34:274
-0.02588963881134987,0.27024510502815247,9.759964942932129,-0.0026571518127210965,-0.007547909835407911,0.013538554948743401,111.85910040782201,176.32086627973047,0,0.7231111526489258,2019-08-07 13:53:34:277
0.04595285281538963,0.3085611164569855,9.855754852294922,-0.0021243895575426474,-0.006748766452640236,0.019132559148265765,106.02836934300367,176.35893348689498,0,0.7260353565216064,2019-08-07 13:53:34:280
-0.030679138377308846,0.2870083451271057,9.824623107910156,-0.0031899140678995457,-0.0024866678910639927,0.02046446426606324,107.50473749782624,176.3989476906284,0,0.7297155857086182,2019-08-07 13:53:34:284
-0.011521141044795513,0.2870083451271057,9.736018180847168,-0.008783917747273263,-0.0064823853250510115,0.024992944995526012,108.95455199052708,176.43891252859123,0,0.733191728591919,2019-08-07 13:53:34:287
-0.08336362987756729,0.3253243565559387,9.755175590515137,-0.0031899140678995457,-0.005150479166956239,0.02872227974147785,110.36652876273831,176.47246610202703,0,0.7361657619476318,2019-08-07 13:53:34:290
-0.09054788202047348,0.31814008951187134,9.886886596679688,-0.0018580084299534227,-0.0006219999979394207,0.025259325602966582,111.74883754377646,176.50655591078953,0,0.7399966716766357,2019-08-07 13:53:34:294
-0.11689012497663498,0.31814008951187134,9.853360176086426,-0.0034562954555630953,-0.0024866678910639927,0.029521423644394175,113.10070389190558,176.5400455238993,0,0.7431223392486572,2019-08-07 13:53:34:297
-0.1025216281414032,0.2750346064567566,9.755175590515137,-0.0037226765831523197,-0.003285811533905992,0.03271799717546487,114.42719561023036,176.577566763118,0,0.7460942268371582,2019-08-07 13:53:34:300
-0.1025216281414032,0.35645610094070435,9.865334510803223,-0.006652869246708115,-0.0008883811255286454,0.03351714107838119,115.72690599747729,176.60584479721632,0,0.7493488788604736,2019-08-07 13:53:34:304
-0.1025216281414032,0.31574535369873047,9.831808090209961,-0.004788200833434893,-8.92376858697129e-05,0.03724647582433304,117.00043912252787,176.63800755583708,0,0.7533202171325684,2019-08-07 13:53:34:308
-0.1360481232404709,0.31814008951187134,9.815044403076172,-0.005054581961024118,-0.005949623069872562,0.038312002415284534,118.24555747677046,176.66897519647992,0,0.7563431262969971,2019-08-07 13:53:34:311
-0.10970588028430939,0.3061663508415222,9.824623107910156,-0.0029235329403103213,-0.0014211433807070943,0.040176668747963155,119.46814171008518,176.7004947587352,0,0.7599852085113525,2019-08-07 13:53:34:314
-0.09773212671279907,0.35645610094070435,9.932387351989746,-0.0018580084299534227,-0.0022202867634747683,0.04070942996284431,120.66789319142396,176.72570350615163,0,0.7631092071533203,2019-08-07 13:53:34:317
-0.1216796264052391,0.37561410665512085,9.800676345825195,-0.0039890577107415445,-0.0011547622531178697,0.045770671907188226,121.84049898212915,176.74794953831486,0,0.7660388946533203,2019-08-07 13:53:34:320
-0.18873262405395508,0.3516665995121002,9.827017784118652,-0.005054581961024118,-0.006216004197461787,0.04870086483081835,122.98297009501512,176.77304658228087,0,0.7697241306304932,2019-08-07 13:53:34:324
-0.19591686129570007,0.4067458510398865,9.886886596679688,-0.0018580084299534227,-0.0024866678910639927,0.05243020165736479,124.10109105740233,176.79083146247646,0,0.7731952667236328,2019-08-07 13:53:34:327
-0.24141710996627808,0.43548282980918884,9.81025505065918,-0.002390770685131872,-0.005150479166956239,0.05216381896932961,125.19173813132707,176.80458078049634,0,0.7761781215667725,2019-08-07 13:53:34:330
-0.1288638710975647,0.3995615839958191,9.86054515838623,-0.005587344736351217,-0.0027530490186532175,0.05056553532468617,126.27351913050003,176.82327897640593,0,0.7799978256225586,2019-08-07 13:53:34:334
-0.21268011629581451,0.3780088424682617,9.783912658691406,-0.005587344736351217,-0.003019430146242442,0.053762106775162265,127.32367294612521,176.8435426302388,0,0.783123254776001,2019-08-07 13:53:34:337
-0.1671798676252365,0.3325085937976837,9.75278091430664,-0.005853725863940442,0.00044352460994534954,0.05642592117194641,128.35748529930376,176.86858312729782,0,0.7860584259033203,2019-08-07 13:53:34:340
-0.21268011629581451,0.3516665995121002,9.71207046508789,-0.007185631501886564,-0.0022202867634747683,0.051897440442483636,129.36565222721663,176.89105242900584,0,0.7893190383911133,2019-08-07 13:53:34:344
-0.28212785720825195,0.3205348551273346,9.79349136352539,-0.006120106991529666,-0.0027530490186532175,0.05269658434539996,130.34595641314047,176.91711634749393,0,0.7933251857757568,2019-08-07 13:53:34:348
-0.2007063627243042,0.3325085937976837,9.85096549987793,-0.0005261027594980092,-0.0022202867634747683,0.055626777269030085,131.31606862250712,176.94019850156036,0,0.7963356971740723,2019-08-07 13:53:34:351
-0.239022359251976,0.37561410665512085,9.819833755493164,-0.0018580084299534227,-0.0006219999979394207,0.059888875310457675,132.26198785882718,176.9579650670877,0,0.7999885082244873,2019-08-07 13:53:34:354
-0.3180491030216217,0.3325085937976837,9.7982816696167,-0.005320963088613342,0.0007099057700438648,0.05802420481658986,133.17944077537476,176.9808654461776,0,0.803107500076294,2019-08-07 13:53:34:357
-0.22465386986732483,0.3732193410396576,9.764754295349121,-0.0007924839195965244,-0.0014211433807070943,0.05908973140754136,134.08972714037856,176.99760190503025,0,0.806041955947876,2019-08-07 13:53:34:360
-0.3180491030216217,0.39477208256721497,9.812649726867676,-0.0018580084299534227,-0.0035521926614952163,0.05402848946319744,134.97153814014203,177.01195745488516,0,0.8097226619720459,2019-08-07 13:53:34:364
-0.37552309036254883,0.33729809522628784,9.886886596679688,-0.006120106991529666,0.001775430280400763,0.0585569701926602,135.8282575881561,177.03383454366315,0,0.813199520111084,2019-08-07 13:53:34:367
-0.2845225930213928,0.38758784532546997,9.877307891845703,-0.0037226765831523197,-8.92376858697129e-05,0.058823348719506174,136.67870734314036,177.04882655681578,0,0.8161256313323975,2019-08-07 13:53:34:370
-0.3204438388347626,0.40195634961128235,9.841386795043945,-0.0031899140678995457,-0.003285811533905992,0.059888875310457675,137.50854704282028,177.0617647066853,0,0.8199882507324219,2019-08-07 13:53:34:374
-0.32762810587882996,0.34927183389663696,9.812649726867676,-0.0026571518127210965,-0.001687524508296319,0.05669229969879239,138.32042546765288,177.08022396135337,0,0.8231055736541748,2019-08-07 13:53:34:377
-0.3372071087360382,0.2534818649291992,9.721649169921875,-0.006120106991529666,-0.0019539056358855436,0.0585569701926602,139.11461040298195,177.10976560595358,0,0.8260676860809326,2019-08-07 13:53:34:380
-0.2007063627243042,0.3468770980834961,9.889281272888184,-0.00425543883833077,-0.0003556188378409054,0.05722506091367353,139.90912960618115,177.12816999927105,0,0.8293213844299316,2019-08-07 13:53:34:384
-0.2198643684387207,0.2989821135997772,9.762359619140625,0.003203233254316169,-0.005949623069872562,0.05402848946319744,140.68647026221996,177.14980841215606,0,0.8332929611206055,2019-08-07 13:53:34:388
-0.8017885684967041,0.23192910850048065,10.044939994812012,-0.01624259036006885,-0.014740200280316973,0.0574914436017087,141.3839596924323,177.18310524327146,0,0.8363044261932373,2019-08-07 13:53:34:391
0.09145309776067734,0.478588342666626,9.63304328918457,0.007198950428228864,0.007902196605064417,0.05802420481658986,134.9655157182518,177.18106142951365,0,0.8400082588195801,2019-08-07 13:53:34:394
0.11540059000253677,0.48098307847976685,9.719254493713379,0.0077317126834073125,0.017758299366163025,0.05056553532468617,128.676705166766,177.17942565970958,0,0.8431227207183838,2019-08-07 13:53:34:397
-0.856867790222168,0.1696656197309494,9.886886596679688,-0.014377921946795628,-0.007814290962997135,0.047368959713020874,129.605390465479,177.21853881532144,0,0.8460514545440674,2019-08-07 13:53:34:400
-0.1815483719110489,0.334903359413147,9.762359619140625,-0.0005261027594980092,0.00577114758435062,0.04417238826254478,130.59078112505668,177.23498097122314,0,0.8497350215911865,2019-08-07 13:53:34:404
-0.22944335639476776,0.531272828578949,9.654596328735352,-0.0026571518127210965,-0.0006219999979394207,0.05429487215123261,131.5518587931858,177.22780468944663,0,0.8532016277313232,2019-08-07 13:53:34:407
-0.3851020932197571,0.42829859256744385,9.922808647155762,0.005334282535104291,0.001242668025222314,0.04443876678939075,132.47616576612384,177.23293629398628,0,0.8561456203460693,2019-08-07 13:53:34:410
-0.4808920919895172,-0.03388810157775879,9.858149528503418,-0.02023830779405587,-0.008613434345764809,0.043906005574509605,133.37264398873364,170.09657848161797,0,0.8599839210510254,2019-08-07 13:53:34:414
-0.38031259179115295,0.2486923635005951,9.755175590515137,-0.01144773006346281,-0.001687524508296319,0.038312002415284534,134.26083529356447,170.26744743804457,0,0.8631069660186768,2019-08-07 13:53:34:417
-0.2581803500652313,0.6941158175468445,9.652201652526855,0.0077317126834073125,-0.0011547622531178697,0.04976639142176985,135.14516462576037,170.37856162262327,0,0.8660383224487305,2019-08-07 13:53:34:420
-0.5407608151435852,0.18642887473106384,9.779123306274414,0.0016049463587436595,-0.0003556188378409054,0.03777924120040339,135.97903320392902,170.54881499950963,0,0.8697261810302734,2019-08-07 13:53:34:424
-0.4689183235168457,-0.03628285229206085,9.841386795043945,-0.014644303594533503,-0.005150479166956239,0.03724647582433304,136.8058952641466,163.54491115978846,0,0.8731894493103027,2019-08-07 13:53:34:427
-0.37312835454940796,0.3588508367538452,9.78151798248291,0.0016049463587436595,0.004705623073993721,0.03564819217968959,137.625301543277,163.8317244074284,0,0.8761589527130127,2019-08-07 13:53:34:430
-0.4090496003627777,0.5097200870513916,9.759964942932129,0.004535139152336618,0.0009762868976330894,0.04070942996284431,138.42458715122712,164.094322512187,0,0.8799901008605957,2019-08-07 13:53:34:434
-0.44736558198928833,0.21995536983013153,9.831808090209961,-0.002390770685131872,0.00044352460994534954,0.03724647582433304,139.20391229645625,164.38722327463935,0,0.8831124305725098,2019-08-07 13:53:34:437
-0.3827073574066162,0.13374437391757965,9.872518539428711,-0.014111541339355053,-0.003019430146242442,0.02739037462368038,139.97594613105966,164.68634488330568,0,0.8861274719238281,2019-08-07 13:53:34:440
-0.41383910179138184,0.40195634961128235,9.76954460144043,-0.006919250374297341,0.0033737171759732733,0.03085332876219165,140.7271825180417,164.94699966725986,0,0.8899946212768555,2019-08-07 13:53:34:444
-0.44497084617614746,0.5001410841941833,9.755175590515137,-0.00025972161565413924,0.002840954920794824,0.02872227974147785,141.45990756391103,165.18940629156603,0,0.8931159973144531,2019-08-07 13:53:34:447
-0.3970758318901062,0.33011385798454285,9.83899211883545,-0.0026571518127210965,0.0031073360483840485,0.02632485011332348,142.18397628074797,165.4476231776399,0,0.8960509300231934,2019-08-07 13:53:34:450
-0.4497603476047516,0.1576918661594391,9.903650283813477,-0.007984774884654239,-0.0011547622531178697,0.021796371464455313,142.88850498049692,165.7218966204668,0,0.8993303775787354,2019-08-07 13:53:34:454
-0.35397034883499146,0.31095585227012634,9.829413414001465,-0.007185631501886564,0.00044352460994534954,0.02099722756153899,143.58938794257097,165.97282024498662,0,0.9032979011535645,2019-08-07 13:53:34:458
-0.3372071087360382,0.38998258113861084,9.714465141296387,0.001338565231154435,-0.0035521926614952163,0.01939893975570634,144.27843899295087,166.20716030809825,0,0.9063045978546143,2019-08-07 13:53:34:461
-0.4377865791320801,0.30377161502838135,9.831808090209961,-0.005054581961024118,-0.0024866678910639927,0.016735128479814097,144.94239453932735,166.44867102920705,0,0.909996509552002,2019-08-07 13:53:34:464
-0.3922863304615021,0.23671860992908478,9.697701454162598,-0.005853725863940442,-0.001687524508296319,0.01939893975570634,145.59751387537943,166.69275821152712,0,0.9131197929382324,2019-08-07 13:53:34:467
-0.37552309036254883,0.31574535369873047,9.764754295349121,-0.0037226765831523197,-0.0019539056358855436,0.011673887575767478,146.24184262411134,166.92248324376234,0,0.9160892963409424,2019-08-07 13:53:34:470
-0.42581284046173096,0.2558766007423401,9.767149925231934,-0.01038220555310591,-0.0019539056358855436,0.011407505928029603,146.86750681357694,167.15629035772187,0,0.9199836254119873,2019-08-07 13:53:34:474
-0.5120238065719604,0.27024510502815247,9.716859817504883,-0.006652869246708115,-0.0038185737890844406,0.013804936596481276,147.47050017276493,167.38247162543973,0,0.9231131076812744,2019-08-07 13:53:34:477
-0.4162338376045227,0.2750346064567566,9.76954460144043,-0.005054581961024118,-0.001687524508296319,0.009276456907315806,148.0725746768561,167.60340034304693,0,0.9260365962982178,2019-08-07 13:53:34:480
-0.4425760805606842,0.25827136635780334,9.76954460144043,-0.002390770685131872,-0.0006219999979394207,0.005547121121066663,148.65937563172142,167.8215405971768,0,0.9297244548797607,2019-08-07 13:53:34:484
-0.4090496003627777,0.18403412401676178,9.704886436462402,-0.010914967808284359,-0.004084954916673665,0.005547121121066663,149.23871276923722,168.04550679571477,0,0.9331908226013184,2019-08-07 13:53:34:487
-0.3659440875053406,0.27742937207221985,9.891676902770996,-0.0077183937570650145,0.00017714346610147965,0.0007522603693305514,149.8115352536231,168.25374093763892,0,0.9361329078674316,2019-08-07 13:53:34:490
-0.4090496003627777,0.24629761278629303,9.709675788879395,-0.0015916273023641983,-0.0019539056358855436,0.0007522603693305514,150.36748081134874,168.4599493205987,0,0.9399876594543457,2019-08-07 13:53:34:494
-0.38031259179115295,0.2678503692150116,9.831808090209961,-0.006120106991529666,-0.0064823853250510115,0.001817784944706031,150.91696171299236,168.6606107583077,0,0.9431047439575195,2019-08-07 13:53:34:497
-0.36115458607673645,0.21037636697292328,9.721649169921875,-0.007185631501886564,-0.0008883811255286454,-0.0027106946144222744,151.4562180331357,168.86378734229422,0,0.946035623550415,2019-08-07 13:53:34:500
-0.45215508341789246,0.24629761278629303,9.81025505065918,-0.007185631501886564,-0.0054168602945454634,-0.006706411788334968,151.97543661020615,169.0592350137543,0,0.9497208595275879,2019-08-07 13:53:34:504
-0.5934453010559082,0.2798241078853607,9.79349136352539,-0.0031899140678995457,-0.0046177169117777896,-0.006440030660745744,152.4674755983329,169.2459397916423,0,0.9531946182250977,2019-08-07 13:53:34:507
-0.21028536558151245,0.28461360931396484,9.757570266723633,-0.0034562954555630953,-0.0003556188378409054,-0.0037762191247791726,152.9934930137072,169.42817662752896,0,0.9561357498168945,2019-08-07 13:53:34:510
-0.36833885312080383,0.3085611164569855,9.714465141296387,0.0016049463587436595,-0.0014211433807070943,-0.01150127208494101,153.49050191216782,169.60288072305408,0,0.959984302520752,2019-08-07 13:53:34:514
-0.56949782371521,0.12895487248897552,9.867729187011719,-0.011714110670903381,-0.009945339983710931,-0.010169366967143538,153.95637621080786,169.79790463715835,0,0.9631099700927734,2019-08-07 13:53:34:517
-0.44736558198928833,0.1960078626871109,9.855754852294922,-0.009849443297927462,-0.009146196080794608,-0.012300415987857336,154.42679183331876,169.9807990773083,0,0.966073751449585,2019-08-07 13:53:34:520
-0.20310111343860626,0.3708246052265167,9.745596885681152,0.0021377086139221083,-0.001687524508296319,-0.013632321105654805,154.91468703304687,170.13721030879424,0,0.9693326950073242,2019-08-07 13:53:34:524
-0.5431555509567261,0.15290237963199615,9.934782028198242,-0.005587344736351217,-0.005949623069872562,-0.013632321105654805,155.35513267894095,170.31807707480334,0,0.973304033279419,2019-08-07 13:53:34:528
-0.4425760805606842,0.09542837738990784,9.788702011108398,-0.010648586160546484,-0.008879815473354034,-0.020025469208093498,155.79775907732053,170.50234815139285,0,0.9763205051422119,2019-08-07 13:53:34:531
-0.2342328578233719,0.3516665995121002,9.724043846130371,-0.0037226765831523197,-0.0035521926614952163,-0.018693564090296027,156.2549388786271,170.65164523546318,0,0.9799928665161133,2019-08-07 13:53:34:534
-0.4545498490333557,0.31574535369873047,9.79349136352539,-0.0015916273023641983,-0.0027530490186532175,-0.01656251402928493,156.6771738497131,170.80195881222576,0,0.9831078052520752,2019-08-07 13:53:34:537
-0.3707335889339447,0.18403412401676178,9.886886596679688,-0.008251156012243464,-0.006748766452640236,-0.01762803957993913,157.10179151999495,170.9659491776174,0,0.986037015914917,2019-08-07 13:53:34:540
-0.2677593529224396,0.19840261340141296,9.807860374450684,-0.0077183937570650145,-0.005150479166956239,-0.02375480395404534,157.52954544726146,171.12505024393317,0,0.9897232055664062,2019-08-07 13:53:34:544
-0.3779178559780121,0.3013768494129181,9.841386795043945,-0.006386488119118891,-0.006216004197461787,-0.021357374325890972,157.93618267952866,171.2687122524309,0,0.9931919574737549,2019-08-07 13:53:34:547
-0.26296985149383545,0.334903359413147,9.745596885681152,6.659528697688281e-06,-0.003285811533905992,-0.02029184981553407,158.34708844470384,171.40397348790194,0,0.9961333274841309,2019-08-07 13:53:34:550
-0.2581803500652313,0.20798161625862122,9.803071022033691,-0.006120106991529666,-0.007281528707818685,-0.02482032846440224,158.75155914491668,171.5529182379239,0,1.0000102519989014,2019-08-07 13:53:34:554
-0.45215508341789246,0.2295343577861786,9.925203323364258,-0.009583061650189587,-0.006748766452640236,-0.022422898836247866,159.12554440540706,171.6970449197218,0,1.0031347274780273,2019-08-07 13:53:34:557
-0.3587598502635956,0.23192910850048065,9.771939277648926,-0.004521819705845669,-0.007547909835407911,-0.025619472367318562,159.50222484904816,171.83665625509943,0,1.0060670375823975,2019-08-07 13:53:34:560
-0.23183810710906982,0.29179784655570984,9.78151798248291,-0.0029235329403103213,-0.0006219999979394207,-0.02775052138803236,159.88513895813486,171.96628282302112,0,1.0093200206756592,2019-08-07 13:53:34:564
-0.3635493516921997,0.2151658684015274,9.829413414001465,-0.007185631501886564,-0.007547909835407911,-0.025619472367318562,160.24675662685266,172.10348007672872,0,1.0132930278778076,2019-08-07 13:53:34:568
-0.3300228416919708,0.2151658684015274,9.817439079284668,-0.0037226765831523197,-0.0056832419422833385,-0.030414333704221905,160.60428595960659,172.23693586510964,0,1.0163359642028809,2019-08-07 13:53:34:571
-0.2581803500652313,0.2415081113576889,9.76954460144043,-0.006120106991529666,-0.005150479166956239,-0.028549665290948687,160.96298297663586,172.36513351295446,0,1.0199973583221436,2019-08-07 13:53:34:574
-0.4282075762748718,0.26545560359954834,9.757570266723633,-0.004788200833434893,-0.008080672090586358,-0.03014795309678133,161.29488068425928,172.4875011988509,0,1.0231120586395264,2019-08-07 13:53:34:577
-0.3060753643512726,0.2726398706436157,9.831808090209961,-0.004788200833434893,-0.0054168602945454634,-0.03547557356797122,161.63423427750797,172.606789975614,0,1.0261149406433105,2019-08-07 13:53:34:580
-0.2725488543510437,0.24390286207199097,9.877307891845703,-0.002390770685131872,-0.0056832419422833385,-0.035209195041125255,161.9711782393758,172.7268853299923,0,1.0300018787384033,2019-08-07 13:53:34:584
-0.3635493516921997,0.21756061911582947,9.86054515838623,-0.004521819705845669,-0.008613434345764809,-0.035741956256006395,162.29103456665317,172.847861043948,0,1.033123254776001,2019-08-07 13:53:34:587
-0.22225911915302277,0.22474487125873566,9.738412857055664,-0.0037226765831523197,-0.005150479166956239,-0.03627471747088755,162.6199149381336,172.96507699755742,0,1.0360612869262695,2019-08-07 13:53:34:590
-0.23662760853767395,0.24390286207199097,9.75278091430664,-0.0021243895575426474,-0.007015147580229461,-0.03707386137380387,162.94100329870366,173.07751260217574,0,1.0393211841583252,2019-08-07 13:53:34:594
-0.32283860445022583,0.3061663508415222,9.834202766418457,-0.007452012629475789,-0.004884098039367014,-0.0336109072352926,163.24566887111888,173.18196201937764,0,1.043297290802002,2019-08-07 13:53:34:598
-0.24860136210918427,0.26545560359954834,9.800676345825195,-0.005054581961024118,-0.004084954916673665,-0.035741956256006395,163.55238470695727,173.28814648973955,0,1.0463054180145264,2019-08-07 13:53:34:601
-0.239022359251976,0.21037636697292328,9.83899211883545,-0.001058865047185749,-0.00435133604426289,-0.036008338944041575,163.85440665085596,173.3981050117965,0,1.0499985218048096,2019-08-07 13:53:34:604
-0.28931209444999695,0.2534818649291992,9.867729187011719,-0.006652869246708115,-0.0056832419422833385,-0.038672149179636524,164.14472838978398,173.50188067424955,0,1.053123950958252,2019-08-07 13:53:34:607
-0.2941015958786011,0.2870083451271057,9.812649726867676,-0.0039890577107415445,-0.003019430146242442,-0.04160234210326664,164.42800168783845,173.59899994709616,0,1.0560884475708008,2019-08-07 13:53:34:610
-0.18394312262535095,0.2606661021709442,9.762359619140625,-0.004521819705845669,-0.006216004197461787,-0.03760662258868502,164.71921334047025,173.697419704252,0,1.0599865913391113,2019-08-07 13:53:34:614
-0.2078906148672104,0.3133505880832672,9.71207046508789,-0.002390770685131872,-0.008080672090586358,-0.0389385318676717,165.00172128494725,173.7869315755949,0,1.063110113143921,2019-08-07 13:53:34:617
-0.2581803500652313,0.21037636697292328,9.803071022033691,-0.0077183937570650145,-0.00435133604426289,-0.04000405429743399,165.27222996451675,173.88787466619024,0,1.0660395622253418,2019-08-07 13:53:34:620
0.02918960340321064,0.3851930797100067,9.645017623901367,-0.0007924839195965244,-0.004084954916673665,-0.039471293082552844,158.3710998287466,173.96454126679544,0,1.0697300434112549,2019-08-07 13:53:34:624
-0.24381186068058014,0.29658734798431396,9.910834312438965,0.0008058029759759856,-0.0014211433807070943,-0.045598057456659055,158.7757700962422,174.05081159444592,0,1.073197841644287,2019-08-07 13:53:34:627
-0.8496835231781006,0.05471763759851456,9.86054515838623,-0.017840876085306896,-0.008879815473354034,-0.039471293082552844,159.10321992239523,174.166380976494,0,1.0761370658874512,2019-08-07 13:53:34:630
0.30698058009147644,0.47379884123802185,9.728833198547363,0.003203233254316169,0.0025745737932055994,-0.03973767160939882,152.35674559271212,174.226599256334,0,1.079981803894043,2019-08-07 13:53:34:634
-0.3324176073074341,0.3540613353252411,9.532464027404785,0.006932569300639639,0.0020418114079899874,-0.04266786453302893,152.86930766545925,174.29830671567188,0,1.0831100940704346,2019-08-07 13:53:34:637
-0.6940248012542725,0.14092862606048584,10.092835426330566,-0.01384515969161718,-0.009412577728532483,-0.041335959415231466,153.33479966281334,174.3986240439449,0,1.0860469341278076,2019-08-07 13:53:34:640
0.053137101233005524,0.3588508367538452,9.659385681152344,-0.0031899140678995457,-0.008080672090586358,-0.04506529624177791,146.67607818395555,174.46875937717766,0,1.0897293090820312,2019-08-07 13:53:34:644
-0.03546863794326782,0.4570355713367462,9.82222843170166,0.003203233254316169,0.00017714346610147965,-0.04293424722106411,147.33838412790269,174.52547769656715,0,1.0932021141052246,2019-08-07 13:53:34:647
-0.516813337802887,0.25108709931373596,9.733622550964355,-0.009849443297927462,-0.014473819672876401,-0.03813938796475537,147.9332120941181,174.60703560236283,0,1.096132755279541,2019-08-07 13:53:34:650
0.026794854551553726,0.21756061911582947,9.78151798248291,-0.0021243895575426474,0.002308192665616375,-0.04826187185344321,141.37718445431184,174.68987405352829,0,1.1000094413757324,2019-08-07 13:53:34:654
-0.1288638710975647,0.3205348551273346,9.625859260559082,-0.006652869246708115,-0.003285811533905992,-0.046663584047610555,142.13487738386053,174.75909941658026,0,1.1031334400177002,2019-08-07 13:53:34:657
-0.3204438388347626,0.36124560236930847,9.76954460144043,-0.0018580084299534227,-0.005150479166956239,-0.038405766491601344,142.8554628303537,174.82187329170216,0,1.106092929840088,2019-08-07 13:53:34:660
0.05553185194730759,0.2941926121711731,9.762359619140625,-0.00425543883833077,-0.005949623069872562,-0.04186872063011261,136.4061741430109,174.89184508048092,0,1.1099910736083984,2019-08-07 13:53:34:664
-0.16957461833953857,0.21756061911582947,9.906044960021973,-0.004788200833434893,-0.004084954916673665,-0.04320062990909929,137.25915245629488,174.96968442366313,0,1.1131126880645752,2019-08-07 13:53:34:667
-0.38749682903289795,0.3085611164569855,9.906044960021973,-0.009316680002451712,-0.009412577728532483,-0.04000405429743399,138.07071384944584,175.0361392734165,0,1.1160390377044678,2019-08-07 13:53:34:670
-0.1480218768119812,0.2870083451271057,9.783912658691406,-0.0007924839195965244,-0.001687524508296319,-0.04266786453302893,138.8922761978124,175.101957523333,0,1.1193315982818604,2019-08-07 13:53:34:674
-0.09054788202047348,0.2726398706436157,9.750386238098145,-0.0021243895575426474,-0.00435133604426289,-0.04106958088838549,139.70475188382608,175.1683546139743,0,1.1232712268829346,2019-08-07 13:53:34:678
-0.25578561425209045,0.2798241078853607,9.862939834594727,-0.010648586160546484,-0.008879815473354034,-0.040270436985469164,140.48244695234905,175.23428591007266,0,1.1262829303741455,2019-08-07 13:53:34:681
0.0028473574202507734,0.30377161502838135,9.779123306274414,-0.0037226765831523197,-0.0014211433807070943,-0.04240148600618296,134.0734272588397,175.29479004471654,0,1.1299872398376465,2019-08-07 13:53:34:684
-0.1671798676252365,0.3133505880832672,9.736018180847168,-0.0037226765831523197,-0.0054168602945454634,-0.03734024406183905,134.97323385072238,175.35267895147183,0,1.133110761642456,2019-08-07 13:53:34:687
-0.33481234312057495,0.3253243565559387,9.906044960021973,-0.007452012629475789,-0.009945339983710931,-0.03734024406183905,135.83668937402868,175.4092317545403,0,1.136040449142456,2019-08-07 13:53:34:690
-0.04744238778948784,0.3444823622703552,9.812649726867676,-0.00025972161565413924,-0.0064823853250510115,-0.04080319820035032,136.7157567925588,175.46088892786037,0,1.139725923538208,2019-08-07 13:53:34:694
-0.12646912038326263,0.29179784655570984,9.805465698242188,-0.005054581961024118,-0.007814290962997135,-0.04000405429743399,137.56818235207012,175.51856325170945,0,1.1431894302368164,2019-08-07 13:53:34:697
-0.2677593529224396,0.3013768494129181,9.843781471252441,-0.007185631501886564,-0.0054168602945454634,-0.039204910394517664,138.38654960823527,175.57430437383908,0,1.1461257934570312,2019-08-07 13:53:34:700
-0.030679138377308846,0.2870083451271057,9.800676345825195,-0.002390770685131872,-0.0014211433807070943,-0.038405766491601344,139.21553947978677,175.62978826939974,0,1.14998459815979,2019-08-07 13:53:34:704
-0.18633787333965302,0.3133505880832672,9.829413414001465,-0.0039890577107415445,-0.005150479166956239,-0.035209195041125255,140.01041370554046,175.68137586895395,0,1.1531164646148682,2019-08-07 13:53:34:707
-0.21268011629581451,0.23671860992908478,9.815044403076172,-0.009050299395011138,-0.008080672090586358,-0.036008338944041575,140.78672541431536,175.74162488451418,0,1.1560845375061035,2019-08-07 13:53:34:710
-0.06181088462471962,0.27024510502815247,9.728833198547363,-0.005853725863940442,-0.005150479166956239,-0.03281176333237628,141.5646516805989,175.79603921372336,0,1.1593387126922607,2019-08-07 13:53:34:714
-0.13365337252616882,0.26306086778640747,9.803071022033691,-0.006652869246708115,-0.0024866678910639927,-0.032279002117495126,142.31829027003369,175.85085752523213,0,1.1633055210113525,2019-08-07 13:53:34:718
-0.18873262405395508,0.27024510502815247,9.841386795043945,-0.0039890577107415445,-0.005949623069872562,-0.029881570408746155,143.0510023918949,175.90308600767625,0,1.1664514541625977,2019-08-07 13:53:34:721
-0.0761793851852417,0.28461360931396484,9.807860374450684,-0.007185631501886564,-0.001687524508296319,-0.026951379565710636,143.78144806155433,175.95333912143613,0,1.1703147888183594,2019-08-07 13:53:34:725
-0.13125862181186676,0.22474487125873566,9.836597442626953,-0.006120106991529666,-0.00435133604426289,-0.025086711152437415,144.4912955581241,176.00917334180207,0,1.1734521389007568,2019-08-07 13:53:34:728
-0.18394312262535095,0.2558766007423401,9.867729187011719,-0.006386488119118891,-0.0054168602945454634,-0.025619472367318562,145.18100864031578,176.06034022521123,0,1.1764025688171387,2019-08-07 13:53:34:731
-0.0761793851852417,0.3013768494129181,9.745596885681152,-0.005320963088613342,-0.0046177169117777896,-0.024553947856961668,145.8693614344775,176.1047797826979,0,1.1799900531768799,2019-08-07 13:53:34:734
-0.193522110581398,0.29179784655570984,9.736018180847168,-0.006386488119118891,-0.004884098039367014,-0.024021186642080517,146.53005619786742,176.14946993918338,0,1.183112382888794,2019-08-07 13:53:34:737
-0.11449537426233292,0.23432385921478271,9.834202766418457,-0.009316680002451712,-0.0064823853250510115,-0.02189013762136672,147.18718558547351,176.20072119057366,0,1.1860556602478027,2019-08-07 13:53:34:740
-0.2007063627243042,0.28940311074256897,9.858149528503418,-0.007452012629475789,-0.006216004197461787,-0.02428756724952109,147.82140256596148,176.24461978958658,0,1.1897449493408203,2019-08-07 13:53:34:744
-0.17915362119674683,0.2822188436985016,9.747991561889648,-0.005320963088613342,-0.005949623069872562,-0.018693564090296027,148.44507442939164,176.28759613659147,0,1.1932106018066406,2019-08-07 13:53:34:747
-0.1743641197681427,0.28940311074256897,9.791096687316895,-0.0031899140678995457,-0.009678958335973056,-0.01842718140226085,149.0573661676277,176.32851001575466,0,1.1961510181427002,2019-08-07 13:53:34:750
-0.17915362119674683,0.3061663508415222,9.76954460144043,-0.006120106991529666,-0.004884098039367014,-0.014697845616011706,149.65626456559042,176.367364540564,0,1.2000057697296143,2019-08-07 13:53:34:754
-0.140837624669075,0.27024510502815247,9.882097244262695,-0.0077183937570650145,-0.007281528707818685,-0.01762803957993913,150.24808609897852,176.41004146804858,0,1.2031292915344238,2019-08-07 13:53:34:757
-0.12646912038326263,0.27742937207221985,9.85096549987793,-0.009316680002451712,-0.0054168602945454634,-0.012566796595297908,150.82931581565646,176.45112882893693,0,1.2060954570770264,2019-08-07 13:53:34:760
-0.2007063627243042,0.29658734798431396,9.846176147460938,-0.006919250374297341,-0.0035521926614952163,-0.010169366967143538,151.39015129271328,176.48911306648927,0,1.209991693496704,2019-08-07 13:53:34:764
-0.1671798676252365,0.3444823622703552,9.843781471252441,-0.00425543883833077,-0.005949623069872562,-0.010435747574584113,151.9439385609082,176.5199968356327,0,1.2131342887878418,2019-08-07 13:53:34:767
-0.18873262405395508,0.2750346064567566,9.877307891845703,-0.006120106991529666,-0.007547909835407911,-0.010169366967143538,152.48442576763247,176.55871795096175,0,1.2161052227020264,2019-08-07 13:53:34:770
-0.14562712609767914,0.3133505880832672,9.836597442626953,-0.007452012629475789,-0.0046177169117777896,-0.010169366967143538,153.0187809073361,176.5926776298158,0,1.2199900150299072,2019-08-07 13:53:34:774
-0.19831161201000214,0.2870083451271057,9.81025505065918,-0.004788200833434893,-0.007015147580229461,-0.006972792915924193,153.5364733016565,176.62814779718647,0,1.2231106758117676,2019-08-07 13:53:34:777
-0.21507486701011658,0.24390286207199097,9.846176147460938,-0.005587344736351217,-0.006748766452640236,-0.004841743895210396,154.04182692937354,176.66812369631762,0,1.2260396480560303,2019-08-07 13:53:34:780
-0.19112737476825714,0.2726398706436157,9.776728630065918,-0.00425543883833077,0.00044352460994534954,-0.00244431348683305,154.5384996631092,176.70369486635622,0,1.229727029800415,2019-08-07 13:53:34:784
-0.239022359251976,0.2822188436985016,9.776728630065918,-0.004788200833434893,-0.004884098039367014,-0.00244431348683305,155.02067192548856,176.73748513886798,0,1.233198881149292,2019-08-07 13:53:34:787
-0.24860136210918427,0.36364033818244934,9.79349136352539,-0.008251156012243464,-0.003285811533905992,0.0023505473299216427,155.4917197961836,176.76157069938498,0,1.2361440658569336,2019-08-07 13:53:34:790
-0.23662760853767395,0.3085611164569855,9.795886039733887,-0.0029235329403103213,-8.92376858697129e-05,-0.000579645398652734,155.95422950678238,176.7908865901008,0,1.239985704421997,2019-08-07 13:53:34:794
-0.23662760853767395,0.4163248538970947,9.85096549987793,-0.006652869246708115,-0.0022202867634747683,-4.688308251936486e-05,156.40801397822202,176.80783575810676,0,1.243110179901123,2019-08-07 13:53:34:797
-0.25578561425209045,0.334903359413147,9.846176147460938,-0.006120106991529666,-0.0046177169117777896,-4.688308251936486e-05,156.8508585214723,176.83373384649934,0,1.246068000793457,2019-08-07 13:53:34:800
-0.239022359251976,0.29179784655570984,9.736018180847168,-0.006386488119118891,-0.0024866678910639927,0.002084166072295256,157.2861693737642,176.8638937404998,0,1.249326467514038,2019-08-07 13:53:34:804
-0.2845225930213928,0.3396928608417511,9.7982816696167,-0.005587344736351217,-0.0038185737890844406,0.005547121121066663,157.70803198649034,176.888150759931,0,1.2532989978790283,2019-08-07 13:53:34:808
-0.2342328578233719,0.3133505880832672,9.803071022033691,-0.0077183937570650145,-0.0038185737890844406,0.0058135022486558875,158.12714025815782,176.91507327445004,0,1.2563025951385498,2019-08-07 13:53:34:811
-0.30847010016441345,0.31574535369873047,9.815044403076172,-0.004788200833434893,-0.004084954916673665,0.004215215223046215,158.52944325653678,176.94091508698278,0,1.260000228881836,2019-08-07 13:53:34:814
-0.24381186068058014,0.33011385798454285,9.853360176086426,-0.00425543883833077,0.00044352460994534954,0.004215215223046215,158.93042791126018,176.96446533945004,0,1.2631199359893799,2019-08-07 13:53:34:817
-0.2605751156806946,0.3277190923690796,9.829413414001465,-0.007185631501886564,-0.0024866678910639927,0.004215215223046215,159.32186223895596,176.98818002073125,0,1.266082763671875,2019-08-07 13:53:34:820
-0.5982348322868347,0.24629761278629303,9.86054515838623,-0.0029235329403103213,-8.92376858697129e-05,-0.0027106946144222744,159.6660042390429,177.02033412922734,0,1.2693390846252441,2019-08-07 13:53:34:824
-0.06420563161373138,0.3444823622703552,9.69051742553711,-0.015443446457152525,0.002840954920794824,0.013804936596481276,160.0644579093236,177.04265534674585,0,1.273313283920288,2019-08-07 13:53:34:828
0.02918960340321064,0.4570355713367462,9.676149368286133,0.009329999969091311,0.00923410224301054,0.001018641496919776,153.26505994418244,177.0461352801723,0,1.2763328552246094,2019-08-07 13:53:34:831
-0.7754462957382202,0.059507135301828384,10.10241413116455,-0.019172783283698973,-0.008613434345764809,0.0076781701417804596,153.71374176174794,177.10240186972322,0,1.279991865158081,2019-08-07 13:53:34:834
-0.42102333903312683,0.10261262953281403,9.932387351989746,-0.017840876085306896,-0.012875532907341052,0.010341981417672706,154.1931762322062,177.15163944186799,0,1.2831101417541504,2019-08-07 13:53:34:837
0.11061109602451324,0.598325788974762,9.668964385986328,0.01332571636278103,0.00577114758435062,0.0034160718402785413,147.52147082295355,177.1355920629542,0,1.2860429286956787,2019-08-07 13:53:34:840
-0.7538935542106628,0.16727086901664734,10.097624778747559,-0.008251156012243464,-0.010744483886627255,0.010075600810232132,148.08787227754448,177.1756096909772,0,1.2897343635559082,2019-08-07 13:53:34:844
-0.3180491030216217,-0.0003616072062868625,9.786307334899902,-0.012513254573819707,-0.013141913514781627,0.005547121121066663,148.69144373047325,170.034574867323,0,1.2932000160217285,2019-08-07 13:53:34:847
0.03876860439777374,0.44745659828186035,9.695306777954102,0.001871327486332884,0.0009762868976330894,0.007411789014191235,142.12203419239378,170.18072264664943,0,1.2961699962615967,2019-08-07 13:53:34:850
-0.3036805987358093,0.5432465672492981,9.654596328735352,0.003203233254316169,-0.0006219999979394207,0.01700151012755197,142.84369538677154,170.31200635259228,0,1.3000128269195557,2019-08-07 13:53:34:854
-0.23183810710906982,0.2031921148300171,9.817439079284668,0.0034696143819053942,-0.008347053218175584,0.0036824529678677657,143.561228516077,170.48144452024533,0,1.3031337261199951,2019-08-07 13:53:34:857
-1.089158535003662,-0.19433633983135223,9.980281829833984,-0.023434881325126566,-0.017137630948768648,0.001018641496919776,144.16840539381093,163.49817852082123,0,1.30621337890625,2019-08-07 13:53:34:860
0.48419204354286194,0.6510103344917297,9.510910987854004,0.0077317126834073125,0.017225537110984575,0.013804936596481276,137.73975088514925,163.74829654251133,0,1.309908151626587,2019-08-07 13:53:34:864
-0.48568159341812134,0.5767730474472046,9.668964385986328,0.030107728961348126,0.01216429516664066,0.005014358865888214,138.52507173059914,163.9991844299714,0,1.3133809566497803,2019-08-07 13:53:34:868
-0.6245770454406738,-0.22067858278751373,10.138335227966309,-0.03542203154649302,-0.021932492285671987,0.010341981417672706,139.28771110930526,157.15002875809805,0,1.3163418769836426,2019-08-07 13:53:34:871
0.2111905813217163,0.3396928608417511,9.458227157592773,0.0034696143819053942,0.0025745737932055994,-0.002977075742011499,132.92701236059895,157.565179802585,0,1.319988489151001,2019-08-07 13:53:34:874
-0.3635493516921997,0.6198785901069641,9.776728630065918,0.01332571636278103,0.00577114758435062,0.004215215223046215,133.82486949666432,157.93898348125563,0,1.3231089115142822,2019-08-07 13:53:34:877
-0.8017885684967041,0.22713960707187653,9.968308448791504,-0.016508970967509425,-0.0056832419422833385,0.016202366224635646,134.6573356938898,158.35681592215258,0,1.3260416984558105,2019-08-07 13:53:34:880
0.20400632917881012,0.19121836125850677,9.656991004943848,0.001338565231154435,0.007369434349885967,-0.001911551101617438,128.38687018004654,158.7667156354947,0,1.3297221660614014,2019-08-07 13:53:34:884
-0.3324176073074341,0.23192910850048065,9.707281112670898,-0.013046016828998155,0.00017714346610147965,0.00394883409545699,129.3798726426969,159.16655280520393,0,1.3331961631774902,2019-08-07 13:53:34:887
-0.6126033067703247,0.4235090911388397,9.824623107910156,-0.0031899140678995457,-0.008879815473354034,0.012739412086124375,130.32238293914,159.53438266015235,0,1.3361396789550781,2019-08-07 13:53:34:890
0.2974015772342682,0.3660351037979126,9.618675231933594,0.0077317126834073125,-0.0024866678910639927,0.008477313524548133,124.1518915954477,159.89843951387635,0,1.33998441696167,2019-08-07 13:53:34:894
-0.46652358770370483,0.18163937330245972,9.886886596679688,0.004535139152336618,-0.0027530490186532175,0.0028833095851000918,125.21530610113528,160.27862407065075,0,1.3431124687194824,2019-08-07 13:53:34:897
-0.7012090682983398,0.10979688167572021,9.94196605682373,-0.019971927186615297,-0.015539344183233298,0.007944551269369684,126.23289874262063,160.66372158061347,0,1.3460772037506104,2019-08-07 13:53:34:900
0.11540059000253677,0.5216938257217407,9.64980697631836,0.00986276222426976,0.002840954920794824,0.004481596610709765,120.12142393040344,160.98675089569267,0,1.349337100982666,2019-08-07 13:53:34:904
-0.4114443361759186,0.3516665995121002,9.709675788879395,0.0016049463587436595,-8.92376858697129e-05,0.008477313524548133,121.27048686566845,161.3251681192886,0,1.3533644676208496,2019-08-07 13:53:34:908
-0.55512934923172,0.16008661687374115,9.908439636230469,-0.011714110670903381,-0.008347053218175584,0.008477313524548133,122.38235631907722,161.68213540744557,0,1.356379508972168,2019-08-07 13:53:34:911
0.0675055980682373,0.3133505880832672,9.59233283996582,-0.0039890577107415445,-0.0008883811255286454,0.0023505473299216427,116.34295305364843,162.01187938515355,0,1.3599812984466553,2019-08-07 13:53:34:914
-0.3060753643512726,0.34927183389663696,9.71207046508789,-0.006386488119118891,0.00044352460994534954,0.009010076299875233,117.57991466332064,162.33156982145573,0,1.3631057739257812,2019-08-07 13:53:34:917
-0.6940248012542725,0.2750346064567566,9.824623107910156,-0.009583061650189587,-0.006748766452640236,0.010075600810232132,118.74861663720037,162.65445091724072,0,1.3660483360290527,2019-08-07 13:53:34:920
0.0076368567533791065,0.2941926121711731,9.76954460144043,-0.0013252461747749735,-0.0003556188378409054,0.004481596610709765,112.7746135487986,162.9671389328316,0,1.3697283267974854,2019-08-07 13:53:34:924
-0.39468109607696533,0.22713960707187653,9.843781471252441,-0.004521819705845669,-0.006748766452640236,0.001817784944706031,114.07451645854806,163.28224088137137,0,1.373199701309204,2019-08-07 13:53:34:927
-0.8257360458374023,0.19121836125850677,10.030571937561035,-0.012246872926081832,-0.00435133604426289,0.0068790267590127865,115.29961977460546,163.59676696642268,0,1.3761277198791504,2019-08-07 13:53:34:930
0.27345407009124756,0.42111432552337646,9.525279998779297,0.0021377086139221083,0.00870133998783209,0.010075600810232132,109.42463117204537,163.87374051118186,0,1.3799846172332764,2019-08-07 13:53:34:934
-0.31565433740615845,0.3995615839958191,9.774333953857422,0.006133425917871965,0.006836672094707517,0.005280739993477438,110.79779838511118,164.14824021149076,0,1.3834924697875977,2019-08-07 13:53:34:938
-0.7155775427818298,0.10261262953281403,9.932387351989746,-0.016775352615247298,-0.01047810223888938,0.011141125320589031,112.10092712239248,164.45583816950597,0,1.3860414028167725,2019-08-07 13:53:34:940
-0.20310111343860626,0.25108709931373596,9.73122787475586,-0.009583061650189587,-0.005949623069872562,0.0028833095851000918,113.4360911369038,164.73892545047246,0,1.3893208503723145,2019-08-07 13:53:34:944
-0.17675887048244476,0.4498513340950012,9.637832641601562,0.0034696143819053942,-0.0008883811255286454,0.004481596610709765,114.74655228450088,164.9899307493683,0,1.3932666778564453,2019-08-07 13:53:34:948
-0.7778410315513611,0.2678503692150116,9.963519096374512,-0.005054581961024118,-0.008613434345764809,0.008210932396958909,115.96379657693528,165.2601873922036,0,1.3962743282318115,2019-08-07 13:53:34:951
-0.21746961772441864,0.124165378510952,9.807860374450684,-0.011714110670903381,-0.006216004197461787,0.004481596610709765,117.2204280601995,165.5429491551621,0,1.4000322818756104,2019-08-07 13:53:34:954
-0.21507486701011658,0.3013768494129181,9.74080753326416,-0.007452012629475789,-0.0038185737890844406,0.0028833095851000918,118.45138747542981,165.79794588332376,0,1.4031357765197754,2019-08-07 13:53:34:957
-0.5862610936164856,0.36124560236930847,9.829413414001465,-0.001058865047185749,-0.004884098039367014,0.013272174341302826,119.6148984828057,166.04006618754934,0,1.4060688018798828,2019-08-07 13:53:34:960
-0.3443913459777832,0.3085611164569855,9.817439079284668,-0.0037226765831523197,-0.0008883811255286454,0.006346264503834336,120.78258117239028,166.28394116731326,0,1.4093241691589355,2019-08-07 13:53:34:964
-0.2845225930213928,0.2031921148300171,9.714465141296387,-0.005054581961024118,-0.0056832419422833385,0.0023505473299216427,121.93464203561716,166.53542251284304,0,1.4132885932922363,2019-08-07 13:53:34:968
-0.43299707770347595,0.36842983961105347,9.867729187011719,-0.008251156012243464,-0.007015147580229461,0.006346264503834336,123.04688633539722,166.7633461520522,0,1.416304111480713,2019-08-07 13:53:34:971
-0.2653646171092987,0.35645610094070435,9.824623107910156,0.0008058029759759856,-0.0046177169117777896,0.005280739993477438,124.15596010963054,166.98635474160153,0,1.4199886322021484,2019-08-07 13:53:34:974
-0.30847010016441345,0.2726398706436157,9.728833198547363,0.001338565231154435,-0.0006219999979394207,0.003149690712689317,125.23662884859303,167.2142882760736,0,1.423111915588379,2019-08-07 13:53:34:977
-0.48568159341812134,0.18403412401676178,9.82222843170166,-0.010648586160546484,-0.0038185737890844406,0.005280739993477438,126.27590849548471,167.45028700364094,0,1.4260427951812744,2019-08-07 13:53:34:980
-0.2845225930213928,0.3325085937976837,9.812649726867676,-0.0031899140678995457,-0.007281528707818685,0.0026169284575108674,127.31868046906338,167.66312624124362,0,1.4297292232513428,2019-08-07 13:53:34:984
-0.20549586415290833,0.31574535369873047,9.829413414001465,6.659528697688281e-06,-0.004084954916673665,0.004215215223046215,128.3491499247352,167.87306539507006,0,1.4332010746002197,2019-08-07 13:53:34:987
-0.4090496003627777,0.21037636697292328,9.817439079284668,-0.006919250374297341,-0.008347053218175584,0.007411789014191235,129.33582392056766,168.09219172298899,0,1.4361340999603271,2019-08-07 13:53:34:990
-0.23662760853767395,0.33729809522628784,9.788702011108398,-0.0039890577107415445,-0.0014211433807070943,0.001018641496919776,130.32172064029828,168.29174400653977,0,1.4400019645690918,2019-08-07 13:53:34:994
-0.3563650846481323,0.35645610094070435,9.83899211883545,-0.005320963088613342,-0.0035521926614952163,0.0015514038171168065,131.27442296168456,168.48534563256754,0,1.443126916885376,2019-08-07 13:53:34:997
-0.4090496003627777,0.2798241078853607,9.894071578979492,-0.0031899140678995457,-0.005150479166956239,0.0007522603693305514,132.20248262469943,168.6837938966717,0,1.4462273120880127,2019-08-07 13:53:35:001
-0.2845225930213928,0.30377161502838135,9.74080753326416,-0.0021243895575426474,-0.0038185737890844406,-0.000579645398652734,133.12576682785271,168.8748364046486,0,1.4499387741088867,2019-08-07 13:53:35:004
-0.2773383557796478,0.3205348551273346,9.817439079284668,-0.002390770685131872,-0.0056832419422833385,0.00021949806538816636,134.03199403995387,169.06040442127315,0,1.4534032344818115,2019-08-07 13:53:35:008
-0.30128586292266846,0.2989821135997772,9.877307891845703,-0.0029235329403103213,-0.0056832419422833385,-0.000579645398652734,134.9173579418147,169.24500747246577,0,1.4563696384429932,2019-08-07 13:53:35:011
-0.30847010016441345,0.3205348551273346,9.791096687316895,0.0008058029759759856,-0.0019539056358855436,-0.0016451699740282137,135.783316065318,169.42244329284375,0,1.4599754810333252,2019-08-07 13:53:35:014
-0.32283860445022583,0.2870083451271057,9.819833755493164,-0.0013252461747749735,-0.006748766452640236,0.002084166072295256,136.63117316591035,169.60074414972678,0,1.4630978107452393,2019-08-07 13:53:35:017
-0.3587598502635956,0.3468770980834961,9.76954460144043,-0.004788200833434893,-0.0046177169117777896,-0.0032434568696007235,137.4572479124034,169.76884750080197,0,1.4660286903381348,2019-08-07 13:53:35:020
-0.34199661016464233,0.1888236254453659,9.74080753326416,-0.0013252461747749735,-0.0019539056358855436,-0.0051081250227996205,138.26829213206275,169.95153494031445,0,1.4697237014770508,2019-08-07 13:53:35:024
-0.2917068600654602,0.2415081113576889,9.836597442626953,-0.0021243895575426474,-0.005949623069872562,-0.004575362767621172,139.07011207077858,170.1247889446101,0,1.4731907844543457,2019-08-07 13:53:35:027
-0.3970758318901062,0.3061663508415222,9.7982816696167,-0.0031899140678995457,-0.006216004197461787,-0.002177932229206663,139.84332156467258,170.28702426638532,0,1.4761264324188232,2019-08-07 13:53:35:030
-0.2869173586368561,0.3444823622703552,9.815044403076172,-0.0015916273023641983,-0.004084954916673665,-0.004308981379957623,140.61385118271068,170.44142622888748,0,1.4799821376800537,2019-08-07 13:53:35:034
-0.2869173586368561,0.3205348551273346,9.791096687316895,-0.0021243895575426474,-0.00435133604426289,-0.004042600252368397,141.36876706761078,170.59546938142003,0,1.4831054210662842,2019-08-07 13:53:35:037
-0.3180491030216217,0.2415081113576889,9.819833755493164,-0.007452012629475789,-0.006748766452640236,-0.006972792915924193,142.10540515740618,170.75661418381833,0,1.4860475063323975,2019-08-07 13:53:35:040
-0.239022359251976,0.28940311074256897,9.688122749328613,-0.001058865047185749,-0.0054168602945454634,-0.007239174043513418,142.8361505506185,170.9074801667939,0,1.4897279739379883,2019-08-07 13:53:35:044
-0.25099611282348633,0.2989821135997772,9.71207046508789,-0.004521819705845669,-0.001687524508296319,-0.005640887277978069,143.5501509920333,171.0549536820392,0,1.493227481842041,2019-08-07 13:53:35:048
-0.30847010016441345,0.24629761278629303,9.915623664855957,-0.004788200833434893,-0.005150479166956239,-0.008304698553870315,144.2443748277469,171.20620010091477,0,1.4962158203125,2019-08-07 13:53:35:050
-0.2869173586368561,0.2726398706436157,9.733622550964355,-0.0015916273023641983,-0.0024866678910639927,-0.011767653732678886,144.92624646794854,171.35032485777873,0,1.4999933242797852,2019-08-07 13:53:35:054
-0.29649636149406433,0.3013768494129181,9.78151798248291,-0.0018580084299534227,-0.0027530490186532175,-0.006972792915924193,145.5934792559903,171.4883481676125,0,1.5031111240386963,2019-08-07 13:53:35:057
-0.2677593529224396,0.28940311074256897,9.819833755493164,-0.0021243895575426474,-0.00435133604426289,-0.006440030660745744,146.2510864314825,171.62516841152285,0,1.5060372352600098,2019-08-07 13:53:35:060
-0.23662760853767395,0.3468770980834961,9.728833198547363,-0.0037226765831523197,-0.0022202867634747683,-0.014165083360833256,146.89865832702975,171.7525955636816,0,1.5097224712371826,2019-08-07 13:53:35:064
-0.2941015958786011,0.2750346064567566,9.74080753326416,-0.004521819705845669,-0.001687524508296319,-0.008038317426281092,147.52642597906163,171.88607757150888,0,1.513190746307373,2019-08-07 13:53:35:067
-0.2581803500652313,0.3133505880832672,9.836597442626953,-0.0026571518127210965,-0.0056832419422833385,-0.011234891477500435,148.14676616673225,172.01230335930708,0,1.51613187789917,2019-08-07 13:53:35:070
-0.3180491030216217,0.3013768494129181,9.755175590515137,-0.0018580084299534227,0.00044352460994534954,-0.007239174043513418,148.74638774076675,172.13706838519244,0,1.5199832916259766,2019-08-07 13:53:35:074
-0.21028536558151245,0.3660351037979126,9.78151798248291,-0.004521819705845669,-0.006216004197461787,-0.011767653732678886,149.3479188974014,172.2522587231909,0,1.5231070518493652,2019-08-07 13:53:35:077
-0.3180491030216217,0.23432385921478271,9.896466255187988,-0.0077183937570650145,-0.004084954916673665,-0.009902985319405663,149.92481984040538,172.38135905957685,0,1.5260441303253174,2019-08-07 13:53:35:080
-0.02588963881134987,0.3971668481826782,9.795886039733887,-0.007984774884654239,-0.0022202867634747683,-0.002177932229206663,150.52375427411917,172.48894906308607,0,1.529728889465332,2019-08-07 13:53:35:084
0.2111905813217163,0.3588508367538452,9.63304328918457,0.004268757764673068,-0.007814290962997135,-0.017361656891903953,143.93992074663873,172.59567008256377,0,1.5332000255584717,2019-08-07 13:53:35:087
-1.1131060123443604,-0.06501984596252441,10.116783142089844,-0.030893552897624854,-0.021133348382755664,-0.007505555171102641,144.53903251816277,165.55621615590923,0,1.5361371040344238,2019-08-07 13:53:35:090
0.7021142840385437,0.5408518314361572,9.757570266723633,0.0029368521267269447,0.016160011560330378,-0.004042600252368397,138.12704510001294,165.78100011707798,0,1.5400166511535645,2019-08-07 13:53:35:094
0.20879583060741425,0.6701682806015015,9.369621276855469,0.03756640053384642,0.0169591554632467,-0.017095276284463376,131.78708221866387,165.97701426654274,0,1.5431184768676758,2019-08-07 13:53:35:097
-1.3094754219055176,-0.22067858278751373,10.334705352783203,-0.03515565301964704,-0.021399728990196237,-0.005907268405567294,132.61043540420295,159.08772233802927,0,1.5460481643676758,2019-08-07 13:53:35:100
0.4410865604877472,0.3277190923690796,9.55162239074707,-0.001058865047185749,0.003906479431151722,-0.014697845616011706,126.41029670796529,159.46688612446306,0,1.5497405529022217,2019-08-07 13:53:35:104
0.5464555621147156,0.8449850082397461,9.537253379821777,0.020251625680100867,0.0071030532222967424,-0.013898702753392682,120.34629725991614,159.77235408580935,0,1.5531988143920898,2019-08-07 13:53:35:107
-1.2400277853012085,-0.005151106510311365,10.114388465881348,-0.02023830779405587,-0.021932492285671987,-0.004575362767621172,121.40320127241914,152.9808328395931,0,1.5561399459838867,2019-08-07 13:53:35:110
0.18724308907985687,0.03316488862037659,9.728833198547363,-0.01277963518126028,-0.0046177169117777896,-0.01762803957993913,115.39818710166841,153.52007199217292,0,1.5599892139434814,2019-08-07 13:53:35:114
0.5177185535430908,0.4953515827655792,9.539648056030273,0.001871327486332884,0.006037528711939843,-0.0189599446977366,109.55129411659215,153.98989390599598,0,1.563108205795288,2019-08-07 13:53:35:117
-1.0268950462341309,0.36124560236930847,10.07846736907959,-0.006120106991529666,-0.007814290962997135,0.00021949806538816636,110.8452008295595,154.47004926052682,0,1.566044569015503,2019-08-07 13:53:35:120
0.4985605478286743,0.2151658684015274,9.628253936767578,0.00027304068828824584,-0.0038185737890844406,-0.010968509829762562,105.0883710306339,154.95498784651775,0,1.5697314739227295,2019-08-07 13:53:35:124
0.28782257437705994,0.22713960707187653,9.585148811340332,0.0034696143819053942,0.0025745737932055994,-0.019492705912617748,99.42050230952233,155.4280638928642,0,1.5731935501098633,2019-08-07 13:53:35:127
-0.7898147702217102,0.2678503692150116,10.04973030090332,-0.018640019988223223,-0.0134082951625195,-0.0016451699740282137,100.94442479470086,155.89203514748064,0,1.5761237144470215,2019-08-07 13:53:35:130
0.24232232570648193,0.3851930797100067,9.69051742553711,0.005600663662693516,0.0033737171759732733,-0.009902985319405663,95.35345086582609,156.32744973000788,0,1.580000400543213,2019-08-07 13:53:35:134
0.16808508336544037,0.2798241078853607,9.728833198547363,0.005600663662693516,-8.92376858697129e-05,-0.014165083360833256,89.8661935293684,156.76696757011985,0,1.5831263065338135,2019-08-07 13:53:35:137
-0.7059985399246216,0.0714808851480484,10.088046073913574,-0.01970554449858012,-0.014207438025138526,-0.004575362767621172,91.59114538479787,157.22675507969103,0,1.5860602855682373,2019-08-07 13:53:35:140
0.11779534071683884,0.3325085937976837,9.683333396911621,0.0021377086139221083,-0.0024866678910639927,-0.008038317426281092,86.1737199632017,157.64249264391464,0,1.5893433094024658,2019-08-07 13:53:35:144
0.12976908683776855,0.38279834389686584,9.721649169921875,0.0029368521267269447,-0.003285811533905992,-0.010169366967143538,80.86626728208654,158.04389540482777,0,1.593280553817749,2019-08-07 13:53:35:148
-0.5814715623855591,0.13853387534618378,9.980281829833984,-0.009583061650189587,-0.009678958335973056,-0.0008460265262419585,82.78389007615296,158.46873226024175,0,1.5962910652160645,2019-08-07 13:53:35:151
0.15371659398078918,0.3396928608417511,9.692912101745605,-0.001058865047185749,-0.0014211433807070943,-0.0077719362986918665,77.54667912466259,158.859435180834,0,1.599996566772461,2019-08-07 13:53:35:154
0.03876860439777374,0.2870083451271057,9.829413414001465,-0.0005261027594980092,-0.003019430146242442,-0.0077719362986918665,72.40079340260968,159.24888851153366,0,1.6031122207641602,2019-08-07 13:53:35:157
-0.46652358770370483,0.1624813675880432,9.965913772583008,-0.012246872926081832,-0.0064823853250510115,0.0015514038171168065,74.50023808667734,159.6472397599816,0,1.6060352325439453,2019-08-07 13:53:35:160
0.0746898502111435,0.31095585227012634,9.697701454162598,0.001338565231154435,-0.0024866678910639927,-0.008304698553870315,69.41957396163728,160.01728655428138,0,1.609724998474121,2019-08-07 13:53:35:164
-0.15041662752628326,0.26306086778640747,9.64980697631836,-0.0018580084299534227,-0.0027530490186532175,-0.0032434568696007235,71.6138572652318,160.38607133963197,0,1.6131880283355713,2019-08-07 13:53:35:167
-0.4114443361759186,0.20079736411571503,9.90125560760498,-0.009849443297927462,-0.009412577728532483,-0.001911551101617438,73.73553952292296,160.75673616790445,0,1.6161212921142578,2019-08-07 13:53:35:170
0.0746898502111435,0.34208759665489197,9.707281112670898,-0.004788200833434893,-0.0022202867634747683,-0.004575362767621172,68.6701275854568,161.10227543754746,0,1.6199884414672852,2019-08-07 13:53:35:174
-0.1815483719110489,0.2678503692150116,9.771939277648926,-0.0013252461747749735,-0.005949623069872562,-0.00244431348683305,70.8764829534533,161.4490608157169,0,1.6231162548065186,2019-08-07 13:53:35:177
-0.3515755832195282,0.21277111768722534,9.867729187011719,-0.010914967808284359,-0.0064823853250510115,0.00048587920923203625,73.01921033627193,161.79717211352892,0,1.6260488033294678,2019-08-07 13:53:35:180
-0.06660038232803345,0.2870083451271057,9.762359619140625,0.00027304068828824584,-0.003019430146242442,-0.00031326423855421875,75.15163447901747,162.12749245014004,0,1.6297402381896973,2019-08-07 13:53:35:184
-0.18633787333965302,0.2486923635005951,9.776728630065918,-0.00425543883833077,-0.005949623069872562,0.0007522603693305514,77.2279229402662,162.45662891803084,0,1.633209228515625,2019-08-07 13:53:35:187
-0.25578561425209045,0.2941926121711731,9.870123863220215,-0.007984774884654239,-0.0056832419422833385,0.0036824529678677657,79.25462856588678,162.77469119759195,0,1.6361987590789795,2019-08-07 13:53:35:190
-0.08815313130617142,0.32292959094047546,9.721649169921875,-0.00025972161565413924,-0.0022202867634747683,0.005280739993477438,81.25961798680163,163.08120210619322,0,1.6399891376495361,2019-08-07 13:53:35:194
-0.14562712609767914,0.2678503692150116,9.86054515838623,-0.002390770685131872,-0.0008883811255286454,0.00394883409545699,83.2176593395713,163.3888784078248,0,1.6431190967559814,2019-08-07 13:53:35:197
-0.24141710996627808,0.2295343577861786,9.853360176086426,-0.009316680002451712,-0.007015147580229461,0.00394883409545699,85.12638641449105,163.69593976735996,0,1.646040439605713,2019-08-07 13:53:35:200
-0.12407437711954117,0.29658734798431396,9.829413414001465,-0.0021243895575426474,0.00044352460994534954,0.005014358865888214,87.00930306630683,163.98789476222885,0,1.6497251987457275,2019-08-07 13:53:35:204
-0.2270486205816269,0.3013768494129181,9.865334510803223,-0.006652869246708115,-0.0027530490186532175,0.004747977738298989,88.84328486231792,164.27443686787328,0,1.6531939506530762,2019-08-07 13:53:35:207
-0.2078906148672104,0.3061663508415222,9.831808090209961,-0.0031899140678995457,-0.007015147580229461,0.00394883409545699,90.64334852287763,164.55380095578835,0,1.656128168106079,2019-08-07 13:53:35:210
-0.06181088462471962,0.27742937207221985,9.788702011108398,-0.0034562954555630953,-0.003285811533905992,0.0034160718402785413,92.42395703130619,164.8310045113942,0,1.6599833965301514,2019-08-07 13:53:35:214
-0.3060753643512726,0.3013768494129181,9.795886039733887,-0.004788200833434893,-0.006216004197461787,0.005280739993477438,94.14077592463588,165.09998098741306,0,1.6631088256835938,2019-08-07 13:53:35:217
-0.2533908486366272,0.3061663508415222,9.846176147460938,-0.006120106991529666,-0.0035521926614952163,0.008210932396958909,95.82906193577563,165.3633687357206,0,1.6660423278808594,2019-08-07 13:53:35:220
-0.1815483719110489,0.27742937207221985,9.827017784118652,-0.0026571518127210965,-0.0046177169117777896,0.008210932396958909,97.4922685739013,165.62430914610843,0,1.6697278022766113,2019-08-07 13:53:35:224
-0.2653646171092987,0.3013768494129181,9.872518539428711,-0.007452012629475789,-0.004084954916673665,0.0076781701417804596,99.11242580566758,165.8783054597431,0,1.6731998920440674,2019-08-07 13:53:35:227
-0.16478511691093445,0.2941926121711731,9.757570266723633,-0.00425543883833077,-0.0014211433807070943,0.010075600810232132,100.71106101982994,166.12690100615106,0,1.6761326789855957,2019-08-07 13:53:35:230
-0.1671798676252365,0.31814008951187134,9.762359619140625,-0.0031899140678995457,-0.0038185737890844406,0.009542838555053683,102.27804397174386,166.36772260367243,0,1.6799850463867188,2019-08-07 13:53:35:234
-0.2773383557796478,0.2870083451271057,9.81025505065918,-0.005587344736351217,-0.0019539056358855436,0.010874743672851154,103.80043900687316,166.60783257448787,0,1.683107852935791,2019-08-07 13:53:35:237
-0.18873262405395508,0.2941926121711731,9.95872974395752,-0.0013252461747749735,-0.006748766452640236,0.011407505928029603,105.303831186366,166.84205304901653,0,1.6860506534576416,2019-08-07 13:53:35:240
-0.13125862181186676,0.28461360931396484,9.85096549987793,-0.001058865047185749,-0.0035521926614952163,0.007944551269369684,106.78322096320561,167.07233230990929,0,1.6897315979003906,2019-08-07 13:53:35:244
-0.2941015958786011,0.2726398706436157,9.870123863220215,-0.005853725863940442,-0.007547909835407911,0.009276456907315806,108.21488849382231,167.30037800385705,0,1.693192720413208,2019-08-07 13:53:35:247
-0.16239036619663239,0.3396928608417511,9.78151798248291,0.001338565231154435,-0.005150479166956239,0.014604079459100298,109.63241959135122,167.51436978484952,0,1.696136474609375,2019-08-07 13:53:35:250
-0.2462066113948822,0.2989821135997772,9.807860374450684,-0.0034562954555630953,-0.00435133604426289,0.012206649830945928,111.01195577407546,167.72991137051073,0,1.7000019550323486,2019-08-07 13:53:35:254
-0.3060753643512726,0.30377161502838135,9.733622550964355,-0.0031899140678995457,-0.006216004197461787,0.0124730304383865,112.35678155816038,167.94012004221696,0,1.7031149864196777,2019-08-07 13:53:35:257
-0.239022359251976,0.23911336064338684,9.74080753326416,-0.005320963088613342,-0.004084954916673665,0.011407505928029603,113.68220735839527,168.1540724767046,0,1.7060558795928955,2019-08-07 13:53:35:260
-0.23183810710906982,0.29179784655570984,9.776728630065918,-0.005320963088613342,-0.0027530490186532175,0.012206649830945928,114.98196355273386,168.35789904087704,0,1.7097344398498535,2019-08-07 13:53:35:264
-0.2797331213951111,0.27742937207221985,9.913228988647461,-0.0013252461747749735,-0.003019430146242442,0.011673887575767478,116.2505848757111,168.5589380182599,0,1.713200569152832,2019-08-07 13:53:35:267
-0.2773383557796478,0.3205348551273346,9.74080753326416,-0.001058865047185749,-0.003285811533905992,0.010874743672851154,117.49349965890406,168.7502401996743,0,1.716148853302002,2019-08-07 13:53:35:270
-0.239022359251976,0.2606661021709442,9.695306777954102,-0.0018580084299534227,-0.0027530490186532175,0.008743694652137358,118.71597810977161,168.94483446841468,0,1.7199878692626953,2019-08-07 13:53:35:274
-0.3180491030216217,0.29179784655570984,9.783912658691406,-0.005054581961024118,-0.0019539056358855436,0.010874743672851154,119.90476285338127,169.13265623671242,0,1.7231040000915527,2019-08-07 13:53:35:277
-0.2342328578233719,0.2941926121711731,9.886886596679688,-0.0013252461747749735,-0.00435133604426289,0.0068790267590127865,121.08024651755106,169.31613539293366,0,1.7260591983795166,2019-08-07 13:53:35:280
-0.28212785720825195,0.31095585227012634,9.764754295349121,-0.005587344736351217,-0.0027530490186532175,0.01060836306541058,122.22611037197947,169.49448622700126,0,1.7297329902648926,2019-08-07 13:53:35:284
-0.20549586415290833,0.24390286207199097,9.882097244262695,-0.005054581961024118,-0.0035521926614952163,0.01060836306541058,123.35845441633914,169.67730405428685,0,1.7332017421722412,2019-08-07 13:53:35:287
-0.239022359251976,0.28461360931396484,9.815044403076172,-0.004788200833434893,-0.005150479166956239,0.011673887575767478,124.46425760161956,169.85134982554575,0,1.736219882965088,2019-08-07 13:53:35:290
-0.2533908486366272,0.29658734798431396,9.910834312438965,-0.0031899140678995457,-0.00435133604426289,0.0076781701417804596,125.54660018661491,170.02071462488988,0,1.7399814128875732,2019-08-07 13:53:35:294
-0.28212785720825195,0.25108709931373596,9.82222843170166,-0.005320963088613342,-0.0056832419422833385,0.005280739993477438,126.60375725822267,170.19194472281595,0,1.743098258972168,2019-08-07 13:53:35:297
-0.2725488543510437,0.3013768494129181,9.834202766418457,-0.0039890577107415445,-0.007281528707818685,0.008743694652137358,127.64113430201049,170.35365805080716,0,1.7460391521453857,2019-08-07 13:53:35:300
-0.2917068600654602,0.22713960707187653,9.827017784118652,-0.0005261027594980092,-0.008613434345764809,0.007411789014191235,128.65608688936143,170.52021192739159,0,1.7497212886810303,2019-08-07 13:53:35:304
-0.2270486205816269,0.26545560359954834,9.757570266723633,-0.0021243895575426474,-0.005150479166956239,0.008210932396958909,129.6573089821253,170.6790544606823,0,1.753190517425537,2019-08-07 13:53:35:307
-0.41862860321998596,0.30377161502838135,9.894071578979492,-0.0039890577107415445,-0.006216004197461787,0.004215215223046215,130.6167424975298,170.83096671971478,0,1.7561578750610352,2019-08-07 13:53:35:310
-0.18873262405395508,0.36364033818244934,9.824623107910156,-0.00425543883833077,-0.0056832419422833385,0.019132559148265765,131.58361566587834,170.97286518610602,0,1.7599763870239258,2019-08-07 13:53:35:314
0.3357175588607788,0.4306933283805847,9.606700897216797,0.007465331555818087,-0.00435133604426289,0.0058135022486558875,125.39273542825443,171.10075888202928,0,1.763099193572998,2019-08-07 13:53:35:317
-1.4962660074234009,0.02837538905441761,10.095230102539062,-0.015177065849711954,-0.020600585087279914,0.001817784944706031,126.3196768296817,171.27803550751895,0,1.766047716140747,2019-08-07 13:53:35:320
0.6781667470932007,0.43548282980918884,9.554017066955566,0.0005394218158774704,0.01749191875872245,0.012206649830945928,120.270863624943,171.400167070037,0,1.7697367668151855,2019-08-07 13:53:35:324
0.23274332284927368,0.7013000249862671,9.321725845336914,0.03650087810408412,0.01749191875872245,-0.0035098379971899483,114.29065086439441,171.47901924921226,0,1.7731990814208984,2019-08-07 13:53:35:327
-1.2855279445648193,-0.2997053265571594,10.4185209274292,-0.04048327349083694,-0.023530778010910032,0.011407505928029603,115.46806010657573,164.48911086945924,0,1.7761540412902832,2019-08-07 13:53:35:330
0.4195338189601898,0.21037636697292328,9.647412300109863,0.001871327486332884,0.0015090491528115383,-0.002177932229206663,109.6081765505851,164.77394361711913,0,1.7799663543701172,2019-08-07 13:53:35:334
0.5727977752685547,0.7563793063163757,9.467805862426758,0.022649057388849838,0.01109877065628376,0.00021949806538816636,103.88331847403614,164.98315819860002,0,1.7830753326416016,2019-08-07 13:53:35:337
-1.1777642965316772,0.19840261340141296,10.152704238891602,-0.012513254573819707,-0.02033420447983934,0.010075600810232132,105.2766798575009,165.26317726384627,0,1.7860252857208252,2019-08-07 13:53:35:340
0.1393480896949768,0.0714808851480484,9.747991561889648,-0.011181348415724934,-0.006216004197461787,-4.688308251936486e-05,99.58866112137629,165.55155272931435,0,1.7892773151397705,2019-08-07 13:53:35:344
0.5727977752685547,0.5001410841941833,9.5228853225708,0.004535139152336618,0.0044392419464044965,-0.007239174043513418,94.06473279836923,165.77937344010832,0,1.793283224105835,2019-08-07 13:53:35:348
-1.1897380352020264,0.334903359413147,10.162282943725586,-0.010115823905368035,-0.012875532907341052,0.009542838555053683,95.65206696549362,166.02774631002683,0,1.796295404434204,2019-08-07 13:53:35:351
0.51532381772995,0.19361311197280884,9.645017623901367,0.0024040898715484956,-0.0035521926614952163,-4.688308251936486e-05,90.20093150227451,166.2836914043571,0,1.7999999523162842,2019-08-07 13:53:35:354
0.3093753159046173,0.22713960707187653,9.568385124206543,0.004268757764673068,0.003906479431151722,-0.009370223064227214,84.83326868107588,166.5300747730879,0,1.8031103610992432,2019-08-07 13:53:35:357
-0.8856047987937927,0.24629761278629303,10.11917781829834,-0.018906402676258396,-0.010211721631448806,0.006079883376245113,86.6382543618115,166.77470503018063,0,1.806046962738037,2019-08-07 13:53:35:360
0.3357175588607788,0.4450618326663971,9.642622947692871,0.007998093810996537,-0.0014211433807070943,-0.00031326423855421875,81.34566339592233,166.9847031297189,0,1.8097317218780518,2019-08-07 13:53:35:364
0.15371659398078918,0.3444823622703552,9.64980697631836,0.006932569300639639,0.002308192665616375,-0.00963660471196509,76.13655423896886,167.20277294164651,0,1.81318998336792,2019-08-07 13:53:35:367
-0.8736310601234436,0.0714808851480484,10.001834869384766,-0.015443446457152525,-0.007281528707818685,-0.0016451699740282137,78.11519388293681,167.4530937125799,0,1.8161487579345703,2019-08-07 13:53:35:370
0.2710593342781067,0.31574535369873047,9.716859817504883,0.0026704709991377204,0.003906479431151722,-0.004042600252368397,72.98400693740804,167.6662339846175,0,1.8199827671051025,2019-08-07 13:53:35:374
0.10582159459590912,0.3708246052265167,9.692912101745605,0.00586704479028274,0.001775430280400763,-0.007239174043513418,67.9365258821741,167.86806377708183,0,1.8231010437011719,2019-08-07 13:53:35:377
-0.698814332485199,0.1505076289176941,10.006624221801758,-0.012513254573819707,-0.009945339983710931,-0.004042600252368397,70.0995426788741,168.09553530759217,0,1.826042890548706,2019-08-07 13:53:35:380
0.1728745847940445,0.2941926121711731,9.709675788879395,-0.001058865047185749,-0.003019430146242442,-0.0077719362986918665,65.11857514636309,168.29913376374233,0,1.8297185897827148,2019-08-07 13:53:35:384
-0.239022359251976,0.3085611164569855,9.81025505065918,0.001871327486332884,-0.004084954916673665,-0.005907268405567294,67.38908415579823,168.496756528899,0,1.8331832885742188,2019-08-07 13:53:35:387
-0.5623135566711426,0.20798161625862122,10.023387908935547,-0.01277963518126028,-0.012342770652162603,-0.0051081250227996205,69.57913778453259,168.7051742171463,0,1.8361470699310303,2019-08-07 13:53:35:390
0.031584352254867554,0.3396928608417511,9.637832641601562,0.005334282535104291,-0.0019539056358855436,-0.005374506150388846,64.59173145247719,168.8895490478149,0,1.8399856090545654,2019-08-07 13:53:35:394
-0.2198643684387207,0.2558766007423401,9.81025505065918,0.001338565231154435,-0.0035521926614952163,-0.0016451699740282137,66.87483889382398,169.08164291526694,0,1.843092441558838,2019-08-07 13:53:35:397
-0.44018134474754333,0.16487611830234528,9.865334510803223,-0.006652869246708115,-0.012076389004424728,-0.0032434568696007235,69.08824106832854,169.28195938668048,0,1.846034049987793,2019-08-07 13:53:35:400
-0.08815313130617142,0.33729809522628784,9.75278091430664,-0.0005261027594980092,-0.0003556188378409054,-0.01150127208494101,71.29618376127074,169.45680072392435,0,1.8492841720581055,2019-08-07 13:53:35:404
-0.2653646171092987,0.3085611164569855,9.779123306274414,-0.002390770685131872,-0.004084954916673665,-0.0037762191247791726,73.4400817189552,169.63205179757273,0,1.8532488346099854,2019-08-07 13:53:35:408
-0.38031259179115295,0.23911336064338684,9.812649726867676,-0.005320963088613342,-0.007015147580229461,-0.006440030660745744,75.5280759255535,169.81239257660846,0,1.8562605381011963,2019-08-07 13:53:35:411
-0.05462663620710373,0.2989821135997772,9.73122787475586,-0.0013252461747749735,-0.0011547622531178697,-0.008038317426281092,77.61132269836212,169.98122512892598,0,1.8599753379821777,2019-08-07 13:53:35:414
-0.2773383557796478,0.21277111768722534,9.776728630065918,-0.0034562954555630953,-0.0038185737890844406,-0.008837460809048764,79.6272665846832,170.15727063781839,0,1.863090991973877,2019-08-07 13:53:35:417
-0.42102333903312683,0.2534818649291992,9.867729187011719,-0.0077183937570650145,-0.0035521926614952163,-0.007239174043513418,81.58644637217046,170.32597289694596,0,1.8660385608673096,2019-08-07 13:53:35:420
-0.11449537426233292,0.3205348551273346,9.736018180847168,-0.0018580084299534227,-0.0022202867634747683,-0.00857107968145954,83.54170164516393,170.48212510485436,0,1.8697245121002197,2019-08-07 13:53:35:424
-0.2653646171092987,0.2678503692150116,9.824623107910156,-0.0013252461747749735,-0.00435133604426289,-0.014165083360833256,85.440768255667,170.6415062437805,0,1.873180866241455,2019-08-07 13:53:35:427
-0.2845225930213928,0.23192910850048065,9.827017784118652,-0.005320963088613342,-0.010211721631448806,-0.011234891477500435,87.30047294541967,170.80251605667442,0,1.8761258125305176,2019-08-07 13:53:35:430
-0.09054788202047348,0.3277190923690796,9.764754295349121,-0.0021243895575426474,-0.005949623069872562,-0.013365940498214234,89.1451339181228,170.94848439947077,0,1.8800055980682373,2019-08-07 13:53:35:434
-0.19112737476825714,0.32292959094047546,9.800676345825195,-0.002390770685131872,-0.004884098039367014,-0.014165083360833256,90.94074320077743,171.09218984528525,0,1.8831274509429932,2019-08-07 13:53:35:437
-0.29649636149406433,0.2151658684015274,9.7982816696167,-0.002390770685131872,-0.0056832419422833385,-0.012833178243035783,92.68821853105923,171.24558806692355,0,1.886120319366455,2019-08-07 13:53:35:440
-0.140837624669075,0.25827136635780334,9.736018180847168,-0.00425543883833077,-0.007015147580229461,-0.013099558850476358,94.41939984768321,171.39120785933156,0,1.8899815082550049,2019-08-07 13:53:35:444
-0.28931209444999695,0.28940311074256897,9.786307334899902,-0.0015916273023641983,-0.006216004197461787,-0.014697845616011706,96.0982336864629,171.52978501814448,0,1.8931005001068115,2019-08-07 13:53:35:447
-0.35397034883499146,0.2534818649291992,9.829413414001465,-0.004788200833434893,-0.007547909835407911,-0.010435747574584113,97.7362665657229,171.6704351141871,0,1.8960397243499756,2019-08-07 13:53:35:450
-0.2270486205816269,0.2606661021709442,9.724043846130371,-0.004788200833434893,-8.92376858697129e-05,-0.013099558850476358,99.35480828555454,171.807303229833,0,1.8997118473052979,2019-08-07 13:53:35:454
-0.18873262405395508,0.3133505880832672,9.81025505065918,-0.006120106991529666,-0.0024866678910639927,-0.014165083360833256,100.94615473191668,171.93576232417664,0,1.9031879901885986,2019-08-07 13:53:35:457
-0.2941015958786011,0.2486923635005951,9.8797025680542,-0.0013252461747749735,-0.0035521926614952163,-0.014964227263749581,102.4937189817173,172.06842793830313,0,1.906141996383667,2019-08-07 13:53:35:460
-0.2078906148672104,0.30377161502838135,9.759964942932129,-0.0034562954555630953,-0.004084954916673665,-0.017361656891903953,104.02031869956863,172.1921486823514,0,1.909973382949829,2019-08-07 13:53:35:464
-0.32283860445022583,0.34927183389663696,9.819833755493164,-0.0029235329403103213,-0.008879815473354034,-0.016828894636725503,105.50380733867071,172.30807684260625,0,1.9130916595458984,2019-08-07 13:53:35:467
-0.3036805987358093,0.23671860992908478,9.853360176086426,0.0008058029759759856,-0.008347053218175584,-0.016296132381547052,106.95980974592013,172.43425729524907,0,1.9160456657409668,2019-08-07 13:53:35:470
-0.20310111343860626,0.2822188436985016,9.76954460144043,-0.002390770685131872,-0.007015147580229461,-0.021357374325890972,108.39824422482967,172.55297271961888,0,1.9197266101837158,2019-08-07 13:53:35:474
-0.20310111343860626,0.2223501205444336,9.848570823669434,-0.005587344736351217,-0.009146196080794608,-0.021357374325890972,109.80842901938847,172.67713252461377,0,1.9231884479522705,2019-08-07 13:53:35:477
-0.3108648657798767,0.3133505880832672,9.865334510803223,-0.0018580084299534227,-0.0014211433807070943,-0.02189013762136672,111.17639908770782,172.78751246016202,0,1.9261391162872314,2019-08-07 13:53:35:480
-0.23183810710906982,0.2606661021709442,9.891676902770996,-0.0034562954555630953,-0.005150479166956239,-0.020558230422974645,112.52712753723307,172.90231625661963,0,1.9299743175506592,2019-08-07 13:53:35:484
-0.23183810710906982,0.2989821135997772,9.81025505065918,-0.005054581961024118,-0.007281528707818685,-0.019492705912617748,113.85078588754281,173.01024328184596,0,1.933096170425415,2019-08-07 13:53:35:487
-0.239022359251976,0.25108709931373596,9.819833755493164,-0.0015916273023641983,-0.0054168602945454634,-0.025885852974759135,115.14677820117616,173.1210074192632,0,1.9360387325286865,2019-08-07 13:53:35:490
