ACCELEROMETER X (m/s²),ACCELEROMETER Y (m/s²),ACCELEROMETER Z (m/s²),GYROSCOPE X (rad/s),GYROSCOPE Y (rad/s),GYROSCOPE Z (rad/s),Time since start in ms ,YYYY-MO-DD HH-MI-SS_SSS,Pitch (Deg),Roll (Deg),Heading (Deg),MagX,MagY,MagZ
-0.05337657779455185,0.42768314480781555,9.805803298950195,-0.007519939882029623,-0.017647751133194917,-0.02735121575268321,0.0,2019-08-07 14:06:14:560,3.5937624234665995,3.5500521927578954,0,-34.485958099365234,23.090599060058594,-33.586326599121094
-0.12521906197071075,0.46839389204978943,9.75790786743164,-0.0019259356825072562,-0.015516702112481122,-0.02575293002744516,0.009458303451538086,2019-08-07 14:06:14:570,7.115423585198576,7.025110538803327,0,-34.485958099365234,23.090599060058594,-33.586326599121094
-0.11324531584978104,0.44205164909362793,9.765092849731445,-0.0019259356825072562,-0.009389935657780304,-0.03401074550285977,0.019008636474609375,2019-08-07 14:06:14:579,10.564861932824993,10.433802557762156,0,-34.485958099365234,23.090599060058594,-33.586326599121094
-0.055771324783563614,0.36781439185142517,9.801013946533203,-0.0011267922997395827,-0.008324410627274756,-0.0348098894057761,0.029015779495239258,2019-08-07 14:06:14:589,13.9517215731363,13.782775675215081,0,-34.485958099365234,23.090599060058594,-33.586326599121094
-0.11085056513547897,0.3917618989944458,9.793828964233398,-0.008851844999827095,-0.007258886116917857,-0.03667455781904932,0.03900766372680664,2019-08-07 14:06:14:599,17.263790300573426,17.066273204970955,0,-34.485958099365234,23.090599060058594,-33.586326599121094
-0.03661332651972771,0.3055509030818939,9.872856140136719,-0.0061880337239348495,-0.01658222662283802,-0.03294522099250287,0.04903292655944824,2019-08-07 14:06:14:609,20.523599324351828,20.29297794421405,0,-34.485958099365234,23.090599060058594,-33.586326599121094
-0.010271081700921059,0.3199194073677063,9.78664493560791,-0.002192316810096481,-0.014451176561826921,-0.030547791364348504,0.05900216102600098,2019-08-07 14:06:14:619,23.72001405199592,23.45089963916226,0,-34.485958099365234,23.090599060058594,-33.586326599121094
-0.055771324783563614,0.3845776319503784,9.738750457763672,0.003135306001762336,-0.0048614559686148365,-0.028416740263040103,0.06900525093078613,2019-08-07 14:06:14:629,26.841782022527287,26.534892587392633,0,-34.485958099365234,23.090599060058594,-33.586326599121094
-0.012665831483900547,0.2935771644115448,9.748329162597656,-0.008052702137208073,-0.008857173402601856,-0.022023593200898715,0.0790090560913086,2019-08-07 14:06:14:639,29.908432698306854,29.57421848422533,0,-34.485958099365234,23.090599060058594,-33.586326599121094
-0.04140282794833183,0.29597190022468567,9.767487525939941,-0.008851844999827095,-0.014983938817005372,-0.02708483514524263,0.08900928497314453,2019-08-07 14:06:14:649,32.913820373111555,32.55299190882745,0,-34.485958099365234,23.090599060058594,-33.586326599121094
-0.08450832217931747,0.3965514004230499,9.832145690917969,-0.004323365830810277,-0.01604946436765957,-0.02415464222161251,0.09900617599487305,2019-08-07 14:06:14:659,35.85470389430935,35.458166696601985,0,-34.63589859008789,22.041025161743164,-34.336021423339844
-0.10127156972885132,0.3079456388950348,9.762697219848633,-0.008851844999827095,-0.010189078520399329,-0.022023593200898715,0.10901856422424316,2019-08-07 14:06:14:669,38.73145153635191,38.317846080874986,0,-34.63589859008789,22.041025161743164,-34.336021423339844
-0.134798064827919,0.30315616726875305,9.791434288024902,-0.00672079649926195,-0.005394218223793286,-0.022023593200898715,0.11900639533996582,2019-08-07 14:06:14:679,41.544072914165206,41.119790505038566,0,-34.63589859008789,22.041025161743164,-34.336021423339844
-0.1419823169708252,0.3773933947086334,9.750723838806152,-0.006987177626851173,-0.013652033699207897,-0.02335550039929079,0.12901020050048828,2019-08-07 14:06:14:689,44.304175235114855,43.856989925989694,0,-34.63589859008789,22.041025161743164,-34.336021423339844
-0.16592980921268463,0.2816033959388733,9.870461463928223,-0.006454414851524075,-0.014983938817005372,-0.01882701966982802,0.1390087604522705,2019-08-07 14:06:14:699,47.00724209982287,46.55078974575653,0,-34.63589859008789,22.041025161743164,-34.336021423339844
-0.14437706768512726,0.25765591859817505,9.877645492553711,-0.004589746958399502,-0.0115209846784941,-0.023621881006731363,0.14901041984558105,2019-08-07 14:06:14:709,49.65681921229026,49.19246736948557,0,-34.63589859008789,22.041025161743164,-34.336021423339844
-0.17550881206989288,0.34386688470840454,9.791434288024902,0.004200830512119234,-0.006459742734150184,-0.021757212593458142,0.15901613235473633,2019-08-07 14:06:14:719,52.24677400910413,51.76603086105301,0,-34.63589859008789,22.041025161743164,-34.336021423339844
-0.1156400665640831,0.2816033959388733,9.801013946533203,-0.005921652596345625,-0.012586509188851,-0.02308911771125561,0.1690070629119873,2019-08-07 14:06:14:729,54.79537964152245,54.30111675942921,0,-34.63589859008789,22.041025161743164,-34.336021423339844
-0.13719281554222107,0.26962965726852417,9.872856140136719,0.00020511348449834825,-0.010721840775577777,-0.02308911771125561,0.17901206016540527,2019-08-07 14:06:14:739,57.28957278362788,56.78369179092896,0,-34.63589859008789,22.041025161743164,-34.336021423339844
-0.13958756625652313,0.28399816155433655,9.915961265563965,-0.0005940299795425521,-0.013652033699207897,-0.021490831986017565,0.18900656700134277,2019-08-07 14:06:14:749,59.73531266013288,59.21554068434832,0,-34.63589859008789,22.041025161743164,-34.336021423339844
-0.2784830331802368,0.22412940859794617,9.78664493560791,-0.0008604111071317767,-0.00859079175486398,-0.025486549420004584,0.19901061058044434,2019-08-07 14:06:14:759,62.11283336941138,61.605474520854514,0,-34.63589859008789,22.041025161743164,-34.336021423339844
-0.050981827080249786,0.29118239879608154,9.827356338500977,-0.002192316810096481,-0.0048614559686148365,-0.02069168808310124,0.20900845527648926,2019-08-07 14:06:14:769,64.46736114907931,63.94065245294943,0,-34.63589859008789,22.041025161743164,-34.336021423339844
0.01607116498053074,0.31034040451049805,9.781855583190918,0.0012706381086377639,-0.0048614559686148365,-0.021757212593458142,0.21901273727416992,2019-08-07 14:06:14:779,59.58262748384667,66.22478236233508,0,-34.63589859008789,22.041025161743164,-35.235652923583984
0.2315986305475235,0.4252883791923523,9.700433731079102,0.01405693301314352,-0.012586509188851,-0.016695970649114225,0.22900867462158203,2019-08-07 14:06:14:789,54.82539300046743,68.44218966169723,0,-34.63589859008789,22.041025161743164,-35.235652923583984
-0.2641145586967468,0.47318339347839355,9.384326934814453,0.01405693301314352,-0.008324410627274756,-0.02921588416595643,0.23900413513183594,2019-08-07 14:06:14:799,57.30131477501689,70.60772520226551,0,-34.63589859008789,22.041025161743164,-35.235652923583984
-0.10845582187175751,0.10678667575120926,9.889619827270508,-0.029895955639821788,-0.008324410627274756,-0.012700254255424506,0.24901223182678223,2019-08-07 14:06:14:809,59.74740007837283,72.79999787924336,0,-34.63589859008789,22.041025161743164,-35.235652923583984
0.4543103575706482,0.4181041419506073,9.798619270324707,0.007397404303264255,-0.010988222423315652,-0.02388826161417194,0.25900793075561523,2019-08-07 14:06:14:819,55.0117113424055,74.89097984415646,0,-34.63589859008789,22.041025161743164,-35.235652923583984
-0.17790356278419495,0.47318339347839355,9.571117401123047,0.0268432281777236,-0.00033297644199582136,-0.020958068690541815,0.26901841163635254,2019-08-07 14:06:14:829,57.49036697373328,76.92146555062388,0,-34.63589859008789,22.041025161743164,-35.235652923583984
-0.0030868323519825935,0.06368118524551392,9.899198532104492,-0.01844156663333648,-0.014451176561826921,-0.007905393438669812,0.2790060043334961,2019-08-07 14:06:14:839,59.94830655572868,78.98600677476432,0,-34.63589859008789,22.041025161743164,-35.235652923583984
0.18130889534950256,0.3055509030818939,9.86567211151123,-0.0032578413204533796,-0.007258886116917857,-0.008704536821437486,0.28900694847106934,2019-08-07 14:06:14:849,55.17447364856345,80.97263713857885,0,-34.63589859008789,22.041025161743164,-35.235652923583984
0.011281665414571762,0.4324726462364197,9.69564437866211,0.018585412702308988,0.0007325481658889489,-0.015630446138757324,0.29900646209716797,2019-08-07 14:06:14:859,50.471906235550165,82.89166969807368,0,-34.63589859008789,22.041025161743164,-35.235652923583984
0.07115040719509125,0.2145504206418991,9.863277435302734,-0.0037906035756318283,-0.012586509188851,-0.0023113892391474454,0.30901360511779785,2019-08-07 14:06:14:869,45.87780657787116,84.81104370529891,0,-34.63589859008789,22.041025161743164,-35.235652923583984
0.1453876495361328,0.3582353889942169,9.824960708618164,0.005799117537728906,-0.007791648372096307,0.0011515656795867992,0.31900739669799805,2019-08-07 14:06:14:879,41.38157850428935,86.66980505460711,0,-34.63589859008789,22.041025161743164,-35.235652923583984
0.1717298924922943,0.4779728949069977,9.669301986694336,0.013257789110227194,-0.006992504989328633,-0.002844151494325895,0.3290083408355713,2019-08-07 14:06:14:889,36.978223274475276,88.47236519568251,0,-34.63589859008789,22.041025161743164,-35.235652923583984
0.17651939392089844,0.27202439308166504,9.710013389587402,-0.0011267922997395827,-0.007258886116917857,0.003016233572711371,0.33901143074035645,2019-08-07 14:06:14:899,32.66356535336544,90.27145654137418,0,-34.63589859008789,22.041025161743164,-35.235652923583984
0.20286163687705994,0.29597190022468567,9.642960548400879,0.008995691068799602,-0.0037959311981836125,0.013405098328914105,0.34900355339050293,2019-08-07 14:06:14:909,28.436527166397035,92.02581971149077,0,-35.38559341430664,22.490842819213867,-34.485958099365234
0.08791365474462509,0.2863928973674774,9.721986770629883,0.001803400363816213,-0.012586509188851,0.022462057707245044,0.35901594161987305,2019-08-07 14:06:14:919,24.28523465049232,93.7505425262352,0,-35.38559341430664,22.490842819213867,-34.485958099365234
0.16694039106369019,0.25765591859817505,9.827356338500977,0.0034016871293515603,-0.006459742734150184,0.034449207928611496,0.3690154552459717,2019-08-07 14:06:14:929,20.22262107403411,95.44358472510652,0,-35.38559341430664,22.490842819213867,-34.485958099365234
0.13101914525032043,0.34865638613700867,9.810592651367188,0.009262072716537477,-0.007791648372096307,0.04723550205289428,0.3790097236633301,2019-08-07 14:06:14:939,16.237843783805783,97.0888080727548,0,-35.38559341430664,22.490842819213867,-34.485958099365234
0.049597661942243576,0.30315616726875305,9.81538200378418,0.003668068256940785,-0.0008657387296835611,0.054161414491106015,0.3890087604522705,2019-08-07 14:06:14:949,12.319363297276722,98.70959119400148,0,-35.38559341430664,22.490842819213867,-34.485958099365234
0.20046688616275787,0.34147214889526367,9.73396110534668,0.0100612155791565,-0.006459742734150184,0.06774685251830512,0.39900684356689453,2019-08-07 14:06:14:959,8.500198792808197,100.28956828911873,0,-35.38559341430664,22.490842819213867,-34.485958099365234
0.02325541339814663,0.3271036446094513,9.834540367126465,0.01299140850278662,-0.0021976444326482656,0.08293057835133688,0.4090139865875244,2019-08-07 14:06:14:969,4.734139376510078,101.83837715145722,0,-35.38559341430664,22.490842819213867,-34.485958099365234
-0.06535032391548157,0.34865638613700867,9.829751014709473,0.00393444938453001,-0.0005993576020943366,0.08879096419859711,0.4190075397491455,2019-08-07 14:06:14:979,8.23217472651336,103.3587738199933,0,-35.38559341430664,22.490842819213867,-34.485958099365234
-0.06774507462978363,0.4181041419506073,9.913566589355469,0.01299140850278662,-6.659528596096748e-05,0.10557297367627232,0.42900919914245605,2019-08-07 14:06:14:989,11.659738056134987,104.83600217015011,0,-35.38559341430664,22.490842819213867,-34.485958099365234
-0.18987730145454407,0.49234136939048767,9.932724952697754,0.015655219778678866,0.00019978586194656375,0.10876954928793761,0.4390099048614502,2019-08-07 14:06:14:999,15.004528068643324,106.27373728246697,0,-35.38559341430664,22.490842819213867,-34.485958099365234
-0.5227475166320801,0.4827623665332794,10.131488800048828,0.006065498665318131,0.00019978586194656375,0.10317554612871255,0.4489917755126953,2019-08-07 14:06:15:009,18.24525288961291,107.6903016805971,0,-35.38559341430664,22.490842819213867,-34.485958099365234
-0.21861431002616882,0.5282626152038574,10.064435958862305,0.007663785430853478,-0.006992504989328633,0.10690487879406978,0.45899486541748047,2019-08-07 14:06:15:019,21.459388273358822,109.07209938140981,0,-35.38559341430664,22.490842819213867,-34.485958099365234
-0.24256180226802826,0.5091046094894409,9.896803855895996,0.012192264599870297,0.012186937237392836,0.08213143028723136,0.4690110683441162,2019-08-07 14:06:15:029,24.595266727980096,110.42490486928814,0,-34.78583526611328,22.190963745117188,-34.485958099365234
-0.1419823169708252,0.45402538776397705,9.875250816345215,0.014323313620584095,0.012719699492571287,0.05868989105937958,0.47901320457458496,2019-08-07 14:06:15:039,27.679743403208988,111.75571489284286,0,-34.78583526611328,22.190963745117188,-34.485958099365234
-0.1419823169708252,0.6192631125450134,9.755513191223145,0.019650937212665885,0.0017980727412644285,0.031519015004981374,0.48902058601379395,2019-08-07 14:06:15:049,30.708461628525438,113.03691520233143,0,-34.78583526611328,22.190963745117188,-34.485958099365234
-0.14437706768512726,0.5402363538742065,9.760302543640137,0.015921601426416743,0.0017980727412644285,0.0048809017259102685,0.49901437759399414,2019-08-07 14:06:15:059,33.67633394636861,114.30388029355603,0,-34.78583526611328,22.190963745117188,-34.485958099365234
0.020860664546489716,0.3342879116535187,9.796224594116211,0.008729310461359028,0.008457601451143694,-0.02575293002744516,0.5090162754058838,2019-08-07 14:06:15:069,29.400497611748218,115.5738120248588,0,-34.78583526611328,22.190963745117188,-34.485958099365234
0.0352291613817215,0.3773933947086334,9.645355224609375,0.006065498665318131,0.00765845806837602,-0.06890667581779145,0.519014835357666,2019-08-07 14:06:15:079,25.212373443829478,116.81411717525438,0,-34.78583526611328,22.190963745117188,-34.485958099365234
0.22201964259147644,0.5067098736763,9.604643821716309,0.020716461723022786,0.005793789655102798,-0.09447926822754621,0.5290467739105225,2019-08-07 14:06:15:089,21.131346492357125,118.00576661693198,0,-34.78583526611328,22.190963745117188,-34.485958099365234
0.16215088963508606,0.11636567860841751,9.767487525939941,0.002602543746583887,0.0031299783792105513,-0.1365674832657518,0.5390090942382812,2019-08-07 14:06:15:099,17.125990400722113,119.23054416249684,0,-34.78583526611328,22.190963745117188,-34.485958099365234
0.25554612278938293,0.10199718177318573,9.8034086227417,-0.005388890341167176,0.004728265144745899,-0.16134094009496863,0.54901123046875,2019-08-07 14:06:15:109,13.210679008276752,120.4370378102161,0,-34.78583526611328,22.190963745117188,-34.485958099365234
0.24596713483333588,0.47318339347839355,9.71719741821289,-0.004056984703221053,-0.005127837096204061,-0.17652465344443277,0.5590205192565918,2019-08-07 14:06:15:119,9.378347239772804,121.57482031841025,0,-34.78583526611328,22.190963745117188,-34.485958099365234
0.3944416046142578,0.28399816155433655,9.997383117675781,-0.007519939882029623,-0.0027304066878267143,-0.19250753150275923,0.5690150260925293,2019-08-07 14:06:15:129,5.637500644478303,122.71500046997873,0,-34.78583526611328,22.190963745117188,-34.485958099365234
-0.43414178490638733,0.21694517135620117,9.683670997619629,-0.059464263402968974,-0.006459742734150184,-0.19783515197394913,0.579014778137207,2019-08-07 14:06:15:139,9.077037960964427,123.86842085872921,0,-34.78583526611328,22.190963745117188,-34.485958099365234
0.40402060747146606,-0.01774030551314354,9.86567211151123,-0.019773471751133954,-0.023774517587895734,-0.19437219367424868,0.5890178680419922,2019-08-07 14:06:15:149,5.3557521998308815,117.80421921591451,0,-34.78583526611328,22.190963745117188,-34.485958099365234
0.13101914525032043,0.6192631125450134,10.109936714172363,0.008196547686031928,-0.013652033699207897,-0.19037646999847785,0.5990078449249268,2019-08-07 14:06:15:159,1.6711446669788272,118.97343400806076,0,-34.78583526611328,21.291330337524414,-34.18608093261719
0.3633098602294922,-0.022529805079102516,10.045278549194336,-0.01657689822006326,-0.029368520747120798,-0.1874462770748477,0.6090092658996582,2019-08-07 14:06:15:169,-1.9043589670862333,113.00584464051394,0,-34.78583526611328,21.291330337524414,-34.18608093261719
0.42557334899902344,0.03733893856406212,9.858488082885742,0.0012706381086377639,-0.013652033699207897,-0.15974264396675758,0.6190111637115479,2019-08-07 14:06:15:179,-5.409168295137016,114.34067402607398,0,-34.78583526611328,21.291330337524414,-34.18608093261719
0.4782578647136688,0.4636043906211853,9.71719741821289,0.008995691068799602,-0.016315844975100142,-0.1418951037369417,0.6290149688720703,2019-08-07 14:06:15:189,-8.83546629141654,115.59417771239694,0,-34.78583526611328,21.291330337524414,-34.18608093261719
0.42557334899902344,0.1043919250369072,9.839329719543457,-0.019507091143693377,-0.016848607230278593,-0.12324843208777707,0.6390116214752197,2019-08-07 14:06:15:199,-12.199767083896138,116.8810863802426,0,-34.78583526611328,21.291330337524414,-34.18608093261719
0.47586309909820557,-0.05366155132651329,9.84411907196045,0.001803400363816213,-0.027770235021882753,-0.11232680013498371,0.6490130424499512,2019-08-07 14:06:15:209,-15.484826292138298,110.94869837238052,0,-34.78583526611328,21.291330337524414,-34.18608093261719
0.32738861441612244,0.4851571321487427,9.61422348022461,0.008196547686031928,-0.01951241954646814,-0.0808938260391579,0.6590347290039062,2019-08-07 14:06:15:219,-18.72514355854193,112.26733539079524,0,-34.78583526611328,21.291330337524414,-34.18608093261719
0.44952085614204407,0.15228691697120667,9.599854469299316,-0.007253558754440398,-0.01951241954646814,-0.05931695314398476,0.6690020561218262,2019-08-07 14:06:15:229,-21.886101040883673,113.6078715764697,0,-34.78583526611328,21.291330337524414,-34.18608093261719
0.2244143933057785,0.00620719138532877,9.743539810180664,0.003668068256940785,-0.012586509188851,-0.04093665586047691,0.679013729095459,2019-08-07 14:06:15:239,-25.014915260930607,114.93292211183787,0,-34.78583526611328,21.291330337524414,-34.18608093261719
0.07833465933799744,0.28399816155433655,9.860882759094238,0.013790551365405645,-0.016315844975100142,-0.012433872607686629,0.6890115737915039,2019-08-07 14:06:15:249,-28.09635466600125,116.19352816351635,0,-34.78583526611328,21.291330337524414,-34.18608093261719
-0.18508781492710114,0.3199194073677063,9.899198532104492,0.006065498665318131,-0.016315844975100142,0.012605954425997783,0.6990082263946533,2019-08-07 14:06:15:259,-23.946692291605565,117.4292324905311,0,-34.78583526611328,21.291330337524414,-34.18608093261719
-0.01745533011853695,0.09960243105888367,9.848908424377441,-0.003524222448042604,-0.016315844975100142,0.033650066106289775,0.7090103626251221,2019-08-07 14:06:15:269,-19.860626080791796,118.67103881135478,0,-34.78583526611328,21.291330337524414,-34.18608093261719
0.5117843747138977,0.16186591982841492,9.360379219055176,0.005266355282550457,0.017248179181736756,0.04483807450533451,0.7190108299255371,2019-08-07 14:06:15:279,-23.010507536374114,119.87484688390366,0,-34.93577575683594,22.64078140258789,-33.43638610839844
0.24117763340473175,0.26962965726852417,9.899198532104492,0.03110532621915119,0.01564989241620141,0.05389503180307084,0.7290136814117432,2019-08-07 14:06:15:289,-26.13117446454558,121.02867517932594,0,-34.93577575683594,22.64078140258789,-33.43638610839844
-0.18269306421279907,0.3127351403236389,9.8848295211792,0.01299140850278662,-0.021643468567181936,0.07813571493383893,0.7390148639678955,2019-08-07 14:06:15:299,-22.017573351589593,122.16456389360522,0,-34.93577575683594,22.64078140258789,-33.43638610839844
-0.9202759861946106,0.5474206209182739,9.710013389587402,-0.0011267922997395827,-0.007258886116917857,0.09118839174615688,0.7490146160125732,2019-08-07 14:06:15:309,-18.081427957924298,123.25737041779891,0,-34.93577575683594,22.64078140258789,-33.43638610839844
-1.0424082279205322,0.4851571321487427,9.999777793884277,0.0279087526880805,0.01405160565066606,0.09012286931639459,0.759026050567627,2019-08-07 14:06:15:319,-14.24672232877614,124.32098177717799,0,-34.93577575683594,22.64078140258789,-33.43638610839844
-0.9490129351615906,0.7797113656997681,10.409279823303223,0.007930166558442704,-0.011254603030756228,0.11143335952353256,0.7690122127532959,2019-08-07 14:06:15:329,-10.459662162169526,125.34444024641387,0,-34.93577575683594,22.64078140258789,-33.43638610839844
-0.30243054032325745,0.2528664171695709,9.956672668457031,-0.010982895060838192,-0.01791413174063549,0.11462993513519784,0.7790122032165527,2019-08-07 14:06:15:339,-6.675206265034635,126.41462212063853,0,-34.93577575683594,22.64078140258789,-33.43638610839844
-0.6592482328414917,0.8802908062934875,9.741145133972168,0.026044084274807276,0.008457601451143694,0.10770402685817532,0.7890150547027588,2019-08-07 14:06:15:349,-3.023886098348179,127.36842785399769,0,-34.93577575683594,22.64078140258789,-33.43638610839844
-0.7933542132377625,0.6072893738746643,9.90638256072998,-0.002192316810096481,0.0004661670057904337,0.10290916344067737,0.7990124225616455,2019-08-07 14:06:15:359,0.5447545524451196,128.3521298772046,0,-34.93577575683594,22.64078140258789,-33.43638610839844
-0.5059842467308044,0.2408926635980606,10.01414680480957,-0.0056552714687564,-0.00246402556023749,0.10743764417014012,0.809013843536377,2019-08-07 14:06:15:369,4.077392787470636,129.36070320336046,0,-34.93577575683594,22.64078140258789,-33.43638610839844
-0.7095379829406738,0.7605533599853516,9.925540924072266,0.018585412702308988,-0.00033297644199582136,0.10717126148210496,0.8190116882324219,2019-08-07 14:06:15:379,7.5142539598611275,130.27542015842985,0,-34.93577575683594,22.64078140258789,-33.43638610839844
-0.7310907244682312,0.4228936433792114,9.834540367126465,-0.0011267922997395827,-0.006992504989328633,0.09678239490538194,0.8290157318115234,2019-08-07 14:06:15:389,10.882866838190571,131.22129969100635,0,-34.93577575683594,22.64078140258789,-33.43638610839844
-0.7334854602813721,0.3773933947086334,9.908777236938477,-0.008585464392386522,-0.00033297644199582136,0.0983806827112146,0.8390147686004639,2019-08-07 14:06:15:399,14.180725835610312,132.1580708123414,0,-34.93577575683594,22.64078140258789,-33.43638610839844
-0.8053279519081116,0.597710371017456,9.824960708618164,0.004733593027372009,0.0031299783792105513,0.091987531487884,0.8490087985992432,2019-08-07 14:06:15:409,17.401636509977603,133.04262607751642,0,-33.88620376586914,22.490842819213867,-33.88620376586914
-0.7382749915122986,0.3534458875656128,9.827356338500977,-0.004323365830810277,0.0028635972516213265,0.07760295788014698,0.8590073585510254,2019-08-07 14:06:15:419,20.56607119942287,133.9430050875529,0,-33.88620376586914,22.490842819213867,-33.88620376586914
-0.6616429686546326,0.3151299059391022,9.853697776794434,-0.010450131765362443,-0.004062312325772837,0.07680380981604146,0.8690156936645508,2019-08-07 14:06:15:429,23.680203573627534,134.83338271112788,0,-33.88620376586914,22.490842819213867,-33.88620376586914
-0.6209322810173035,0.4252883791923523,9.693249702453613,0.007397404303264255,-0.004328693453362062,0.061353705456163726,0.8790128231048584,2019-08-07 14:06:15:439,26.73572421043431,135.68231814266323,0,-33.88620376586914,22.490842819213867,-33.88620376586914
-0.7310907244682312,0.3989461362361908,9.674092292785645,0.001803400363816213,0.0007325481658889489,0.04830102864384578,0.8890118598937988,2019-08-07 14:06:15:449,29.71416357887371,136.52043006324962,0,-33.88620376586914,22.490842819213867,-33.88620376586914
-0.6855905055999756,0.3127351403236389,9.817776679992676,-0.010183751157921868,-0.00246402556023749,0.0365802569493253,0.8990123271942139,2019-08-07 14:06:15:459,32.64137255731611,137.3592502718881,0,-33.88620376586914,22.490842819213867,-33.88620376586914
-0.577826738357544,0.4109198749065399,9.78664493560791,0.0071310231756750294,-0.0037959311981836125,0.020863769901412393,0.9090149402618408,2019-08-07 14:06:15:469,35.52309795200577,138.15997390915265,0,-33.88620376586914,22.490842819213867,-33.88620376586914
-0.601774275302887,0.3007614016532898,9.822566032409668,0.002336162618994662,-0.0005993576020943366,0.015269766742187328,0.9190161228179932,2019-08-07 14:06:15:479,38.34285629871178,138.96038619737055,0,-33.88620376586914,22.490842819213867,-33.88620376586914
-0.6496692299842834,0.2480769157409668,9.863277435302734,-0.0008604111071317767,-0.0016648821774698163,0.007011950746624065,0.9290115833282471,2019-08-07 14:06:15:489,41.1015638770927,139.75284587247643,0,-33.88620376586914,22.490842819213867,-33.88620376586914
-0.4413260221481323,0.34386688470840454,9.94709300994873,-0.005122509213577951,-0.006726123861739408,-0.0007131023435749355,0.9390089511871338,2019-08-07 14:06:15:499,43.83250041264295,140.52106642159453,0,-33.88620376586914,22.490842819213867,-33.88620376586914
-0.46048402786254883,0.3007614016532898,9.903987884521484,-0.0016595545549180318,-0.002996787815415939,-0.005241581642628916,0.9490087032318115,2019-08-07 14:06:15:509,46.50429227075752,141.2767887700714,0,-33.88620376586914,22.490842819213867,-33.88620376586914
-0.26890406012535095,0.3055509030818939,9.863277435302734,-0.0011267922997395827,-0.003263168943005164,-0.006307106152985815,0.9590084552764893,2019-08-07 14:06:15:519,49.14480510752399,142.01639811613424,0,-33.88620376586914,22.490842819213867,-33.88620376586914
-0.15874555706977844,0.34386688470840454,9.836935043334961,-0.004323365830810277,-0.007258886116917857,-0.007905393438669812,0.9690160751342773,2019-08-07 14:06:15:529,51.74749712295026,142.73845843314018,0,-34.485958099365234,22.490842819213867,-34.78583526611328
-0.30243054032325745,0.2792086601257324,9.772276878356934,0.0012706381086377639,0.004728265144745899,-0.007639012311080588,0.9790096282958984,2019-08-07 14:06:15:539,54.27444171836318,143.45024463423874,0,-34.485958099365234,22.490842819213867,-34.78583526611328
-0.16592980921268463,0.36781439185142517,9.750723838806152,0.0071310231756750294,0.0033963595067997765,-0.0033769137495043436,0.9890122413635254,2019-08-07 14:06:15:549,56.76754696614489,144.13402917613524,0,-34.485958099365234,22.490842819213867,-34.78583526611328
-0.11803481727838516,0.47318339347839355,9.748329162597656,0.011659502344691848,-0.002996787815415939,0.004348139470731819,0.999047040939331,2019-08-07 14:06:15:559,59.220010266122294,144.78919995488874,0,-34.485958099365234,22.490842819213867,-34.78583526611328
-0.15874555706977844,0.17383967339992523,9.920751571655273,-0.009917369510183993,-0.002996787815415939,0.0038153772155533703,1.0090107917785645,2019-08-07 14:06:15:569,61.618952005703356,145.47888672681785,0,-34.485958099365234,22.490842819213867,-34.78583526611328
-0.26890406012535095,0.2480769157409668,9.880040168762207,0.007930166558442704,-0.0013985010498805918,0.0011515656795867992,1.0190134048461914,2019-08-07 14:06:15:579,63.95617785536914,146.1360884182837,0,-34.485958099365234,22.490842819213867,-34.78583526611328
-0.5179580450057983,0.4707886278629303,9.662117958068848,0.025511323059926126,0.0031299783792105513,0.007278331874213289,1.029012680053711,2019-08-07 14:06:15:589,66.21392648691959,146.74325227282915,0,-34.485958099365234,22.490842819213867,-34.78583526611328
-0.5466949939727783,0.35584065318107605,10.033304214477539,-0.027498526011667416,-0.012586509188851,0.03498196914349264,1.0390148162841797,2019-08-07 14:06:15:599,68.43433977267584,147.38320695413694,0,-34.485958099365234,22.490842819213867,-34.78583526611328
-0.24495655298233032,-0.005766557063907385,10.248831748962402,-0.031227860757619262,-0.005926980478971734,0.03125263439754081,1.049011468887329,2019-08-07 14:06:15:609,70.64159662624267,140.85371610205516,0,-34.485958099365234,22.490842819213867,-34.78583526611328
-0.19945630431175232,0.38218289613723755,9.827356338500977,0.021249222937903933,-0.001132119922291367,0.025658631238315736,1.0590112209320068,2019-08-07 14:06:15:619,72.80614601896825,141.58016880376914,0,-34.485958099365234,22.490842819213867,-34.78583526611328
-0.1156400665640831,0.3773933947086334,9.698039054870605,0.0020697814914054373,-0.006193361606560959,0.026724155748672634,1.0690133571624756,2019-08-07 14:06:15:629,74.93983807896358,142.30283286838218,0,-34.485958099365234,22.490842819213867,-34.78583526611328
0.18370364606380463,0.04691793769598007,9.94709300994873,-0.021105378949526025,-0.006459742734150184,0.03285092220337345,1.0790126323699951,2019-08-07 14:06:15:639,69.86582863922553,143.06322103789896,0,-34.485958099365234,22.490842819213867,-34.78583526611328
-0.027034329250454903,0.42768314480781555,9.690855026245117,0.02444579854956923,0.0012653104860859794,0.016335291252544227,1.089019775390625,2019-08-07 14:06:15:649,72.06460436585049,143.7376810291353,0,-34.485958099365234,22.490842819213867,-34.78583526611328
-0.18987730145454407,0.40852513909339905,9.664512634277344,0.0055327364101396825,-0.010721840775577777,0.023527582217601938,1.099013090133667,2019-08-07 14:06:15:659,74.2068178087102,144.4114130947402,0,-34.93577575683594,22.64078140258789,-34.63589859008789
0.21004588901996613,0.20497141778469086,9.839329719543457,-0.02563385759839419,-0.008857173402601856,0.028056060866470108,1.1090140342712402,2019-08-07 14:06:15:669,69.15211402387821,145.11371148117692,0,-34.93577575683594,22.64078140258789,-34.63589859008789
0.1405981481075287,0.4324726462364197,9.702829360961914,0.017253506544214214,-0.004328693453362062,0.002483471317532922,1.1190135478973389,2019-08-07 14:06:15:679,64.18810582573218,145.75070815549373,0,-34.93577575683594,22.64078140258789,-34.63589859008789
-0.16592980921268463,0.47318339347839355,9.640565872192383,0.01299140850278662,-0.0019312633050590406,-0.006307106152985815,1.1290123462677002,2019-08-07 14:06:15:689,66.48570685790014,146.37220087174614,0,-34.93577575683594,22.64078140258789,-34.63589859008789
-0.05337657779455185,0.2528664171695709,9.987804412841797,-0.009384607255005544,-0.008324410627274756,-0.0004467211834764202,1.1390082836151123,2019-08-07 14:06:15:699,68.75454105152797,147.0210186154686,0,-34.93577575683594,22.64078140258789,-34.63589859008789
-0.005481582134962082,0.3797881305217743,9.889619827270508,-0.0005940299795425521,-0.010189078520399329,-0.011101966449591856,1.1490132808685303,2019-08-07 14:06:15:709,70.98453908940985,147.6369473149564,0,-34.93577575683594,22.64078140258789,-34.63589859008789
-0.08450832217931747,0.42768314480781555,9.743539810180664,0.0020697814914054373,-0.010721840775577777,-0.025486549420004584,1.1590137481689453,2019-08-07 14:06:15:719,73.16093030530305,148.2327795574842,0,-34.93577575683594,22.64078140258789,-34.63589859008789
-0.07971882075071335,0.3007614016532898,9.789039611816406,0.0007378757884407334,-0.003263168943005164,-0.03720731903393047,1.1690123081207275,2019-08-07 14:06:15:729,75.29021193496382,148.83251332612218,0,-34.93577575683594,22.64078140258789,-34.63589859008789
0.01367641519755125,0.3462616503238678,9.808197975158691,-0.0013931734273288073,-0.00965631626522088,-0.04200217829023921,1.179013967514038,2019-08-07 14:06:15:739,70.19142845219925,149.41620765875936,0,-34.93577575683594,22.64078140258789,-34.63589859008789
-0.019850080832839012,0.3797881305217743,9.92314624786377,-0.0008604111071317767,-0.0075252672445070825,-0.04706342023458313,1.1890130043029785,2019-08-07 14:06:15:749,72.38953263787845,149.98453039848263,0,-34.93577575683594,22.64078140258789,-34.63589859008789
0.061571408063173294,0.3007614016532898,9.8848295211792,-0.005122509213577951,-0.010988222423315652,-0.05132551827601072,1.1990060806274414,2019-08-07 14:06:15:759,67.35504526260601,150.55285856003744,0,-34.93577575683594,22.64078140258789,-34.63589859008789
0.0807294100522995,0.4396568834781647,9.793828964233398,-0.0011267922997395827,-0.006459742734150184,-0.05851780924106843,1.2090106010437012,2019-08-07 14:06:15:769,62.42101857072617,151.09102733748236,0,-34.93577575683594,22.64078140258789,-34.63589859008789
-0.010271081700921059,0.33668264746665955,9.829751014709473,-0.003524222448042604,-0.010721840775577777,-0.06730838801195879,1.2190093994140625,2019-08-07 14:06:15:779,64.77742041106575,151.63195153359428,0,-33.88620376586914,22.790719985961914,-33.28644561767578
0.1262296438217163,0.3582353889942169,9.834540367126465,-0.014978611454527911,-0.01205374693367255,-0.06384543387344753,1.2290115356445312,2019-08-07 14:06:15:789,59.90334901679182,152.16600181323062,0,-33.88620376586914,22.790719985961914,-33.28644561767578
0.1860983967781067,0.3582353889942169,9.81538200378418,0.00020511348449834825,-0.010988222423315652,-0.06890667581779145,1.2390127182006836,2019-08-07 14:06:15:799,55.133176449320175,152.68076227041414,0,-33.88620376586914,22.790719985961914,-33.28644561767578
0.10467690229415894,0.4061304032802582,9.74593448638916,0.0015370192362269886,-0.013385652051470022,-0.06704200532392361,1.2490088939666748,2019-08-07 14:06:15:809,50.45033338607232,153.17855959499389,0,-33.88620376586914,22.790719985961914,-33.28644561767578
0.21483539044857025,0.3247089087963104,9.743539810180664,-0.011782037923457216,-0.013652033699207897,-0.05745228681130613,1.2590141296386719,2019-08-07 14:06:15:819,45.874258539263664,153.68343331548706,0,-33.88620376586914,22.790719985961914,-33.28644561767578
0.27949362993240356,0.3127351403236389,9.78664493560791,-0.0011267922997395827,-0.0048614559686148365,-0.058784191929103606,1.269012451171875,2019-08-07 14:06:15:829,41.392219551540755,154.1737916193537,0,-33.88620376586914,22.790719985961914,-33.28644561767578
0.3417571187019348,0.3271036446094513,9.583091735839844,0.0015370192362269886,-0.007258886116917857,-0.05931695314398476,1.2790119647979736,2019-08-07 14:06:15:839,37.009299733251545,154.65035396248345,0,-33.88620376586914,22.790719985961914,-33.28644561767578
0.2842831313610077,0.3127351403236389,9.743539810180664,-0.0037906035756318283,-0.006459742734150184,-0.056919525596424984,1.2890105247497559,2019-08-07 14:06:15:849,32.70616476423464,155.12270754824934,0,-33.88620376586914,22.790719985961914,-33.28644561767578
0.24596713483333588,0.27202439308166504,9.729170799255371,-0.0029914601928641544,-0.005926980478971734,-0.04653065901970198,1.299015998840332,2019-08-07 14:06:15:859,28.48433547180843,155.58990294218947,0,-33.88620376586914,22.790719985961914,-33.28644561767578
0.2124406397342682,0.2552611529827118,9.834540367126465,-0.0013931734273288073,-0.012586509188851,-0.03720731903393047,1.3090157508850098,2019-08-07 14:06:15:869,24.346465519988765,156.04915090703344,0,-33.88620376586914,22.790719985961914,-33.28644561767578
0.24117763340473175,0.34147214889526367,9.781855583190918,0.003668068256940785,-0.01658222662283802,-0.03294522099250287,1.3190162181854248,2019-08-07 14:06:15:879,20.297095069302408,156.48612195752284,0,-33.88620376586914,22.790719985961914,-33.28644561767578
0.042413413524627686,0.2672349214553833,9.827356338500977,-0.007519939882029623,-0.0016648821774698163,-0.024953786124528834,1.3290367126464844,2019-08-07 14:06:15:889,16.297035484029855,156.92947744693444,0,-33.88620376586914,22.790719985961914,-33.28644561767578
0.15496665239334106,0.09960243105888367,9.944698333740234,-0.0032578413204533796,-0.00805802949968553,-0.017761495159471122,1.3390202522277832,2019-08-07 14:06:15:899,12.393467074559481,157.38123747619008,0,-33.88620376586914,22.790719985961914,-33.28644561767578
0.09509790688753128,0.4516306221485138,9.712408065795898,0.004733593027372009,-0.003529550070594388,-0.006307106152985815,1.3490197658538818,2019-08-07 14:06:15:909,8.55879921408804,157.77770780104652,0,-35.08571243286133,23.090599060058594,-34.485958099365234
0.05199240893125534,0.38218289613723755,9.75790786743164,0.002602543746583887,-6.659528596096748e-05,-0.0009794834711641602,1.3590238094329834,2019-08-07 14:06:15:919,4.793766285833533,158.17583317864475,0,-35.08571243286133,23.090599060058594,-34.485958099365234
0.05917666107416153,0.2145504206418991,9.84411907196045,-0.00032764881944403687,-0.003263168943005164,0.005413663981088718,1.3690178394317627,2019-08-07 14:06:15:929,1.1066105730159492,158.5875293534653,0,-35.08571243286133,23.090599060058594,-34.485958099365234
0.0017026669811457396,0.4181041419506073,9.789039611816406,0.007930166558442704,0.0004661670057904337,0.009942143150105534,1.379023551940918,2019-08-07 14:06:15:939,-2.515584224069088,158.9624094504761,0,-35.08571243286133,23.090599060058594,-34.485958099365234
0.02325541339814663,0.4133146405220032,9.762697219848633,0.005799117537728906,-0.0005993576020943366,0.00967576254266496,1.3890130519866943,2019-08-07 14:06:15:949,-6.062206710219838,159.33142382662925,0,-35.08571243286133,23.090599060058594,-34.485958099365234
-0.01745533011853695,0.2983666658401489,9.784250259399414,0.0007378757884407334,-0.00033297644199582136,0.01313871668117623,1.3990147113800049,2019-08-07 14:06:15:959,-2.3428199170782187,159.70944756874422,0,-35.08571243286133,23.090599060058594,-34.485958099365234
-0.05816607549786568,0.3797881305217743,9.84411907196045,0.004733593027372009,0.004461884017156674,0.022462057707245044,1.40901780128479,2019-08-07 14:06:15:969,1.294759557647423,160.06841214661853,0,-35.08571243286133,23.090599060058594,-34.485958099365234
-0.029429078102111816,0.4109198749065399,9.827356338500977,0.0034016871293515603,-0.0021976444326482656,0.021130150508852967,1.419022560119629,2019-08-07 14:06:15:979,4.8666673705555095,160.41724567353344,0,-35.08571243286133,23.090599060058594,-34.485958099365234
-0.09408731758594513,0.32949841022491455,9.839329719543457,0.003668068256940785,-0.004595074841025611,0.022195675019209864,1.4290082454681396,2019-08-07 14:06:15:989,8.360953122427235,160.76848413072366,0,-35.08571243286133,23.090599060058594,-34.485958099365234
-0.00787633191794157,0.38936713337898254,9.801013946533203,0.006598260920496581,-0.00033297644199582136,0.02192929441176929,1.4390172958374023,2019-08-07 14:06:15:999,11.793000309716144,161.10390605533865,0,-35.08571243286133,23.090599060058594,-34.485958099365234
-0.03900807723402977,0.3989461362361908,9.789039611816406,0.0020697814914054373,0.0007325481658889489,0.020331008686531246,1.4490153789520264,2019-08-07 14:06:16:009,15.152162753925744,161.43399074009278,0,-35.08571243286133,23.090599060058594,-34.485958099365234
-0.07971882075071335,0.37499865889549255,9.789039611816406,0.0071310231756750294,-0.001132119922291367,0.025925011845756313,1.4590144157409668,2019-08-07 14:06:16:019,18.440423356114014,161.75743095605714,0,-35.08571243286133,23.090599060058594,-34.485958099365234
-0.06535032391548157,0.3534458875656128,9.8034086227417,0.004999974154961233,-0.0005993576020943366,0.030719873182659653,1.4690232276916504,2019-08-07 14:06:16:029,21.66431307009551,162.0781761558522,0,-34.63589859008789,22.940658569335938,-34.03614044189453
-0.0892978236079216,0.35584065318107605,9.760302543640137,0.006864642048085805,-0.00246402556023749,0.025392250630875163,1.479029655456543,2019-08-07 14:06:16:039,24.821927460019605,162.3909964263809,0,-34.63589859008789,22.940658569335938,-34.03614044189453
-0.07492932677268982,0.29597190022468567,9.808197975158691,0.0015370192362269886,0.0004661670057904337,0.032584541595932874,1.4890110492706299,2019-08-07 14:06:16:049,27.916473640771464,162.70774644356104,0,-34.63589859008789,22.940658569335938,-34.03614044189453
-0.09887681901454926,0.3151299059391022,9.834540367126465,0.003668068256940785,0.0033963595067997765,0.027523299651588957,1.4990119934082031,2019-08-07 14:06:16:059,30.944716248691275,163.0148254896324,0,-34.63589859008789,22.940658569335938,-34.03614044189453
-0.09887681901454926,0.3318931460380554,9.81538200378418,0.004999974154961233,-0.001132119922291367,0.029920729279743333,1.509016990661621,2019-08-07 14:06:16:069,33.914914751827475,163.31298735383834,0,-34.63589859008789,22.940658569335938,-34.03614044189453
-0.06774507462978363,0.25047165155410767,9.78664493560791,0.0012706381086377639,-0.004062312325772837,0.02858882416194586,1.5190181732177734,2019-08-07 14:06:16:079,36.83096558372637,163.61669280416424,0,-34.63589859008789,22.940658569335938,-34.03614044189453
-0.09648206830024719,0.35584065318107605,9.832145690917969,0.002336162618994662,-0.002996787815415939,0.03631387842247932,1.5290098190307617,2019-08-07 14:06:16:089,39.6847831404045,163.90159391640455,0,-34.63589859008789,22.940658569335938,-34.03614044189453
-0.03661332651972771,0.34147214889526367,9.748329162597656,0.00047149462834221814,-0.00033297644199582136,0.033650066106289775,1.5390169620513916,2019-08-07 14:06:16:099,42.48697070255902,164.1831734772981,0,-34.63589859008789,22.940658569335938,-34.03614044189453
-0.03661332651972771,0.29597190022468567,9.784250259399414,0.0020697814914054373,-0.0027304066878267143,0.032584541595932874,1.5490124225616455,2019-08-07 14:06:16:109,45.23447563852796,164.46369517207373,0,-34.63589859008789,22.940658569335938,-34.03614044189453
-0.08690307289361954,0.3247089087963104,9.846513748168945,-0.00032764881944403687,-0.002996787815415939,0.0365802569493253,1.5590224266052246,2019-08-07 14:06:16:119,47.9213571757121,164.7368302085394,0,-34.63589859008789,22.940658569335938,-34.03614044189453
-0.17311406135559082,0.3199194073677063,9.71719741821289,0.005266355282550457,-0.003529550070594388,0.03418282732117092,1.5690462589263916,2019-08-07 14:06:16:129,50.544504007863495,165.00141613517104,0,-34.63589859008789,22.940658569335938,-34.03614044189453
-0.134798064827919,0.31034040451049805,9.78664493560791,0.0015370192362269886,-0.005127837096204061,0.032584541595932874,1.579012155532837,2019-08-07 14:06:16:139,53.120700911259604,165.2642022206381,0,-34.63589859008789,22.940658569335938,-34.03614044189453
-0.20424580574035645,0.31752464175224304,9.832145690917969,0.0034016871293515603,-0.0005993576020943366,0.033650066106289775,1.5890164375305176,2019-08-07 14:06:16:149,55.634822586199725,165.52001335373916,0,-34.63589859008789,22.940658569335938,-34.03614044189453
-0.23058804869651794,0.34865638613700867,9.841724395751953,0.004467211899782784,-0.005926980478971734,0.030986253790100227,1.5990159511566162,2019-08-07 14:06:16:159,58.09861048677266,165.7665262370412,0,-33.88620376586914,22.790719985961914,-34.78583526611328
-0.2856673002243042,0.34147214889526367,9.77467155456543,0.003135306001762336,-0.005926980478971734,0.031519015004981374,1.6090259552001953,2019-08-07 14:06:16:169,60.50648944862506,166.00941789673294,0,-33.88620376586914,22.790719985961914,-34.78583526611328
-0.3838520348072052,0.3055509030818939,9.834540367126465,0.004200830512119234,-0.003529550070594388,0.022728438314685614,1.6190130710601807,2019-08-07 14:06:16:179,62.853635393468586,166.25128263204115,0,-33.88620376586914,22.790719985961914,-34.78583526611328
-0.28327253460884094,0.3606301546096802,9.85609245300293,0.0034016871293515603,-0.006193361606560959,0.022728438314685614,1.6290152072906494,2019-08-07 14:06:16:189,65.16711546145686,166.48243666972598,0,-33.88620376586914,22.790719985961914,-34.78583526611328
-0.37427303194999695,0.37499865889549255,9.817776679992676,0.002336162618994662,-0.00805802949968553,0.016335291252544227,1.6390163898468018,2019-08-07 14:06:16:199,67.42463483861216,166.70772803690528,0,-33.88620376586914,22.790719985961914,-34.78583526611328
-0.3838520348072052,0.3127351403236389,9.930330276489258,0.00393444938453001,-0.006459742734150184,0.011274049308200309,1.6490163803100586,2019-08-07 14:06:16:209,69.63549651293906,166.93528798101156,0,-33.88620376586914,22.790719985961914,-34.78583526611328
-0.39343103766441345,0.32231414318084717,9.824960708618164,0.004733593027372009,-0.006992504989328633,0.005413663981088718,1.6590163707733154,2019-08-07 14:06:16:219,71.80085028424504,167.15634529843067,0,-33.88620376586914,22.790719985961914,-34.78583526611328
-0.38624677062034607,0.36781439185142517,9.85609245300293,0.0020697814914054373,-0.007791648372096307,0.0016843279347652483,1.6690196990966797,2019-08-07 14:06:16:229,73.92432583878632,167.36931183318222,0,-33.88620376586914,22.790719985961914,-34.78583526611328
-0.38145729899406433,0.34865638613700867,9.839329719543457,0.0010042569160299579,-0.005127837096204061,-0.0007131023435749355,1.6790120601654053,2019-08-07 14:06:16:239,76.00431305983248,167.58077363246855,0,-33.88620376586914,22.790719985961914,-34.78583526611328
-0.34793078899383545,0.3342879116535187,9.78664493560791,0.005266355282550457,-0.007258886116917857,-0.009770061331794384,1.6890170574188232,2019-08-07 14:06:16:249,78.04758271939002,167.78707316230322,0,-33.88620376586914,22.790719985961914,-34.78583526611328
-0.29524630308151245,0.37499865889549255,9.798619270324707,0.0007378757884407334,-0.006726123861739408,-0.011368348097329731,1.6990113258361816,2019-08-07 14:06:16:259,80.05588799061245,167.9870841791549,0,-33.88620376586914,22.790719985961914,-34.78583526611328
-0.2808777987957001,0.3079456388950348,9.81538200378418,0.006065498665318131,-0.0021976444326482656,-0.01296663486286508,1.7090182304382324,2019-08-07 14:06:16:269,82.02322238645203,168.18799445972635,0,-33.88620376586914,22.790719985961914,-34.78583526611328
-0.2401670515537262,0.35584065318107605,9.86567211151123,0.0012706381086377639,-0.0075252672445070825,-0.016429590041673648,1.7190167903900146,2019-08-07 14:06:16:279,83.9590924303725,168.38220758806168,0,-34.18608093261719,22.190963745117188,-35.08571243286133
-0.180298313498497,0.38936713337898254,9.78664493560791,0.00020511348449834825,-0.00912355401004243,-0.02415464222161251,1.7290258407592773,2019-08-07 14:06:16:289,85.86392938878268,168.56888130182702,0,-34.18608093261719,22.190963745117188,-35.08571243286133
-0.18987730145454407,0.3462616503238678,9.781855583190918,0.0007378757884407334,-0.006726123861739408,-0.014298541020959853,1.7390105724334717,2019-08-07 14:06:16:299,87.72818097012116,168.7565433888637,0,-34.18608093261719,22.190963745117188,-35.08571243286133
-0.1874825656414032,0.35584065318107605,9.810592651367188,-0.0029914601928641544,-0.00566059935138251,-0.02282273710381504,1.7490150928497314,2019-08-07 14:06:16:309,89.55490117465106,168.9415476137537,0,-34.18608093261719,22.190963745117188,-35.08571243286133
-0.15156131982803345,0.3462616503238678,9.805803298950195,-6.126766340918298e-05,-0.012852889796291574,-0.019093400277268593,1.7590138912200928,2019-08-07 14:06:16:319,91.35330897291712,169.12230339630312,0,-34.18608093261719,22.190963745117188,-35.08571243286133
-0.10366632044315338,0.38936713337898254,9.841724395751953,0.001803400363816213,-0.009389935657780304,-0.018560639062387443,1.7690153121948242,2019-08-07 14:06:16:329,93.1194460959881,169.29353246793366,0,-34.18608093261719,22.190963745117188,-35.08571243286133
-0.134798064827919,0.3965514004230499,9.820171356201172,0.0028689248741731116,-0.00912355401004243,-0.0169623522968521,1.7790169715881348,2019-08-07 14:06:16:339,94.84645229176361,169.45980220665228,0,-34.18608093261719,22.190963745117188,-35.08571243286133
-0.12282431870698929,0.32231414318084717,9.793828964233398,0.003668068256940785,-0.002996787815415939,-0.019626163572744344,1.7890233993530273,2019-08-07 14:06:16:349,96.53683685628685,169.63084683707902,0,-34.18608093261719,22.190963745117188,-35.08571243286133
-0.11085056513547897,0.38218289613723755,9.75790786743164,-0.003524222448042604,-0.010189078520399329,-0.015630446138757324,1.79901123046875,2019-08-07 14:06:16:359,98.1987971837799,169.79534778770105,0,-34.18608093261719,22.190963745117188,-35.08571243286133
-0.07492932677268982,0.39415663480758667,9.8034086227417,-6.126766340918298e-05,-0.006459742734150184,-0.017228732904292672,1.8090147972106934,2019-08-07 14:06:16:369,99.82969138912539,169.95342727356734,0,-34.18608093261719,22.190963745117188,-35.08571243286133
-0.09648206830024719,0.32949841022491455,9.848908424377441,-0.002192316810096481,-0.010988222423315652,-0.015630446138757324,1.8190131187438965,2019-08-07 14:06:16:379,101.42804111616377,170.11726682185045,0,-34.18608093261719,22.190963745117188,-35.08571243286133
-0.09648206830024719,0.38936713337898254,9.863277435302734,-0.0024586979376857053,-0.00805802949968553,-0.013765778765781403,1.8290128707885742,2019-08-07 14:06:16:389,102.99279582488604,170.27108880931036,0,-34.18608093261719,22.190963745117188,-35.08571243286133
-0.04619232565164566,0.3917618989944458,9.8034086227417,-0.0005940299795425521,-0.005926980478971734,-0.012167492000246055,1.8390252590179443,2019-08-07 14:06:16:399,104.53087266448937,170.4202324914487,0,-34.18608093261719,22.190963745117188,-35.08571243286133
-0.07732407003641129,0.3654196560382843,9.73396110534668,0.0012706381086377639,-0.006193361606560959,-0.013499397118043528,1.8490118980407715,2019-08-07 14:06:16:409,106.03462546327289,170.5681170583141,0,-35.83540725708008,22.940658569335938,-34.03614044189453
-0.01745533011853695,0.3726038932800293,9.810592651367188,-6.126766340918298e-05,-0.007258886116917857,-0.019093400277268593,1.8590099811553955,2019-08-07 14:06:16:419,107.51596917871673,170.7132884282827,0,-35.83540725708008,22.940658569335938,-34.03614044189453
-0.027034329250454903,0.4181041419506073,9.817776679992676,-0.0024586979376857053,-0.009389935657780304,-0.0158968277864952,1.8690178394317627,2019-08-07 14:06:16:429,108.96777097766845,170.8516333059521,0,-35.83540725708008,22.940658569335938,-34.03614044189453
-0.04858707636594772,0.34386688470840454,9.750723838806152,0.0015370192362269886,-0.006992504989328633,-0.018294258454946873,1.879014253616333,2019-08-07 14:06:16:439,110.38663047385886,170.9933430481201,0,-35.83540725708008,22.940658569335938,-34.03614044189453
-0.019850080832839012,0.3510511517524719,9.822566032409668,-0.00272507906527493,-0.007258886116917857,-0.012433872607686629,1.889026403427124,2019-08-07 14:06:16:449,111.78066293347982,171.13407143313577,0,-35.83540725708008,22.940658569335938,-34.03614044189453
-0.0629555732011795,0.40134090185165405,9.822566032409668,0.002602543746583887,-0.005127837096204061,-0.010302823586972834,1.899012804031372,2019-08-07 14:06:16:459,113.14058063974373,171.2631356522831,0,-35.83540725708008,22.940658569335938,-34.03614044189453
-0.015060581266880035,0.3869723975658417,9.836935043334961,0.0012706381086377639,-0.011787365285934675,-0.007372630663342713,1.9090120792388916,2019-08-07 14:06:16:469,114.48263271418293,171.3921039131216,0,-35.83540725708008,22.940658569335938,-34.03614044189453
-0.015060581266880035,0.3462616503238678,9.793828964233398,-0.00272507906527493,-0.0075252672445070825,-0.004442438259861242,1.919020652770996,2019-08-07 14:06:16:479,115.79544696545923,171.52529620033349,0,-35.83540725708008,22.940658569335938,-34.03614044189453
-0.022244829684495926,0.3654196560382843,9.765092849731445,-6.126766340918298e-05,-0.008857173402601856,-0.011368348097329731,1.9290177822113037,2019-08-07 14:06:16:489,117.08189950423274,171.65196334641593,0,-35.83540725708008,22.940658569335938,-34.03614044189453
0.011281665414571762,0.34147214889526367,9.77467155456543,0.001803400363816213,-0.006459742734150184,-0.004708819387450467,1.939021348953247,2019-08-07 14:06:16:499,111.14521252925765,171.77789552713463,0,-35.83540725708008,22.940658569335938,-34.03614044189453
-0.027034329250454903,0.3318931460380554,9.810592651367188,0.001803400363816213,-0.005127837096204061,-0.00257777036673667,1.9490385055541992,2019-08-07 14:06:16:509,112.52203478468564,171.90257163389327,0,-35.83540725708008,22.940658569335938,-34.03614044189453
-0.012665831483900547,0.29118239879608154,9.8034086227417,0.0007378757884407334,-0.0075252672445070825,0.0014179468071760237,1.9590134620666504,2019-08-07 14:06:16:519,113.87432843240543,172.03008075964243,0,-35.83540725708008,22.940658569335938,-34.03614044189453
-0.043797578662633896,0.32949841022491455,9.805803298950195,-0.004056984703221053,-0.005926980478971734,0.00035242226430983473,1.9690158367156982,2019-08-07 14:06:16:529,115.1950524524449,172.15326665877848,0,-35.38559341430664,21.89108657836914,-35.08571243286133
-0.04140282794833183,0.3127351403236389,9.765092849731445,-0.0024586979376857053,-0.00566059935138251,-0.004442438259861242,1.9790189266204834,2019-08-07 14:06:16:539,116.48947228813729,172.27489595632264,0,-35.38559341430664,21.89108657836914,-35.08571243286133
-0.03421857953071594,0.3271036446094513,9.824960708618164,0.002336162618994662,-0.004328693453362062,-0.002844151494325895,1.9890162944793701,2019-08-07 14:06:16:549,117.75812175535081,172.38994960600053,0,-35.38559341430664,21.89108657836914,-35.08571243286133
-0.03421857953071594,0.3199194073677063,9.820171356201172,0.004733593027372009,-0.00805802949968553,0.0038153772155533703,1.9990143775939941,2019-08-07 14:06:16:559,119.00349007636451,172.5021750267152,0,-35.38559341430664,21.89108657836914,-35.08571243286133
-0.0030868323519825935,0.3390774130821228,9.796224594116211,-0.0016595545549180318,-0.006992504989328633,-0.0009794834711641602,2.0090153217315674,2019-08-07 14:06:16:569,120.22698584466713,172.61341562310244,0,-35.38559341430664,21.89108657836914,-35.08571243286133
-0.03421857953071594,0.32949841022491455,9.753118515014648,-0.0032578413204533796,-0.009389935657780304,0.0011515656795867992,2.0190179347991943,2019-08-07 14:06:16:579,121.42369954105874,172.72427827942016,0,-35.38559341430664,21.89108657836914,-35.08571243286133
-0.03421857953071594,0.2863928973674774,9.812987327575684,-0.0016595545549180318,-0.0048614559686148365,0.0032826149603749208,2.029019594192505,2019-08-07 14:06:16:589,122.59395983175361,172.83729054947239,0,-35.38559341430664,21.89108657836914,-35.08571243286133
-0.09887681901454926,0.3271036446094513,9.832145690917969,0.004200830512119234,-0.004328693453362062,0.0032826149603749208,2.0390117168426514,2019-08-07 14:06:16:599,123.7329857822558,172.94007866023819,0,-35.38559341430664,21.89108657836914,-35.08571243286133
-0.07253457605838776,0.3654196560382843,9.78664493560791,0.003135306001762336,-0.008857173402601856,-0.0007131023435749355,2.0490145683288574,2019-08-07 14:06:16:609,124.85480787730101,173.0367490944429,0,-35.38559341430664,21.89108657836914,-35.08571243286133
-0.08450832217931747,0.34147214889526367,9.863277435302734,0.0010042569160299579,-0.010988222423315652,0.00035242226430983473,2.059016704559326,2019-08-07 14:06:16:619,125.95406497293742,173.13579370709192,0,-35.38559341430664,21.89108657836914,-35.08571243286133
-0.07732407003641129,0.33668264746665955,9.846513748168945,0.0015370192362269886,-0.005926980478971734,0.0014179468071760237,2.0690054893493652,2019-08-07 14:06:16:629,127.02930931249348,173.2330486409819,0,-35.38559341430664,21.89108657836914,-35.08571243286133
-0.09887681901454926,0.3007614016532898,9.829751014709473,0.0020697814914054373,-0.007258886116917857,-0.0009794834711641602,2.0790140628814697,2019-08-07 14:06:16:639,128.0812761745466,173.33217378870904,0,-35.38559341430664,21.89108657836914,-35.08571243286133
-0.0892978236079216,0.3271036446094513,9.836935043334961,-0.0019259356825072562,-0.006726123861739408,0.0032826149603749208,2.089005708694458,2019-08-07 14:06:16:649,129.1130220874722,173.4285201847792,0,-35.38559341430664,21.89108657836914,-35.08571243286133
-0.08450832217931747,0.3390774130821228,9.810592651367188,0.0007378757884407334,-0.003263168943005164,-0.0012458645987533845,2.0990116596221924,2019-08-07 14:06:16:659,130.12272434260643,173.51994540940737,0,-33.88620376586914,21.89108657836914,-32.68669128417969
-0.08450832217931747,0.3342879116535187,9.827356338500977,0.00393444938453001,-0.002996787815415939,0.002483471317532922,2.1090073585510254,2019-08-07 14:06:16:669,131.11209800261366,173.60837375746902,0,-33.88620376586914,21.89108657836914,-32.68669128417969
-0.07253457605838776,0.3510511517524719,9.741145133972168,0.003668068256940785,-0.006992504989328633,-0.006307106152985815,2.1190152168273926,2019-08-07 14:06:16:679,132.08525284381207,173.69286643409,0,-33.88620376586914,21.89108657836914,-32.68669128417969
-0.10127156972885132,0.3271036446094513,9.772276878356934,0.0010042569160299579,-0.0075252672445070825,-0.0031105326219151193,2.129006862640381,2019-08-07 14:06:16:689,133.03589481435566,173.78010321378179,0,-33.88620376586914,21.89108657836914,-32.68669128417969
-0.07492932677268982,0.3247089087963104,9.769882202148438,0.004467211899782784,-0.005926980478971734,-0.006573487280575038,2.1390066146850586,2019-08-07 14:06:16:699,133.9697164917576,173.8639215813001,0,-33.88620376586914,21.89108657836914,-32.68669128417969
-0.07253457605838776,0.3390774130821228,9.846513748168945,0.0028689248741731116,-0.0021976444326482656,-0.007372630663342713,2.149010181427002,2019-08-07 14:06:16:709,134.88311531483845,173.94558618225764,0,-33.88620376586914,21.89108657836914,-32.68669128417969
-0.10127156972885132,0.3510511517524719,9.777066230773926,0.0010042569160299579,-0.00566059935138251,-0.0068398684081642635,2.1590049266815186,2019-08-07 14:06:16:719,135.7767607038572,174.024983779483,0,-33.88620376586914,21.89108657836914,-32.68669128417969
-0.09887681901454926,0.31034040451049805,9.84411907196045,0.0010042569160299579,-0.006726123861739408,-0.0033769137495043436,2.169015407562256,2019-08-07 14:06:16:729,136.65349667884462,174.10780606598445,0,-33.88620376586914,21.89108657836914,-32.68669128417969
-0.09169257432222366,0.32949841022491455,9.81538200378418,-6.126766340918298e-05,-0.00859079175486398,-0.007372630663342713,2.1790056228637695,2019-08-07 14:06:16:739,137.5145412292807,174.18723082939115,0,-33.88620376586914,21.89108657836914,-32.68669128417969
-0.10606107115745544,0.3271036446094513,9.810592651367188,-6.126766340918298e-05,-0.004062312325772837,-0.0017786268539318336,2.189007043838501,2019-08-07 14:06:16:749,138.3541438463464,174.26532778299037,0,-33.88620376586914,21.89108657836914,-32.68669128417969
-0.11324531584978104,0.3510511517524719,9.789039611816406,-0.0029914601928641544,-0.00859079175486398,-0.004975200515039691,2.199007034301758,2019-08-07 14:06:16:759,139.17862865458486,174.34062410114973,0,-33.88620376586914,21.89108657836914,-32.68669128417969
-0.08690307289361954,0.36781439185142517,9.84411907196045,-0.002192316810096481,-0.0075252672445070825,-0.007905393438669812,2.2090041637420654,2019-08-07 14:06:16:769,139.98916451014276,174.4122463145649,0,-33.88620376586914,21.89108657836914,-32.68669128417969
-0.07971882075071335,0.34147214889526367,9.812987327575684,0.003135306001762336,-0.004328693453362062,-0.00257777036673667,2.2190141677856445,2019-08-07 14:06:16:779,140.78250521399605,174.48237969124057,0,-34.93577575683594,22.940658569335938,-34.63589859008789
-0.09648206830024719,0.3342879116535187,9.789039611816406,0.0015370192362269886,-0.0013985010498805918,-0.0033769137495043436,2.2290046215057373,2019-08-07 14:06:16:789,141.55634568670405,174.55275298261228,0,-34.93577575683594,22.940658569335938,-34.63589859008789
-0.11085056513547897,0.3318931460380554,9.805803298950195,0.002336162618994662,-0.011254603030756228,-0.0033769137495043436,2.2390077114105225,2019-08-07 14:06:16:799,142.31858661818606,174.62161521430454,0,-34.93577575683594,22.940658569335938,-34.63589859008789
-0.1539560705423355,0.36302489042282104,9.810592651367188,0.001803400363816213,-0.00246402556023749,-0.005774343897807364,2.2490110397338867,2019-08-07 14:06:16:809,143.0556176981102,174.68578657658003,0,-34.93577575683594,22.940658569335938,-34.63589859008789
-0.10845582187175751,0.29597190022468567,9.832145690917969,0.002602543746583887,-0.006726123861739408,-0.003643294877093568,2.2590103149414062,2019-08-07 14:06:16:819,143.78564199794783,174.7561251466954,0,-34.93577575683594,22.940658569335938,-34.63589859008789
-0.09169257432222366,0.3582353889942169,9.822566032409668,0.004200830512119234,-0.005127837096204061,-0.00018034003963255039,2.269012689590454,2019-08-07 14:06:16:829,144.50211242987504,174.81686954878822,0,-34.93577575683594,22.940658569335938,-34.63589859008789
-0.12521906197071075,0.34865638613700867,9.846513748168945,0.0028689248741731116,-0.005926980478971734,0.0011515656795867992,2.279005289077759,2019-08-07 14:06:16:839,145.2008237766507,174.87836353532617,0,-34.93577575683594,22.940658569335938,-34.63589859008789
-0.06535032391548157,0.3534458875656128,9.822566032409668,0.00047149462834221814,-0.0048614559686148365,-0.003643294877093568,2.289006471633911,2019-08-07 14:06:16:849,145.8919135684847,174.93931573370887,0,-34.93577575683594,22.940658569335938,-34.63589859008789
-0.08211357146501541,0.3510511517524719,9.805803298950195,0.0071310231756750294,-0.00805802949968553,-0.002844151494325895,2.299004316329956,2019-08-07 14:06:16:859,146.5690032480032,174.9955195604531,0,-34.93577575683594,22.940658569335938,-34.63589859008789
-0.10366632044315338,0.3582353889942169,9.801013946533203,0.003668068256940785,-0.004062312325772837,0.003016233572711371,2.309013843536377,2019-08-07 14:06:16:869,147.2277863253475,175.05168204000213,0,-34.93577575683594,22.940658569335938,-34.63589859008789
-0.12761381268501282,0.3510511517524719,9.892014503479004,-0.0005940299795425521,-0.004328693453362062,0.0011515656795867992,2.3190102577209473,2019-08-07 14:06:16:879,147.87087800098868,175.11033224638638,0,-34.93577575683594,22.940658569335938,-34.63589859008789
-0.09408731758594513,0.34865638613700867,9.793828964233398,0.002336162618994662,-0.002996787815415939,0.0011515656795867992,2.3290045261383057,2019-08-07 14:06:16:889,148.50413393005707,175.16603768553256,0,-34.93577575683594,22.940658569335938,-34.63589859008789
-0.0701398253440857,0.3462616503238678,9.872856140136719,0.003668068256940785,-0.00859079175486398,-0.0007131023435749355,2.339008331298828,2019-08-07 14:06:16:899,149.13073600281868,175.22048335000846,0,-34.93577575683594,22.940658569335938,-34.63589859008789
-0.08211357146501541,0.35584065318107605,9.793828964233398,0.00393444938453001,-0.007258886116917857,0.0022170901899436976,2.349005699157715,2019-08-07 14:06:16:909,149.74258868660962,175.2722486600584,0,-34.03614044189453,22.340904235839844,-34.03614044189453
-0.06056082621216774,0.32231414318084717,9.765092849731445,0.0015370192362269886,-0.00805802949968553,-0.0007131023435749355,2.359016180038452,2019-08-07 14:06:16:919,150.3451596177582,175.32813050576587,0,-34.03614044189453,22.340904235839844,-34.03614044189453
-0.10606107115745544,0.3654196560382843,9.743539810180664,0.0015370192362269886,-0.00566059935138251,0.0048809017259102685,2.369014263153076,2019-08-07 14:06:16:929,150.9289611258742,175.37774898313316,0,-34.03614044189453,22.340904235839844,-34.03614044189453
-0.10845582187175751,0.3726038932800293,9.75790786743164,-0.0019259356825072562,-0.004595074841025611,0.004614520598321043,2.379009962081909,2019-08-07 14:06:16:939,151.5002249849012,175.4275396236454,0,-34.03614044189453,22.340904235839844,-34.03614044189453
-0.11324531584978104,0.3007614016532898,9.858488082885742,-0.0061880337239348495,-0.008324410627274756,-0.0004467211834764202,2.389010429382324,2019-08-07 14:06:16:949,152.06173219507127,175.48751497034493,0,-34.03614044189453,22.340904235839844,-34.03614044189453
-0.17550881206989288,0.3534458875656128,9.781855583190918,-6.126766340918298e-05,-0.0037959311981836125,0.005946426236267168,2.3990061283111572,2019-08-07 14:06:16:959,152.6020699097585,175.53641191756998,0,-34.03614044189453,22.340904235839844,-34.03614044189453
-0.12282431870698929,0.3726038932800293,9.8848295211792,0.00020511348449834825,-0.0008657387296835611,0.003016233572711371,2.409013509750366,2019-08-07 14:06:16:969,153.13627709721894,175.58239412708943,0,-34.03614044189453,22.340904235839844,-34.03614044189453
-0.15156131982803345,0.3318931460380554,9.846513748168945,-0.004056984703221053,-0.010189078520399329,0.0027498524451221467,2.419004201889038,2019-08-07 14:06:16:979,153.661630403925,175.63441173985893,0,-34.03614044189453,22.340904235839844,-34.03614044189453
-0.134798064827919,0.39415663480758667,9.820171356201172,-0.0024586979376857053,-0.005926980478971734,0.003016233572711371,2.429009199142456,2019-08-07 14:06:16:989,154.17599885485106,175.6771352962596,0,-34.03614044189453,22.340904235839844,-34.03614044189453
-0.1539560705423355,0.3342879116535187,9.808197975158691,-0.0011267922997395827,-0.00859079175486398,0.004081758343142595,2.4390103816986084,2019-08-07 14:06:16:999,154.6793175814691,175.7251848009479,0,-34.03614044189453,22.340904235839844,-34.03614044189453
-0.14437706768512726,0.2816033959388733,9.836935043334961,0.0007378757884407334,-0.00859079175486398,0.00035242226430983473,2.4490184783935547,2019-08-07 14:06:17:009,155.17374141438722,175.77747111473732,0,-34.03614044189453,22.340904235839844,-34.03614044189453
-0.1419823169708252,0.3534458875656128,9.841724395751953,0.0028689248741731116,-0.00965631626522088,0.001950709062354473,2.459009885787964,2019-08-07 14:06:17:019,155.65915345193247,175.81917658675087,0,-34.03614044189453,22.340904235839844,-34.03614044189453
-0.12282431870698929,0.36302489042282104,9.8034086227417,0.0015370192362269886,-0.005127837096204061,-0.0017786268539318336,2.469006299972534,2019-08-07 14:06:17:029,156.1344925011874,175.85951591012326,0,-34.93577575683594,22.64078140258789,-33.736263275146484
-0.13719281554222107,0.3462616503238678,9.827356338500977,0.002602543746583887,-0.004595074841025611,-0.0017786268539318336,2.479010820388794,2019-08-07 14:06:17:039,156.59838766262786,175.90050457890044,0,-34.93577575683594,22.64078140258789,-33.736263275146484
-0.1156400665640831,0.3007614016532898,9.882434844970703,-0.00032764881944403687,-0.005926980478971734,-0.0023113892391474454,2.489008903503418,2019-08-07 14:06:17:049,157.05633885602785,175.94781446458435,0,-34.93577575683594,22.64078140258789,-33.736263275146484
-0.0629555732011795,0.3390774130821228,9.779460906982422,0.004467211899782784,-0.004328693453362062,-0.005507962770218141,2.4990122318267822,2019-08-07 14:06:17:059,157.51026667924285,175.98663326948568,0,-34.93577575683594,22.64078140258789,-33.736263275146484
-0.06535032391548157,0.3606301546096802,9.836935043334961,0.008462928813621153,-0.004595074841025611,-0.0007131023435749355,2.509005308151245,2019-08-07 14:06:17:069,157.95502706703274,176.020160565826,0,-34.93577575683594,22.64078140258789,-33.736263275146484
-0.01745533011853695,0.32949841022491455,9.75790786743164,0.00393444938453001,-0.007258886116917857,-0.0031105326219151193,2.5190067291259766,2019-08-07 14:06:17:079,158.39795310275974,176.05886804953786,0,-34.93577575683594,22.64078140258789,-33.736263275146484
-0.029429078102111816,0.32949841022491455,9.841724395751953,0.005799117537728906,0.0004661670057904337,-0.005507962770218141,2.529005527496338,2019-08-07 14:06:17:089,158.82630577223674,176.09608424767313,0,-34.93577575683594,22.64078140258789,-33.736263275146484
-0.01745533011853695,0.3007614016532898,9.853697776794434,0.0015370192362269886,-0.003529550070594388,-0.004708819387450467,2.539005994796753,2019-08-07 14:06:17:099,159.24973165724262,176.13833391299696,0,-34.93577575683594,22.64078140258789,-33.736263275146484
0.0352291613817215,0.3151299059391022,9.767487525939941,0.004200830512119234,-0.00246402556023749,-0.009237299076615935,2.5490169525146484,2019-08-07 14:06:17:109,152.47025513263236,176.17624786374319,0,-34.93577575683594,22.64078140258789,-33.736263275146484
0.05917666107416153,0.2863928973674774,9.841724395751953,0.003135306001762336,-0.003263168943005164,0.0008851845519975746,2.559006690979004,2019-08-07 14:06:17:119,145.82957053260273,176.21762765629373,0,-34.93577575683594,22.64078140258789,-33.736263275146484
0.09988740086555481,0.30315616726875305,9.798619270324707,0.00393444938453001,-0.007791648372096307,0.0032826149603749208,2.5690088272094727,2019-08-07 14:06:17:129,139.32903614770214,176.2556236538301,0,-34.93577575683594,22.64078140258789,-33.736263275146484
0.09270315617322922,0.26484015583992004,9.791434288024902,0.004200830512119234,0.0009989292934781736,0.007811094129391739,2.5790088176727295,2019-08-07 14:06:17:139,132.95274348161925,176.29716508416078,0,-34.93577575683594,22.64078140258789,-33.736263275146484
0.09988740086555481,0.19778716564178467,9.805803298950195,0.0020697814914054373,0.0017980727412644285,0.016335291252544227,2.5890157222747803,2019-08-07 14:06:17:149,126.70435083335333,176.3469483362233,0,-34.93577575683594,22.64078140258789,-33.736263275146484
0.17651939392089844,0.14749743044376373,9.81538200378418,0.007397404303264255,0.0031299783792105513,0.026457775141232064,2.599003791809082,2019-08-07 14:06:17:159,120.58911430863157,176.3986421182216,0,-35.08571243286133,22.190963745117188,-33.28644561767578
0.16454564034938812,0.12594467401504517,9.789039611816406,0.009262072716537477,-0.0013985010498805918,0.043506169387537034,2.6090309619903564,2019-08-07 14:06:17:169,114.59737948968123,176.45071209771024,0,-35.08571243286133,22.190963745117188,-33.28644561767578
0.22920389473438263,0.0780496820807457,9.829751014709473,0.006864642048085805,-0.010189078520399329,0.05096483887944073,2.6190080642700195,2019-08-07 14:06:17:179,108.7378548449159,176.5087536458156,0,-35.08571243286133,22.190963745117188,-33.28644561767578
0.2387828826904297,-0.015345555730164051,9.781855583190918,0.011659502344691848,-0.0027304066878267143,0.07493913932217364,2.6290087699890137,2019-08-07 14:06:17:189,102.99259813353507,169.3738290013908,0,-35.08571243286133,22.190963745117188,-33.28644561767578
0.21004588901996613,-0.04408255219459534,9.781855583190918,0.004999974154961233,0.0007325481658889489,0.08239781297526652,2.639007568359375,2019-08-07 14:06:17:199,97.35693737229927,162.38870938631416,0,-35.08571243286133,22.190963745117188,-33.28644561767578
0.008886916562914848,0.13552367687225342,9.834540367126465,-0.0013931734273288073,-0.007258886116917857,0.09305306224002471,2.6490139961242676,2019-08-07 14:06:17:209,91.81491259806346,162.72592781666006,0,-35.08571243286133,22.190963745117188,-33.28644561767578
-0.1874825656414032,0.44684112071990967,9.712408065795898,0.009262072716537477,0.006326551910281247,0.10237639806460701,2.6590075492858887,2019-08-07 14:06:17:219,93.55294695781174,163.01352870453982,0,-35.08571243286133,22.190963745117188,-33.28644561767578
-0.30961480736732483,0.38218289613723755,9.875250816345215,-0.004589746958399502,-0.0027304066878267143,0.08985648662835942,2.669005870819092,2019-08-07 14:06:17:229,95.24750521078289,163.31150878210917,0,-35.08571243286133,22.190963745117188,-33.28644561767578
-0.4676682651042938,0.4636043906211853,9.829751014709473,-0.009917369510183993,-0.027770235021882753,0.07520552201020882,2.6790101528167725,2019-08-07 14:06:17:239,96.90367679610705,163.59684433447762,0,-35.08571243286133,22.190963745117188,-33.28644561767578
-0.6233270168304443,0.7390006184577942,9.743539810180664,-0.015244993102265786,-0.021909849174622513,0.06854599642122144,2.689009189605713,2019-08-07 14:06:17:249,98.50469611258976,163.84672056268272,0,-35.08571243286133,22.190963745117188,-33.28644561767578
-1.2627251148223877,0.6048946380615234,10.24404239654541,-0.020572615654050278,-0.028569376844204478,0.018199959665817448,2.6990108489990234,2019-08-07 14:06:17:259,100.01010493024407,164.11375352371041,0,-35.08571243286133,22.190963745117188,-33.28644561767578
-1.3010411262512207,1.0790550708770752,10.042882919311523,-0.004589746958399502,0.01165417498221439,-0.011634728704770307,2.7090070247650146,2019-08-07 14:06:17:269,101.45573202048578,164.31140252349124,0,-35.08571243286133,22.190963745117188,-33.28644561767578
-1.1381981372833252,1.105397343635559,9.877645492553711,-0.005122509213577951,-0.012586509188851,-0.05105913974916475,2.7190072536468506,2019-08-07 14:06:17:279,102.90222114597823,164.50034391183675,0,-35.985347747802734,23.990232467651367,-34.18608093261719
-0.9705657362937927,0.5306573510169983,10.062041282653809,-0.01444584919934946,-0.01205374693367255,-0.09074992723981057,2.7290091514587402,2019-08-07 14:06:17:289,104.34075419389022,164.75807192027392,0,-35.985347747802734,23.990232467651367,-34.18608093261719
-1.1022769212722778,0.8826856017112732,9.971040725708008,0.02817513329552107,0.021243896615723776,-0.11605614112271935,2.7390079498291016,2019-08-07 14:06:17:299,105.71584592904757,164.945913745788,0,-35.985347747802734,23.990232467651367,-34.18608093261719
-1.5237529277801514,0.12115518003702164,10.845124244689941,-0.026433001501310522,0.0009989292934781736,-0.1522839786360431,2.749016523361206,2019-08-07 14:06:17:309,107.04101217512786,165.24904934556702,0,-35.985347747802734,23.990232467651367,-34.18608093261719
-0.4245627820491791,0.3917618989944458,10.775676727294922,-0.0008604111071317767,-0.027237471726407003,-0.1480218722722371,2.759007215499878,2019-08-07 14:06:17:319,108.4703456474097,165.50290831387292,0,-35.985347747802734,23.990232467651367,-34.18608093261719
-0.7143275141716003,0.6791318655014038,9.915961265563965,0.0020697814914054373,-0.011787365285934675,-0.1829178046677634,2.769007682800293,2019-08-07 14:06:17:329,109.82515034708493,165.71332794734278,0,-35.985347747802734,23.990232467651367,-34.18608093261719
0.6003900766372681,-0.9133766889572144,9.123299598693848,-0.008851844999827095,0.01591627302364198,-0.19756876928591396,2.779010534286499,2019-08-07 14:06:17:339,104.09501015883662,158.9183751366736,0,-35.985347747802734,23.990232467651367,-34.18608093261719
0.6195480823516846,0.7964745759963989,9.343616485595703,0.07212802298878368,0.023108565028996997,-0.2034291551331742,2.789006233215332,2019-08-07 14:06:17:349,98.4760113819826,159.20207995838769,0,-35.985347747802734,23.990232467651367,-34.18608093261719
0.6842063069343567,-0.2500310242176056,9.892014503479004,0.004733593027372009,0.003929121761978225,-0.22394050559858505,2.7990150451660156,2019-08-07 14:06:17:359,92.98341714005846,152.4443361615994,0,-35.985347747802734,23.990232467651367,-34.18608093261719
0.6411008238792419,-0.5086640119552612,9.398695945739746,-0.031227860757619262,0.014317986258106635,-0.20582658268073398,2.809006929397583,2019-08-07 14:06:17:369,87.59375972572536,145.87492691922236,0,-35.985347747802734,23.990232467651367,-34.18608093261719
0.8159175515174866,0.6384211182594299,9.537590980529785,-0.00272507906527493,-0.018713275643551814,-0.17972122905609808,2.8190109729766846,2019-08-07 14:06:17:379,82.35018843486,146.4823688225449,0,-35.985347747802734,23.990232467651367,-34.18608093261719
0.7871805429458618,0.04452318698167801,9.69564437866211,-0.016843279867801136,-0.024040898195336308,-0.18424971810793925,2.8290061950683594,2019-08-07 14:06:17:389,77.2095093761984,147.15691230558818,0,-35.985347747802734,23.990232467651367,-34.18608093261719
0.7416803240776062,-0.05366155132651329,9.769882202148438,-0.0011267922997395827,-0.00859079175486398,-0.16427111637384195,2.839017391204834,2019-08-07 14:06:17:399,72.15697391723009,140.62070139379574,0,-35.985347747802734,23.990232467651367,-34.18608093261719
0.7105485796928406,0.5474206209182739,9.71719741821289,0.006864642048085805,-0.006193361606560959,-0.13949767618938191,2.849008798599243,2019-08-07 14:06:17:409,67.20095269182939,141.33994892679127,0,-34.485958099365234,20.69157600402832,-34.18608093261719
0.7584435939788818,0.2672349214553833,9.736355781555176,-0.022170903459882926,-0.03229871367075092,-0.11818718598224394,2.859005928039551,2019-08-07 14:06:17:419,62.36414885896784,142.09415111911346,0,-34.485958099365234,20.69157600402832,-34.18608093261719
0.5333371162414551,0.1953924149274826,9.616618156433105,-0.009917369510183993,-0.01897965625099239,-0.0883524996922508,2.869013547897339,2019-08-07 14:06:17:429,57.59101843103488,142.83456118519314,0,-34.485958099365234,20.69157600402832,-34.18608093261719
0.5261528491973877,0.3917618989944458,9.590275764465332,0.012192264599870297,-0.00912355401004243,-0.05851780924106843,2.8790078163146973,2019-08-07 14:06:17:439,52.907123577850065,143.5242434087108,0,-34.485958099365234,20.69157600402832,-34.18608093261719
0.4135996103286743,0.09960243105888367,9.712408065795898,-0.0037906035756318283,0.0009989292934781736,-0.03294522099250287,2.8890163898468018,2019-08-07 14:06:17:449,48.297188689707205,144.24413763269095,0,-34.485958099365234,20.69157600402832,-34.18608093261719
0.4854421019554138,0.12115518003702164,9.820171356201172,-0.0019259356825072562,-0.00805802949968553,-0.003909676004682793,2.8990044593811035,2019-08-07 14:06:17:459,43.79236424580226,144.9461981219369,0,-34.485958099365234,20.69157600402832,-34.18608093261719
0.3824678659439087,0.20976091921329498,9.822566032409668,0.015921601426416743,-0.00965631626522088,0.023527582217601938,2.909010410308838,2019-08-07 14:06:17:469,39.36653895343111,145.61386157078354,0,-34.485958099365234,20.69157600402832,-34.18608093261719
0.3082306385040283,0.08283918350934982,9.736355781555176,0.004200830512119234,-0.007258886116917857,0.04963293376164325,2.9190101623535156,2019-08-07 14:06:17:479,35.019548869116015,146.28947615565468,0,-34.485958099365234,20.69157600402832,-34.18608093261719
0.2699146270751953,0.12115518003702164,9.750723838806152,0.006864642048085805,0.0052610273999243486,0.07360723420437616,2.9290101528167725,2019-08-07 14:06:17:489,30.747916394715922,146.94559459418528,0,-34.485958099365234,20.69157600402832,-34.18608093261719
0.1453876495361328,0.1427079290151596,9.887224197387695,0.018319032094868414,0.004728265144745899,0.08772543344645642,2.9390158653259277,2019-08-07 14:06:17:499,26.547150648644323,147.57985221185464,0,-34.485958099365234,20.69157600402832,-34.18608093261719
0.20765113830566406,0.11876042932271957,9.836935043334961,-6.126766340918298e-05,-0.004328693453362062,0.10876954928793761,2.9490039348602295,2019-08-07 14:06:17:509,22.442821213243832,148.21445566483663,0,-34.485958099365234,20.69157600402832,-34.18608093261719
-0.04858707636594772,0.2145504206418991,9.731565475463867,0.008462928813621153,0.0012653104860859794,0.11622822294103051,2.9590108394622803,2019-08-07 14:06:17:519,25.587532629002265,148.82015160383395,0,-34.485958099365234,20.69157600402832,-34.18608093261719
-0.3455360531806946,0.4133146405220032,9.669301986694336,0.009262072716537477,-0.0021976444326482656,0.13114556192483787,2.9690098762512207,2019-08-07 14:06:17:529,28.63608353579357,149.38959603054124,0,-34.78583526611328,21.89108657836914,-33.88620376586914
-0.14677181839942932,0.38936713337898254,10.05485725402832,0.006065498665318131,-0.0016648821774698163,0.1372723304601333,2.979017496109009,2019-08-07 14:06:17:539,31.64757154289081,149.9540431475159,0,-34.78583526611328,21.89108657836914,-33.88620376586914
-0.15156131982803345,0.45402538776397705,9.791434288024902,0.02391303525409348,0.004728265144745899,0.13247746704263536,2.9890024662017822,2019-08-07 14:06:17:549,34.59423301102537,150.48845765711653,0,-34.78583526611328,21.89108657836914,-33.88620376586914
-0.3910362720489502,0.4971308708190918,9.908777236938477,0.016187982033857316,-0.004328693453362062,0.1415344285015609,2.9990053176879883,2019-08-07 14:06:17:559,37.459581069870914,151.01215309238592,0,-34.78583526611328,21.89108657836914,-33.88620376586914
-0.47245776653289795,0.5881313681602478,9.882434844970703,-0.002192316810096481,-0.005926980478971734,0.14499738680126137,3.0090088844299316,2019-08-07 14:06:17:569,40.25897656960303,151.5250251488878,0,-34.78583526611328,21.89108657836914,-33.88620376586914
-0.6592482328414917,0.5617890954017639,9.86567211151123,0.011126740089513398,0.00765845806837602,0.1351412772782303,3.01900577545166,2019-08-07 14:06:17:579,42.97303895902156,152.02309651596272,0,-34.78583526611328,21.89108657836914,-33.88620376586914
-0.7191169857978821,0.49952563643455505,9.915961265563965,0.006331879792907356,0.0017980727412644285,0.12635070682971833,3.029017448425293,2019-08-07 14:06:17:589,45.62960949183466,152.52139730286092,0,-34.78583526611328,21.89108657836914,-33.88620376586914
-0.7310907244682312,0.48755186796188354,9.896803855895996,0.003135306001762336,-0.005127837096204061,0.11303164732936521,3.039008140563965,2019-08-07 14:06:17:599,48.23539698670016,153.01280423627125,0,-34.78583526611328,21.89108657836914,-33.88620376586914
-0.9442234635353088,0.3055509030818939,9.85609245300293,0.00020511348449834825,-0.00033297644199582136,0.09491772441151414,3.0490095615386963,2019-08-07 14:06:17:609,50.761430195249766,153.51691955556777,0,-34.78583526611328,21.89108657836914,-33.88620376586914
-1.008881688117981,0.32949841022491455,9.841724395751953,0.005799117537728906,-0.0115209846784941,0.07680380981604146,3.059011220932007,2019-08-07 14:06:17:619,53.23561201095337,154.00497379197714,0,-34.78583526611328,21.89108657836914,-33.88620376586914
-1.0376187562942505,0.3869723975658417,9.820171356201172,0.002602543746583887,-0.006459742734150184,0.05362864911503566,3.069009304046631,2019-08-07 14:06:17:629,55.65389410298942,154.47828082173285,0,-34.78583526611328,21.89108657836914,-33.88620376586914
-0.8723809719085693,0.29118239879608154,9.817776679992676,0.010327597226894376,0.0004661670057904337,0.020331008686531246,3.079017400741577,2019-08-07 14:06:17:639,58.03899803224054,154.94893518256745,0,-34.78583526611328,21.89108657836914,-33.88620376586914
-0.9849342107772827,0.4133146405220032,9.70522403717041,0.012458646247608172,-0.006459742734150184,-0.003643294877093568,3.089008092880249,2019-08-07 14:06:17:649,60.36594543478657,155.39419604532227,0,-34.78583526611328,21.89108657836914,-33.88620376586914
-0.8053279519081116,0.42049887776374817,9.738750457763672,0.0015370192362269886,-0.010721840775577777,-0.021757212593458142,3.0990102291107178,2019-08-07 14:06:17:659,62.6701038526972,155.83600138075195,0,-35.08571243286133,22.190963745117188,-33.586326599121094
-0.707143247127533,0.3534458875656128,9.712408065795898,0.0007378757884407334,-0.008324410627274756,-0.03640817513101414,3.109009027481079,2019-08-07 14:06:17:669,64.9380902309925,156.27718427219457,0,-35.08571243286133,22.190963745117188,-33.586326599121094
-0.525142252445221,0.3869723975658417,9.848908424377441,0.009528453323978052,-0.004062312325772837,-0.04919446925529692,3.1190099716186523,2019-08-07 14:06:17:679,67.18056738904521,156.70128896985295,0,-35.08571243286133,22.190963745117188,-33.586326599121094
-0.4030100405216217,0.37499865889549255,9.85609245300293,-0.0024586979376857053,-0.014184795954386346,-0.055853999005473484,3.1290135383605957,2019-08-07 14:06:17:689,69.39809387327628,157.1250661532615,0,-35.08571243286133,22.190963745117188,-33.586326599121094
-0.2712987959384918,0.34865638613700867,9.851303100585938,-0.005921652596345625,-0.01604946436765957,-0.05425571119964084,3.1390039920806885,2019-08-07 14:06:17:699,71.58758531292139,157.54534744056087,0,-35.08571243286133,22.190963745117188,-33.586326599121094
-0.04619232565164566,0.4636043906211853,9.765092849731445,0.005266355282550457,-0.012586509188851,-0.05825143071422246,3.1490108966827393,2019-08-07 14:06:17:709,73.7574852505645,157.93711909926182,0,-35.08571243286133,22.190963745117188,-33.586326599121094
-0.03421857953071594,0.48036763072013855,9.674092292785645,0.0015370192362269886,-0.01604946436765957,-0.05851780924106843,3.1590044498443604,2019-08-07 14:06:17:719,75.8872882459107,158.32066042840268,0,-35.08571243286133,22.190963745117188,-33.586326599121094
-0.029429078102111816,0.4516306221485138,9.738750457763672,0.0015370192362269886,-0.012586509188851,-0.05105913974916475,3.169018268585205,2019-08-07 14:06:17:729,77.97315677629592,158.7002796662407,0,-35.08571243286133,22.190963745117188,-33.586326599121094
-0.06535032391548157,0.4827623665332794,9.808197975158691,-0.0013931734273288073,-0.012586509188851,-0.047862564137499446,3.1790058612823486,2019-08-07 14:06:17:739,80.0131172558507,159.07069854891222,0,-35.08571243286133,22.190963745117188,-33.586326599121094
-0.0892978236079216,0.46599912643432617,9.868066787719727,-0.0008604111071317767,-0.007791648372096307,-0.043866848784107036,3.1890103816986084,2019-08-07 14:06:17:749,82.00686258530128,159.4356945835014,0,-35.08571243286133,22.190963745117188,-33.586326599121094
-0.03182382881641388,0.5761576294898987,9.791434288024902,-0.0032578413204533796,-0.014717558209564796,-0.030281408676313327,3.199012041091919,2019-08-07 14:06:17:759,83.97126618611529,159.7814587903716,0,-35.08571243286133,22.190963745117188,-33.586326599121094
-0.08450832217931747,0.5282626152038574,9.820171356201172,-0.010982895060838192,-0.00805802949968553,-0.02388826161417194,3.2090115547180176,2019-08-07 14:06:17:769,85.88650418399844,160.13041259855518,0,-35.08571243286133,22.190963745117188,-33.586326599121094
-0.015060581266880035,0.3845776319503784,9.93511962890625,-0.012314800178635666,-0.012852889796291574,-0.018294258454946873,3.21901798248291,2019-08-07 14:06:17:779,87.77425853485656,160.49038852828636,0,-35.08571243286133,23.090599060058594,-34.485958099365234
-0.12521906197071075,0.47318339347839355,9.736355781555176,0.006331879792907356,-0.01205374693367255,-0.015097683883578876,3.229015827178955,2019-08-07 14:06:17:789,89.61080328466952,160.8213788800935,0,-35.08571243286133,23.090599060058594,-34.485958099365234
-0.19945630431175232,0.38218289613723755,9.750723838806152,0.003135306001762336,-0.00805802949968553,-0.018294258454946873,3.2390122413635254,2019-08-07 14:06:17:799,91.3996731175249,161.1582998964136,0,-35.08571243286133,23.090599060058594,-34.485958099365234
-0.14437706768512726,0.2792086601257324,9.872856140136719,-0.009917369510183993,-0.004595074841025611,-0.017761495159471122,3.2490074634552,2019-08-07 14:06:17:809,93.15750229104925,161.50830147208012,0,-35.08571243286133,23.090599060058594,-34.485958099365234
-0.16592980921268463,0.3582353889942169,9.846513748168945,-0.007786321009618847,-0.010721840775577777,-0.02015892478762549,3.259019613265991,2019-08-07 14:06:17:819,94.88107114053454,161.8408404973414,0,-35.08571243286133,23.090599060058594,-34.485958099365234
-0.2210090607404709,0.4109198749065399,9.851303100585938,-0.005388890341167176,-0.012320127541113125,-0.022023593200898715,3.269010066986084,2019-08-07 14:06:17:829,96.56465711695452,162.15927564537714,0,-35.08571243286133,23.090599060058594,-34.485958099365234
-0.16353505849838257,0.2935771644115448,9.880040168762207,-0.00965098890274342,-0.010455460168137204,-0.02788397904815896,3.2790021896362305,2019-08-07 14:06:17:839,98.22026454023062,162.48746496948664,0,-35.08571243286133,23.090599060058594,-34.485958099365234
-0.3000358045101166,0.4109198749065399,9.870461463928223,-0.0019259356825072562,-0.00033297644199582136,-0.03933836805464427,3.2890303134918213,2019-08-07 14:06:17:849,99.82122467414469,162.79112172912758,0,-35.08571243286133,23.090599060058594,-34.485958099365234
-0.2976410388946533,0.4181041419506073,9.796224594116211,0.0020697814914054373,-0.010988222423315652,-0.03800646293684679,3.299018621444702,2019-08-07 14:06:17:859,101.39615691845582,163.08526031150674,0,-35.08571243286133,23.090599060058594,-34.485958099365234
-0.2712987959384918,0.3773933947086334,9.942303657531738,-0.010183751157921868,-0.006992504989328633,-0.04040389464559577,3.3090322017669678,2019-08-07 14:06:17:869,102.94090418914234,163.38580484622028,0,-35.08571243286133,23.090599060058594,-34.485958099365234
-0.08211357146501541,0.35584065318107605,9.911171913146973,-0.008585464392386522,-0.013918414306648471,-0.03294522099250287,3.3190221786499023,2019-08-07 14:06:17:879,104.48039980576507,163.68178051806697,0,-35.08571243286133,23.090599060058594,-34.485958099365234
0.08551890403032303,0.31752464175224304,9.848908424377441,-0.006454414851524075,-0.0075252672445070825,-0.028416740263040103,3.3290209770202637,2019-08-07 14:06:17:889,98.80496656106766,163.97483757514973,0,-35.08571243286133,23.090599060058594,-34.485958099365234
0.19328264892101288,0.4827623665332794,9.750723838806152,0.0055327364101396825,-0.0005993576020943366,-0.030814171971789078,3.339019775390625,2019-08-07 14:06:17:899,93.25191553902721,164.23554610813056,0,-35.08571243286133,23.090599060058594,-34.485958099365234
0.054387159645557404,0.3271036446094513,9.762697219848633,-6.126766340918298e-05,-0.0016648821774698163,-0.02388826161417194,3.349041223526001,2019-08-07 14:06:17:909,87.794197795052,164.51248959216264,0,-34.18608093261719,21.89108657836914,-33.586326599121094
0.1860983967781067,0.19060291349887848,9.781855583190918,-0.006987177626851173,-0.00965631626522088,-0.010835585842151283,3.35925555229187,2019-08-07 14:06:17:919,82.46565030659383,164.80392143340018,0,-34.18608093261719,21.89108657836914,-33.586326599121094
0.2651251256465912,0.43486738204956055,9.609434127807617,-0.0008604111071317767,-0.00566059935138251,-0.0004467211834764202,3.3693504333496094,2019-08-07 14:06:17:930,77.25115376905761,165.05650855668893,0,-34.18608093261719,21.89108657836914,-33.586326599121094
0.24117763340473175,0.26484015583992004,9.78664493560791,0.001803400363816213,-0.0048614559686148365,0.0032826149603749208,3.3792526721954346,2019-08-07 14:06:17:939,72.13706741757107,165.32337318276728,0,-34.18608093261719,21.89108657836914,-33.586326599121094
0.03043966367840767,0.24328741431236267,9.769882202148438,0.001803400363816213,-0.0048614559686148365,0.015269766742187328,3.3892264366149902,2019-08-07 14:06:17:949,67.10061888422878,165.58736633204518,0,-34.18608093261719,21.89108657836914,-33.586326599121094
0.018465915694832802,0.3702091574668884,9.8034086227417,-6.126766340918298e-05,-0.0027304066878267143,0.03418282732117092,3.3991446495056152,2019-08-07 14:06:17:959,62.162285556450776,165.83240011300813,0,-34.18608093261719,21.89108657836914,-33.586326599121094
0.06875565648078918,0.31752464175224304,9.810592651367188,-0.009384607255005544,-0.007791648372096307,0.04856740717069175,3.4090194702148438,2019-08-07 14:06:17:969,57.331390877437116,166.08388041455842,0,-34.18608093261719,21.89108657836914,-33.586326599121094
0.10946640372276306,0.3247089087963104,9.542380332946777,-0.0029914601928641544,0.006326551910281247,0.055759698135749464,3.4190402030944824,2019-08-07 14:06:17:979,52.594348257269104,166.3249077187311,0,-34.18608093261719,21.89108657836914,-33.586326599121094
0.12383490055799484,0.4300778806209564,9.71719741821289,-0.007519939882029623,0.00765845806837602,0.07174257203288674,3.4290354251861572,2019-08-07 14:06:17:989,47.952765765341,166.55194545923854,0,-34.18608093261719,21.89108657836914,-33.586326599121094
0.27949362993240356,0.4492358863353729,9.690855026245117,-0.00911822664756497,0.003929121761978225,0.08026676811574193,3.439051866531372,2019-08-07 14:06:17:999,43.424540781023886,166.77295199708146,0,-34.18608093261719,21.89108657836914,-33.586326599121094
0.025650164112448692,0.2887876629829407,9.85609245300293,0.004467211899782784,0.0052610273999243486,0.0815986732335394,3.4490106105804443,2019-08-07 14:06:18:009,38.95609029472536,167.00142876582967,0,-34.18608093261719,21.89108657836914,-33.586326599121094
-0.2593250572681427,0.025365188717842102,10.105146408081055,0.004467211899782784,-0.013652033699207897,0.0762710444399711,3.4590516090393066,2019-08-07 14:06:18:019,41.755264712129176,167.25600518708248,0,-34.18608093261719,21.89108657836914,-33.586326599121094
-0.1683245599269867,-0.06324055045843124,9.896803855895996,-0.009384607255005544,-0.02510642270569321,0.07174257203288674,3.469041347503662,2019-08-07 14:06:18:029,44.51475435316712,160.3234714182152,0,-35.68547058105469,21.591209411621094,-34.18608093261719
0.152571901679039,0.3606301546096802,9.54716968536377,0.004999974154961233,-0.003263168943005164,0.06774685251830512,3.479033946990967,2019-08-07 14:06:18:039,40.044601323310054,160.67093189884937,0,-35.68547058105469,21.591209411621094,-34.18608093261719
0.15017715096473694,0.2528664171695709,9.77467155456543,0.004999974154961233,0.009789506568941165,0.044571691817299336,3.4890103340148926,2019-08-07 14:06:18:049,35.65582983800515,161.02507469382036,0,-35.68547058105469,21.591209411621094,-34.18608093261719
0.3369676172733307,0.07565493136644363,9.798619270324707,-0.007786321009618847,-0.01977880015390871,0.044571691817299336,3.499016046524048,2019-08-07 14:06:18:059,31.39321706145409,161.4001002919699,0,-35.68547058105469,21.591209411621094,-34.18608093261719
0.38486263155937195,0.4109198749065399,9.69564437866211,0.01645436368159519,-0.014184795954386346,0.03977683256099059,3.509006977081299,2019-08-07 14:06:18:069,27.218772786225525,161.71433052471463,0,-35.68547058105469,21.591209411621094,-34.18608093261719
-0.10606107115745544,0.3462616503238678,9.798619270324707,0.015655219778678866,-0.00859079175486398,0.01926548417617435,3.51900315284729,2019-08-07 14:06:18:079,30.26681620224734,162.030779598258,0,-35.68547058105469,21.591209411621094,-34.18608093261719
0.13580864667892456,0.17862917482852936,9.810592651367188,-0.006987177626851173,0.00019978586194656375,0.014470622839271002,3.5290143489837646,2019-08-07 14:06:18:089,26.077229541025993,162.37322940860685,0,-35.68547058105469,21.591209411621094,-34.18608093261719
0.19567739963531494,0.6144736409187317,9.858488082885742,0.0028689248741731116,0.008723982578732917,0.003016233572711371,3.5390071868896484,2019-08-07 14:06:18:099,21.973531812959358,162.6528231245712,0,-35.68547058105469,21.591209411621094,-34.18608093261719
0.09509790688753128,0.4444463849067688,9.920751571655273,0.008995691068799602,-0.003263168943005164,-0.016429590041673648,3.5490353107452393,2019-08-07 14:06:18:109,17.946882725822576,162.94339905237857,0,-35.68547058105469,21.591209411621094,-34.18608093261719
0.12862439453601837,0.20018191635608673,9.872856140136719,0.002336162618994662,-0.014717558209564796,-0.02468740551708826,3.55900502204895,2019-08-07 14:06:18:119,14.011112169450369,163.2599919043824,0,-35.68547058105469,21.591209411621094,-34.18608093261719
0.03762391209602356,0.5641838908195496,9.738750457763672,0.00393444938453001,-0.008324410627274756,-0.03214607708958655,3.5690433979034424,2019-08-07 14:06:18:129,10.14000902564125,163.52626349894172,0,-35.68547058105469,21.591209411621094,-34.18608093261719
0.09270315617322922,0.4516306221485138,9.762697219848633,-0.004589746958399502,-0.00246402556023749,-0.04599789780482083,3.5790438652038574,2019-08-07 14:06:18:139,6.349473343166899,163.8053422298541,0,-35.68547058105469,21.591209411621094,-34.18608093261719
0.11665065586566925,0.21215566992759705,9.812987327575684,-0.005122509213577951,-0.00033297644199582136,-0.05105913974916475,3.589036464691162,2019-08-07 14:06:18:149,2.6362919900057844,164.10733883284058,0,-35.68547058105469,21.591209411621094,-34.18608093261719
0.09749265760183334,0.4707886278629303,9.73396110534668,0.008729310461359028,-0.00965631626522088,-0.04679704170773716,3.5991477966308594,2019-08-07 14:06:18:159,-0.9994746877610936,164.3648562793125,0,-34.336021423339844,23.540414810180664,-33.736263275146484
0.4016258716583252,0.3606301546096802,9.65493392944336,-0.005921652596345625,-0.020844324664265612,-0.04759618561065348,3.6090710163116455,2019-08-07 14:06:18:169,-4.5202306759526,164.63807638498272,0,-34.336021423339844,23.540414810180664,-33.736263275146484
0.26033562421798706,0.3271036446094513,9.693249702453613,-0.003524222448042604,-0.00805802949968553,-0.05665314290838981,3.61903715133667,2019-08-07 14:06:18:179,-7.994547879071348,164.9086321656244,0,-34.336021423339844,23.540414810180664,-33.736263275146484
-0.5011947751045227,0.2935771644115448,9.508853912353516,0.006598260920496581,-0.00805802949968553,-0.06091524094981741,3.629021406173706,2019-08-07 14:06:18:189,-4.290482805543595,165.17139258063978,0,-34.336021423339844,23.540414810180664,-33.736263275146484
-0.6808009743690491,-0.10395129770040512,10.488306999206543,-0.04454692025797239,0.008457601451143694,-0.03294522099250287,3.639216661453247,2019-08-07 14:06:18:199,-0.6837925273062577,158.30482313872412,0,-34.336021423339844,23.540414810180664,-33.736263275146484
0.2315986305475235,0.0038124416023492813,10.299121856689453,-0.02563385759839419,-0.027237471726407003,-0.02575293002744516,3.6490237712860107,2019-08-07 14:06:18:209,-4.2293537607847265,158.75241823273828,0,-34.336021423339844,23.540414810180664,-33.736263275146484
-0.3048253059387207,0.5067098736763,9.772276878356934,0.016720744289035767,-0.01791413174063549,-0.03933836805464427,3.6592140197753906,2019-08-07 14:06:18:219,-0.5702493617338096,159.10843798532844,0,-34.336021423339844,23.540414810180664,-33.736263275146484
-0.24256180226802826,-0.022529805079102516,9.8034086227417,-0.00965098890274342,-0.015516702112481122,-0.02735121575268321,3.669041872024536,2019-08-07 14:06:18:229,3.0213711015550104,152.3342284487447,0,-34.336021423339844,23.540414810180664,-33.736263275146484
0.06396616250276566,0.10918142646551132,9.925540924072266,-0.005921652596345625,0.004994646272335123,-0.01935978296530377,3.679037094116211,2019-08-07 14:06:18:239,-0.6344745997494168,152.8782626728821,0,-34.336021423339844,23.540414810180664,-33.736263275146484
-0.05816607549786568,0.31752464175224304,9.918355941772461,0.006598260920496581,-0.007258886116917857,-0.018294258454946873,3.688992738723755,2019-08-07 14:06:18:249,2.9755525375712706,153.38033630695722,0,-34.336021423339844,23.540414810180664,-33.736263275146484
-0.09169257432222366,0.2025766670703888,9.8848295211792,0.00047149462834221814,-0.011787365285934675,-0.00897091742887806,3.6990318298339844,2019-08-07 14:06:18:259,6.5120566372029245,153.8889830462358,0,-34.336021423339844,23.540414810180664,-33.736263275146484
-0.0629555732011795,0.24328741431236267,9.930330276489258,0.007663785430853478,-0.02004518076134929,-0.005241581642628916,3.7090258598327637,2019-08-07 14:06:18:269,9.985799433186148,154.37883408733722,0,-34.336021423339844,23.540414810180664,-33.736263275146484
-0.17311406135559082,0.3127351403236389,9.769882202148438,0.006598260920496581,-0.003529550070594388,-0.003643294877093568,3.7190463542938232,2019-08-07 14:06:18:279,13.367766811897278,154.8508765185934,0,-35.235652923583984,22.64078140258789,-34.03614044189453
-0.1946668028831482,0.24328741431236267,9.848908424377441,0.0015370192362269886,-0.0019312633050590406,0.003016233572711371,3.7290048599243164,2019-08-07 14:06:18:289,16.678844940922858,155.32469892091152,0,-35.235652923583984,22.64078140258789,-34.03614044189453
-0.1946668028831482,0.3606301546096802,9.968646049499512,0.0034016871293515603,-0.004595074841025611,0.008077475256980963,3.7390096187591553,2019-08-07 14:06:18:299,19.92547490780013,155.77485691133555,0,-35.235652923583984,22.64078140258789,-34.03614044189453
-0.19945630431175232,0.4228936433792114,9.875250816345215,0.009528453323978052,-0.014983938817005372,0.00674556961903484,3.7490060329437256,2019-08-07 14:06:18:309,23.112234262880506,156.2049692284812,0,-35.235652923583984,22.64078140258789,-34.03614044189453
-0.3191937804222107,0.3606301546096802,9.8848295211792,0.007397404303264255,-0.0075252672445070825,0.008077475256980963,3.759007215499878,2019-08-07 14:06:18:319,26.21722527878152,156.63492759305612,0,-35.235652923583984,22.64078140258789,-34.03614044189453
-0.3431412875652313,0.4109198749065399,9.810592651367188,0.012458646247608172,-0.0037959311981836125,0.00674556961903484,3.7690045833587646,2019-08-07 14:06:18:329,29.25494771024797,157.04726635998279,0,-35.235652923583984,22.64078140258789,-34.03614044189453
-0.3646940290927887,0.49234136939048767,9.78664493560791,0.006864642048085805,0.0004661670057904337,0.004614520598321043,3.7790048122406006,2019-08-07 14:06:18:339,32.22690482277836,157.44486689957037,0,-35.235652923583984,22.64078140258789,-34.03614044189453
-0.3503255248069763,0.47318339347839355,9.8848295211792,0.006598260920496581,-0.009389935657780304,0.004614520598321043,3.789011240005493,2019-08-07 14:06:18:349,35.147047462828745,157.83744952228565,0,-35.235652923583984,22.64078140258789,-34.03614044189453
-0.4317470192909241,0.3773933947086334,9.860882759094238,0.008196547686031928,-0.01205374693367255,0.005680045108677942,3.799032688140869,2019-08-07 14:06:18:359,38.00074866559382,158.23225349096046,0,-35.235652923583984,22.64078140258789,-34.03614044189453
-0.4221680164337158,0.4109198749065399,9.712408065795898,0.007663785430853478,-0.008857173402601856,0.0032826149603749208,3.809002161026001,2019-08-07 14:06:18:369,40.795913766552296,158.61486498991994,0,-35.235652923583984,22.64078140258789,-34.03614044189453
-0.4820367693901062,0.4037356376647949,9.784250259399414,0.004200830512119234,-0.003263168943005164,-0.0017786268539318336,3.819002151489258,2019-08-07 14:06:18:379,43.52541799609955,158.99295087583192,0,-35.235652923583984,22.64078140258789,-34.03614044189453
-0.41258904337882996,0.3462616503238678,9.755513191223145,0.008729310461359028,-0.0005993576020943366,-0.0023113892391474454,3.8290035724639893,2019-08-07 14:06:18:389,46.20681098210361,159.36753366809808,0,-35.235652923583984,22.64078140258789,-34.03614044189453
-0.4149837791919708,0.3726038932800293,9.846513748168945,-0.0005940299795425521,-0.005926980478971734,-0.00950367968405651,3.8390097618103027,2019-08-07 14:06:18:399,48.8377384789401,159.7371746076175,0,-35.235652923583984,22.64078140258789,-34.03614044189453
-0.33595705032348633,0.38936713337898254,9.738750457763672,0.002336162618994662,-0.006992504989328633,-0.0068398684081642635,3.8490049839019775,2019-08-07 14:06:18:409,51.425393208571215,160.09532927412334,0,-33.586326599121094,22.790719985961914,-33.586326599121094
-0.3646940290927887,0.32949841022491455,9.724381446838379,-0.0029914601928641544,-0.004328693453362062,-0.011901110352508182,3.859011173248291,2019-08-07 14:06:18:419,53.95636219783387,160.45629037276453,0,-33.586326599121094,22.790719985961914,-33.586326599121094
-0.26171979308128357,0.32949841022491455,9.743539810180664,0.00020511348449834825,0.0028635972516213265,-0.016695970649114225,3.869004011154175,2019-08-07 14:06:18:429,56.444855328503145,160.80831267902371,0,-33.586326599121094,22.790719985961914,-33.586326599121094
-0.20903530716896057,0.3582353889942169,9.743539810180664,0.0012706381086377639,-0.00566059935138251,-0.013765778765781403,3.8790056705474854,2019-08-07 14:06:18:439,58.894556771101186,161.14932056347365,0,-33.586326599121094,22.790719985961914,-33.586326599121094
-0.2066405564546585,0.3342879116535187,9.73396110534668,0.0028689248741731116,-0.00246402556023749,-0.016429590041673648,3.889004945755005,2019-08-07 14:06:18:449,61.29372629427199,161.48538530190928,0,-33.586326599121094,22.790719985961914,-33.586326599121094
-0.19945630431175232,0.3079456388950348,9.820171356201172,0.003668068256940785,0.0028635972516213265,-0.0148313032761383,3.899007797241211,2019-08-07 14:06:18:459,63.64297205165931,161.81769499480268,0,-33.586326599121094,22.790719985961914,-33.586326599121094
-0.0701398253440857,0.33668264746665955,9.791434288024902,0.001803400363816213,0.0007325481658889489,-0.005241581642628916,3.908996343612671,2019-08-07 14:06:18:469,65.96149326141006,162.1409423695445,0,-33.586326599121094,22.790719985961914,-33.586326599121094
0.042413413524627686,0.39415663480758667,9.92314624786377,-0.0013931734273288073,0.01937922820245055,-0.003643294877093568,3.9190003871917725,2019-08-07 14:06:18:479,61.03627541718659,162.45341318166325,0,-33.586326599121094,22.790719985961914,-33.586326599121094
0.15736140310764313,0.4037356376647949,10.17459487915039,-0.0029914601928641544,0.0028635972516213265,0.004348139470731819,3.9290058612823486,2019-08-07 14:06:18:489,56.23166256631107,162.76057858207523,0,-33.586326599121094,22.790719985961914,-33.586326599121094
0.19328264892101288,0.4899466335773468,10.030909538269043,0.006331879792907356,-0.028036615629323327,0.019798245391055496,3.939009189605713,2019-08-07 14:06:18:499,51.544854654907695,163.04588418593346,0,-33.586326599121094,22.790719985961914,-33.586326599121094
0.011281665414571762,0.3845776319503784,9.630986213684082,0.012458646247608172,-0.011787365285934675,0.02059738929397182,3.949005603790283,2019-08-07 14:06:18:509,46.92191609443487,163.33223991570657,0,-33.586326599121094,22.790719985961914,-33.586326599121094
0.14299289882183075,0.29597190022468567,9.791434288024902,0.009528453323978052,0.02230942112608067,0.030187109887183903,3.9590046405792236,2019-08-07 14:06:18:519,42.38768588994617,163.6256176451465,0,-33.586326599121094,22.790719985961914,-33.586326599121094
0.27230939269065857,0.37499865889549255,9.899198532104492,0.016720744289035767,-0.0048614559686148365,0.04537083572021565,3.969003200531006,2019-08-07 14:06:18:529,37.97417563791845,163.9003294630881,0,-34.336021423339844,21.741147994995117,-35.235652923583984
-0.02463958039879799,0.34386688470840454,9.841724395751953,0.007397404303264255,-0.011787365285934675,0.044305309129264156,3.9790079593658447,2019-08-07 14:06:18:539,40.818444974850365,164.17814559993278,0,-34.336021423339844,21.741147994995117,-35.235652923583984
0.011281665414571762,-0.012950805947184563,9.889619827270508,0.006331879792907356,-0.010721840775577777,0.06002180033836625,3.9890098571777344,2019-08-07 14:06:18:549,36.40940472899556,157.292527287331,0,-34.336021423339844,21.741147994995117,-35.235652923583984
-0.04140282794833183,0.3606301546096802,9.642960548400879,0.0071310231756750294,0.01058865047185749,0.064816659594675,3.9990057945251465,2019-08-07 14:06:18:559,39.27035348637167,157.69983899731258,0,-34.336021423339844,21.741147994995117,-35.235652923583984
-0.0701398253440857,0.24328741431236267,9.741145133972168,0.0012706381086377639,0.012719699492571287,0.052563126685273374,4.00900411605835,2019-08-07 14:06:18:569,42.06955465061846,158.11651530976908,0,-34.336021423339844,21.741147994995117,-35.235652923583984
-0.03900807723402977,0.17862917482852936,9.868066787719727,-0.0016595545549180318,0.004728265144745899,0.05389503180307084,4.019006013870239,2019-08-07 14:06:18:579,44.82097840395244,158.53437621768694,0,-34.336021423339844,21.741147994995117,-35.235652923583984
-0.043797578662633896,0.2744191586971283,9.829751014709473,0.011659502344691848,-0.00965631626522088,0.046702740838013124,4.0290021896362305,2019-08-07 14:06:18:589,47.52487304677082,158.92516195063624,0,-34.336021423339844,21.741147994995117,-35.235652923583984
-0.180298313498497,0.34386688470840454,9.760302543640137,0.006864642048085805,-0.012320127541113125,0.032584541595932874,4.039004564285278,2019-08-07 14:06:18:599,50.1601293128952,159.3024480526829,0,-34.336021423339844,21.741147994995117,-35.235652923583984
-0.3191937804222107,0.1762344241142273,9.77467155456543,-0.0013931734273288073,-0.0019312633050590406,0.0166016718599848,4.049010515213013,2019-08-07 14:06:18:609,52.7206049721949,159.6965235427571,0,-34.336021423339844,21.741147994995117,-35.235652923583984
-0.4221680164337158,0.3534458875656128,9.870461463928223,-0.0029914601928641544,0.004994646272335123,0.005413663981088718,4.05899977684021,2019-08-07 14:06:18:619,55.21440946833127,160.0632550371575,0,-34.336021423339844,21.741147994995117,-35.235652923583984
-0.3048253059387207,0.3797881305217743,9.944698333740234,-0.007519939882029623,-0.011787365285934675,-0.013765778765781403,4.069006443023682,2019-08-07 14:06:18:629,57.68163062261946,160.42247391607683,0,-34.336021423339844,21.741147994995117,-35.235652923583984
-0.24735130369663239,0.23610316216945648,9.949487686157227,-0.0024586979376857053,-0.01977880015390871,-0.030281408676313327,4.0790040493011475,2019-08-07 14:06:18:639,60.11061871568158,160.788216978892,0,-34.336021423339844,21.741147994995117,-35.235652923583984
-0.23777230083942413,0.3199194073677063,9.755513191223145,-0.0029914601928641544,-0.015516702112481122,-0.03933836805464427,4.08900260925293,2019-08-07 14:06:18:649,62.48919368333332,161.13656674452568,0,-34.336021423339844,21.741147994995117,-35.235652923583984
-0.14916656911373138,0.3510511517524719,9.710013389587402,0.004733593027372009,0.00019978586194656375,-0.04493237121386933,4.099012851715088,2019-08-07 14:06:18:659,64.8216951860394,161.46976393649314,0,-35.53553009033203,23.240537643432617,-34.93577575683594
-0.12042956799268723,0.3917618989944458,9.860882759094238,-6.126766340918298e-05,-0.007791648372096307,-0.055321237790592344,4.109009504318237,2019-08-07 14:06:18:669,67.11564060831778,161.79490102653855,0,-35.53553009033203,23.240537643432617,-34.93577575683594
-0.07253457605838776,0.3055509030818939,9.868066787719727,0.0007378757884407334,-0.01205374693367255,-0.058784191929103606,4.119033336639404,2019-08-07 14:06:18:679,69.3716892632466,162.1231173596276,0,-35.53553009033203,23.240537643432617,-34.93577575683594
-0.01745533011853695,0.3271036446094513,9.810592651367188,0.002602543746583887,-0.013385652051470022,-0.05771866533815211,4.12903618812561,2019-08-07 14:06:18:689,71.58973479790498,162.44100043455708,0,-35.53553009033203,23.240537643432617,-34.93577575683594
-0.05337657779455185,0.3318931460380554,9.777066230773926,0.0007378757884407334,-0.010455460168137204,-0.05319018876987854,4.138994932174683,2019-08-07 14:06:18:699,73.75753069850707,162.75288339938544,0,-35.53553009033203,23.240537643432617,-34.93577575683594
0.006492166314274073,0.3462616503238678,9.808197975158691,-0.0029914601928641544,-0.010455460168137204,-0.04573151511678566,4.149027109146118,2019-08-07 14:06:18:709,68.68902819686126,163.05907304136133,0,-35.53553009033203,23.240537643432617,-34.93577575683594
-0.0701398253440857,0.4516306221485138,9.796224594116211,0.004733593027372009,-0.014717558209564796,-0.04120303438732288,4.159021615982056,2019-08-07 14:06:18:719,70.91530250058493,163.34244292131405,0,-35.53553009033203,23.240537643432617,-34.93577575683594
-0.05816607549786568,0.4636043906211853,9.777066230773926,0.0028689248741731116,-0.00965631626522088,-0.03560903122809782,4.169036149978638,2019-08-07 14:06:18:729,73.09560909737718,163.61968499931888,0,-35.53553009033203,23.240537643432617,-34.93577575683594
-0.12042956799268723,0.42768314480781555,9.827356338500977,-0.004323365830810277,-0.00912355401004243,-0.02868312295107528,4.179030418395996,2019-08-07 14:06:18:739,75.22477489587047,163.89987907041626,0,-35.53553009033203,23.240537643432617,-34.93577575683594
-0.11324531584978104,0.3582353889942169,9.769882202148438,-0.003524222448042604,-0.012586509188851,-0.02522016673196941,4.189038991928101,2019-08-07 14:06:18:749,77.31407074585789,164.1818631946201,0,-35.53553009033203,23.240537643432617,-34.93577575683594
-0.20185105502605438,0.38936713337898254,9.769882202148438,-6.126766340918298e-05,-0.010455460168137204,-0.02308911771125561,4.199033498764038,2019-08-07 14:06:18:759,79.34998496408991,164.45261535523403,0,-35.53553009033203,23.240537643432617,-34.93577575683594
-0.14437706768512726,0.3702091574668884,9.824960708618164,0.0010042569160299579,-0.006193361606560959,-0.01935978296530377,4.209004640579224,2019-08-07 14:06:18:769,81.34961486076786,164.71984256401606,0,-35.53553009033203,23.240537643432617,-34.93577575683594
-0.17311406135559082,0.3271036446094513,9.729170799255371,0.004733593027372009,-0.00965631626522088,-0.020425307475660667,4.219029426574707,2019-08-07 14:06:18:779,83.30767054172316,164.984268992377,0,-34.485958099365234,23.090599060058594,-34.485958099365234
-0.15874555706977844,0.36302489042282104,9.73396110534668,0.005266355282550457,-0.003263168943005164,-0.018560639062387443,4.229031562805176,2019-08-07 14:06:18:789,85.22466336735702,165.2389091804546,0,-34.485958099365234,23.090599060058594,-34.485958099365234
-0.12282431870698929,0.2480769157409668,9.839329719543457,-0.002192316810096481,-0.006193361606560959,-0.019626163572744344,4.23904275894165,2019-08-07 14:06:18:799,87.10934784024917,165.5064777529665,0,-34.485958099365234,23.090599060058594,-34.485958099365234
-0.06056082621216774,0.31034040451049805,9.853697776794434,0.003668068256940785,-0.006193361606560959,-0.01296663486286508,4.249028444290161,2019-08-07 14:06:18:809,88.9635907610412,165.7582130553376,0,-34.485958099365234,23.090599060058594,-34.485958099365234
-0.14437706768512726,0.24568216502666473,9.789039611816406,0.00393444938453001,-0.008857173402601856,-0.009770061331794384,4.259030818939209,2019-08-07 14:06:18:819,90.77239370685695,166.01208529730312,0,-34.485958099365234,23.090599060058594,-34.485958099365234
-0.07253457605838776,0.21694517135620117,9.765092849731445,-0.0013931734273288073,-0.00805802949968553,-0.0148313032761383,4.269034147262573,2019-08-07 14:06:18:829,92.55296026939797,166.26717218917588,0,-34.485958099365234,23.090599060058594,-34.485958099365234
-0.10606107115745544,0.2983666658401489,9.839329719543457,0.0028689248741731116,-0.009389935657780304,-0.00604072502539659,4.279032945632935,2019-08-07 14:06:18:839,94.2948211788373,166.50548007829957,0,-34.485958099365234,23.090599060058594,-34.485958099365234
-0.1611403077840805,0.24568216502666473,9.836935043334961,0.008462928813621153,-0.0115209846784941,-0.006573487280575038,4.289044141769409,2019-08-07 14:06:18:849,95.99663127897351,166.7419993911324,0,-34.485958099365234,23.090599060058594,-34.485958099365234
-0.20424580574035645,0.21694517135620117,9.841724395751953,-0.002192316810096481,-0.012320127541113125,-0.009770061331794384,4.299026966094971,2019-08-07 14:06:18:859,97.6598266754062,166.9831324742777,0,-34.485958099365234,23.090599060058594,-34.485958099365234
-0.13958756625652313,0.3271036446094513,9.810592651367188,0.006065498665318131,-0.005394218223793286,-0.010302823586972834,4.3090221881866455,2019-08-07 14:06:18:869,99.29335426738132,167.20187284637967,0,-34.485958099365234,23.090599060058594,-34.485958099365234
-0.21861431002616882,0.31034040451049805,9.846513748168945,0.004200830512119234,-0.0075252672445070825,-0.005507962770218141,4.3190391063690186,2019-08-07 14:06:18:879,100.88628208512525,167.41936785724994,0,-34.485958099365234,23.090599060058594,-34.485958099365234
-0.26171979308128357,0.27202439308166504,9.901593208312988,0.00020511348449834825,-0.0115209846784941,-0.008704536821437486,4.32902717590332,2019-08-07 14:06:18:889,102.44473585080533,167.6393918846224,0,-34.485958099365234,23.090599060058594,-34.485958099365234
-0.26890406012535095,0.3869723975658417,9.829751014709473,0.0055327364101396825,-0.012852889796291574,-0.011368348097329731,4.339048624038696,2019-08-07 14:06:18:899,103.9717334799899,167.83840224884977,0,-34.485958099365234,23.090599060058594,-34.485958099365234
-0.2593250572681427,0.4109198749065399,9.805803298950195,-0.0013931734273288073,-0.010455460168137204,-0.014298541020959853,4.349015235900879,2019-08-07 14:06:18:909,105.46785202264309,168.03442144575146,0,-34.03614044189453,21.441268920898438,-33.13650894165039
-0.25693029165267944,0.37499865889549255,9.781855583190918,-0.0016595545549180318,-0.006193361606560959,-0.013765778765781403,4.359041690826416,2019-08-07 14:06:18:919,106.93189003758899,168.23075883225056,0,-34.03614044189453,21.441268920898438,-33.13650894165039
-0.21621955931186676,0.4492358863353729,9.872856140136719,0.0015370192362269886,-0.005127837096204061,-0.012433872607686629,4.3690056800842285,2019-08-07 14:06:18:929,108.37102913616764,168.41317808113106,0,-34.03614044189453,21.441268920898438,-33.13650894165039
-0.23777230083942413,0.4564201235771179,9.781855583190918,0.0034016871293515603,-0.014983938817005372,-0.011901110352508182,4.379041433334351,2019-08-07 14:06:18:939,109.78420325436028,168.58956812580735,0,-34.03614044189453,21.441268920898438,-33.13650894165039
-0.19945630431175232,0.4181041419506073,9.841724395751953,-0.0013931734273288073,-0.00805802949968553,-0.016163208393935775,4.389030456542969,2019-08-07 14:06:18:949,111.16981839256792,168.76990570637687,0,-34.03614044189453,21.441268920898438,-33.13650894165039
-0.18987730145454407,0.4444463849067688,9.868066787719727,0.00020511348449834825,-0.007791648372096307,-0.013765778765781403,4.399028539657593,2019-08-07 14:06:18:959,112.52874966790829,168.9428165774168,0,-34.03614044189453,21.441268920898438,-33.13650894165039
-0.19706155359745026,0.5043151378631592,9.846513748168945,-0.0008604111071317767,-0.007258886116917857,-0.0068398684081642635,4.409021377563477,2019-08-07 14:06:18:969,113.85931708149249,169.1058031739216,0,-34.03614044189453,21.441268920898438,-33.13650894165039
-0.134798064827919,0.42768314480781555,9.860882759094238,-0.005122509213577951,-0.007258886116917857,-0.008704536821437486,4.419033050537109,2019-08-07 14:06:18:979,115.17054768531854,169.27689758341924,0,-34.03614044189453,21.441268920898438,-33.13650894165039
-0.14437706768512726,0.4588148891925812,9.848908424377441,-6.126766340918298e-05,-0.0075252672445070825,-0.005507962770218141,4.429035425186157,2019-08-07 14:06:18:989,116.45456616550852,169.4380497246567,0,-34.03614044189453,21.441268920898438,-33.13650894165039
-0.12042956799268723,0.46839389204978943,9.836935043334961,-0.0016595545549180318,-0.002996787815415939,0.0038153772155533703,4.439024209976196,2019-08-07 14:06:18:999,117.71312737275812,169.5956969740225,0,-34.03614044189453,21.441268920898438,-33.13650894165039
-0.05337657779455185,0.4181041419506073,9.839329719543457,0.00020511348449834825,-0.004328693453362062,0.00674556961903484,4.449030876159668,2019-08-07 14:06:19:009,118.95508067793605,169.75500349689412,0,-34.03614044189453,21.441268920898438,-33.13650894165039
-0.02463958039879799,0.4228936433792114,9.798619270324707,-0.0011267922997395827,-0.004062312325772837,0.014737004487008877,4.45902943611145,2019-08-07 14:06:19:019,120.1753782087079,169.9111107101709,0,-34.03614044189453,21.441268920898438,-33.13650894165039
-0.05816607549786568,0.38218289613723755,9.74593448638916,0.002336162618994662,-0.0027304066878267143,0.01953186478361492,4.4690375328063965,2019-08-07 14:06:19:029,121.36656598749582,170.06666207639603,0,-34.18608093261719,21.89108657836914,-33.586326599121094
-0.02463958039879799,0.3845776319503784,9.808197975158691,0.0012706381086377639,-0.005127837096204061,0.024326726120518262,4.47902774810791,2019-08-07 14:06:19:039,122.53923242805165,170.21970793728715,0,-34.18608093261719,21.89108657836914,-33.586326599121094
-0.012665831483900547,0.38936713337898254,9.769882202148438,0.001803400363816213,0.0009989292934781736,0.03311730281081402,4.489010572433472,2019-08-07 14:06:19:049,123.68640226297143,170.36865795260584,0,-34.18608093261719,21.89108657836914,-33.586326599121094
0.02325541339814663,0.3055509030818939,9.832145690917969,-0.0032578413204533796,-0.001132119922291367,0.0323181589078977,4.499035596847534,2019-08-07 14:06:19:059,117.61602185600006,170.52751879660636,0,-34.18608093261719,21.89108657836914,-33.586326599121094
-0.0030868323519825935,0.2935771644115448,9.721986770629883,0.003135306001762336,-0.0037959311981836125,0.03951044987295541,4.5090203285217285,2019-08-07 14:06:19:069,118.8654657346184,170.68061766311075,0,-34.18608093261719,21.89108657836914,-33.586326599121094
0.042413413524627686,0.26484015583992004,9.748329162597656,-0.0032578413204533796,-0.00033297644199582136,0.04590359693509681,4.519036769866943,2019-08-07 14:06:19:079,112.89332935625522,170.83771330019644,0,-34.18608093261719,21.89108657836914,-33.586326599121094
0.0352291613817215,0.2983666658401489,9.872856140136719,0.003668068256940785,0.002330834996442878,0.0491001725467621,4.5290398597717285,2019-08-07 14:06:19:089,107.0382425397558,170.98427871111005,0,-34.18608093261719,21.89108657836914,-33.586326599121094
0.01367641519755125,0.2792086601257324,9.801013946533203,0.0028689248741731116,0.0009989292934781736,0.051497600094321874,4.539022445678711,2019-08-07 14:06:19:099,101.29851678724332,171.1303493349059,0,-34.18608093261719,21.89108657836914,-33.586326599121094
0.03283441439270973,0.19778716564178467,9.824960708618164,0.005799117537728906,-0.001132119922291367,0.04936655107360807,4.5490334033966064,2019-08-07 14:06:19:109,95.67701239702357,171.2814171694792,0,-34.18608093261719,21.89108657836914,-33.586326599121094
-0.000692082685418427,0.26484015583992004,9.779460906982422,0.003668068256940785,-0.005394218223793286,0.05229674399723819,4.559030532836914,2019-08-07 14:06:19:119,97.36641903052488,171.42270454325538,0,-34.18608093261719,21.89108657836914,-33.586326599121094
