ACCELEROMETER X (m/s²),ACCELEROMETER Y (m/s²),ACCELEROMETER Z (m/s²),GYROSCOPE X (rad/s),GYROSCOPE Y (rad/s),GYROSCOPE Z (rad/s),Time since start in ms ,YYYY-MO-DD HH-MI-SS_SSS,Pitch (Deg),Roll (Deg),Heading (Deg),MagX,MagY,MagZ
0.11425590515136719,0.0517074353992939,9.779460906982422,-0.0008604111071317767,-0.0019312633050590406,0.006212807363856391,0.0,2019-08-07 13:18:04:197,-3.586612588608968,3.593941199338603,0,-11.845176696777344,20.541635513305664,-24.14017105102539
-0.8173017501831055,0.20497141778469086,9.872856140136719,0.040162283516887526,-0.04135567096848725,0.018199959665817448,0.010504961013793945,2019-08-07 13:18:04:207,0.01486720908103667,7.074585508407827,0,-11.845176696777344,20.541635513305664,-24.14017105102539
-2.0625715255737305,0.2792086601257324,9.851303100585938,-0.039485678313628474,0.018580084299534227,0.0014179468071760237,0.020087480545043945,2019-08-07 13:18:04:217,3.368068189524031,10.521870150799948,0,-11.845176696777344,20.541635513305664,-24.14017105102539
-1.2148301601409912,0.2552611529827118,10.536201477050781,-0.06505826656219403,0.007392076940786795,0.03311730281081402,0.030015230178833008,2019-08-07 13:18:04:227,6.765042311143212,13.919942211933954,0,-11.845176696777344,20.541635513305664,-24.14017105102539
-1.468673586845398,0.6384211182594299,10.608044624328613,-0.03335890977833306,-0.04375310267723623,0.025125867942839983,0.039978981018066406,2019-08-07 13:18:04:236,10.096570985377443,17.191325201359703,0,-11.845176696777344,20.541635513305664,-24.14017105102539
-0.9394339919090271,-0.4176635146141052,10.600859642028809,-0.045079681472853544,-0.042687580247473926,0.011540429915640882,0.05005240440368652,2019-08-07 13:18:04:247,13.417499652965315,13.31812134354913,0,-11.845176696777344,20.541635513305664,-24.14017105102539
-0.7358802556991577,0.11636567860841751,10.131488800048828,-0.0024586979376857053,0.008990363706322143,0.007811094129391739,0.05998420715332031,2019-08-07 13:18:04:257,16.661050643639715,16.63996916992126,0,-11.845176696777344,20.541635513305664,-24.14017105102539
-0.5203527808189392,0.20976091921329498,10.373358726501465,-0.013380324688992563,-0.010189078520399329,0.002483471317532922,0.06995964050292969,2019-08-07 13:18:04:266,19.876102970651292,19.891495825807354,0,-11.845176696777344,20.541635513305664,-24.14017105102539
-0.4868262708187103,-0.4655584990978241,10.471543312072754,-0.05067368463207861,-0.032032333063310346,-0.00604072502539659,0.07997679710388184,2019-08-07 13:18:04:276,23.043362134628612,15.973081118215585,0,-11.845176696777344,20.541635513305664,-24.14017105102539
-0.38145729899406433,-0.05845104902982712,9.990199089050293,-0.0024586979376857053,-0.015516702112481122,0.00061880342440835,0.09001016616821289,2019-08-07 13:18:04:287,26.147503147560748,12.061709149601864,0,-11.845176696777344,20.541635513305664,-24.14017105102539
-0.44611552357673645,0.18820816278457642,9.966251373291016,0.00020511348449834825,0.0017980727412644285,0.0027498524451221467,0.1000070571899414,2019-08-07 13:18:04:297,29.172283817042782,15.398722304241097,0,-11.845176696777344,20.541635513305664,-24.14017105102539
-0.24735130369663239,-0.2835575342178345,10.018936157226562,-0.022170903459882926,0.003929121761978225,-0.012700254255424506,0.11001777648925781,2019-08-07 13:18:04:307,32.15834452547456,11.535633365765268,0,-13.04468822479248,20.841514587402344,-25.63956069946289
-0.15156131982803345,-0.05605630204081535,9.961462020874023,0.006331879792907356,-0.0075252672445070825,-0.004708819387450467,0.11996102333068848,2019-08-07 13:18:04:316,35.10194558851586,7.707833896175284,0,-13.04468822479248,20.841514587402344,-25.63956069946289
-0.07732407003641129,0.30315616726875305,9.789039611816406,0.006598260920496581,-0.015783082719921696,-0.007372630663342713,0.1299753189086914,2019-08-07 13:18:04:326,37.9997300739917,11.114490556339476,0,-13.04468822479248,20.841514587402344,-25.63956069946289
-0.1156400665640831,-0.1255040466785431,9.84411907196045,-0.008851844999827095,-0.005926980478971734,-0.016163208393935775,0.13998126983642578,2019-08-07 13:18:04:336,40.82960485348476,7.3117826481016355,0,-13.04468822479248,20.841514587402344,-25.63956069946289
-0.019850080832839012,0.1235499233007431,9.789039611816406,-0.005122509213577951,0.0004661670057904337,-0.014032159373221978,0.14995789527893066,2019-08-07 13:18:04:346,43.61042794731081,10.753954433822472,0,-13.04468822479248,20.841514587402344,-25.63956069946289
-0.00787633191794157,0.2528664171695709,9.808197975158691,0.005799117537728906,-6.659528596096748e-05,-0.017228732904292672,0.15997552871704102,2019-08-07 13:18:04:356,46.33733663667491,14.106076951905726,0,-13.04468822479248,20.841514587402344,-25.63956069946289
0.049597661942243576,-0.05126680061221123,9.930330276489258,-0.00911822664756497,-0.014184795954386346,-0.014032159373221978,0.16997075080871582,2019-08-07 13:18:04:366,41.82427414230783,10.234988744866909,0,-13.04468822479248,20.841514587402344,-25.63956069946289
0.02325541339814663,0.05889168381690979,9.846513748168945,-0.002192316810096481,-0.011254603030756228,-0.011101966449591856,0.17997360229492188,2019-08-07 13:18:04:376,37.39681631450538,13.624666701113089,0,-13.04468822479248,20.841514587402344,-25.63956069946289
0.04001866281032562,0.1498921662569046,9.791434288024902,-0.006454414851524075,-0.0021976444326482656,-0.010569204194413408,0.18998146057128906,2019-08-07 13:18:04:386,33.05479838853132,16.9382594821856,0,-13.04468822479248,20.841514587402344,-25.63956069946289
0.049597661942243576,-0.04408255219459534,10.018936157226562,-0.0032578413204533796,0.0007325481658889489,-0.009237299076615935,0.20001864433288574,2019-08-07 13:18:04:397,28.798962251595935,13.006372276284482,0,-13.04468822479248,20.841514587402344,-25.63956069946289
0.0807294100522995,0.0780496820807457,9.927935600280762,0.00047149462834221814,-0.014717558209564796,-0.005241581642628916,0.20998358726501465,2019-08-07 13:18:04:407,24.640535778322008,16.336972445059725,0,-13.04468822479248,20.841514587402344,-25.63956069946289
0.042413413524627686,0.13552367687225342,9.829751014709473,0.002336162618994662,-0.010721840775577777,0.00035242226430983473,0.21998119354248047,2019-08-07 13:18:04:416,20.558688287022022,19.59312371582634,0,-13.04468822479248,20.841514587402344,-25.63956069946289
0.01607116498053074,0.06128643453121185,9.848908424377441,-0.004323365830810277,-0.00246402556023749,-0.00257777036673667,0.2299802303314209,2019-08-07 13:18:04:426,16.550767805398067,22.796558017613346,0,-13.04468822479248,20.841514587402344,-25.63956069946289
0.11665065586566925,0.13312892615795135,9.841724395751953,0.003135306001762336,0.0012653104860859794,0.0016843279347652483,0.23998212814331055,2019-08-07 13:18:04:436,12.63262336122337,25.923366207537427,0,-11.545299530029297,21.741147994995117,-24.739927291870117
0.152571901679039,0.14031317830085754,9.848908424377441,0.007930166558442704,-0.0048614559686148365,0.004614520598321043,0.2499849796295166,2019-08-07 13:18:04:447,8.800451618254044,28.984120571891978,0,-11.545299530029297,21.741147994995117,-24.739927291870117
0.12383490055799484,0.07326018065214157,9.791434288024902,-0.0011267922997395827,-0.009922697912958753,-0.005241581642628916,0.25998783111572266,2019-08-07 13:18:04:457,5.044507685744576,31.996497374417192,0,-11.545299530029297,21.741147994995117,-24.739927291870117
0.07833465933799744,0.08523393422365189,9.812987327575684,-0.00032764881944403687,-0.004062312325772837,0.006479188491445616,0.269986629486084,2019-08-07 13:18:04:467,1.3550456082189708,34.946798402109835,0,-11.545299530029297,21.741147994995117,-24.739927291870117
0.13101914525032043,0.1498921662569046,9.820171356201172,0.002602543746583887,0.00019978586194656375,-0.00018034003963255039,0.2799808979034424,2019-08-07 13:18:04:476,-2.256879704869944,37.828912391276745,0,-11.545299530029297,21.741147994995117,-24.739927291870117
0.10228215157985687,0.16186591982841492,9.86567211151123,-6.126766340918298e-05,-0.002996787815415939,0.0008851845519975746,0.28998708724975586,2019-08-07 13:18:04:487,-5.798178546453604,40.65356923497646,0,-11.545299530029297,21.741147994995117,-24.739927291870117
0.13101914525032043,0.10918142646551132,9.853697776794434,-0.0024586979376857053,-0.011254603030756228,-0.0007131023435749355,0.2999851703643799,2019-08-07 13:18:04:497,-9.260661037422233,43.42918163051044,0,-11.545299530029297,21.741147994995117,-24.739927291870117
0.10946640372276306,0.12115518003702164,9.853697776794434,-0.0008604111071317767,-0.005127837096204061,0.001950709062354473,0.30998945236206055,2019-08-07 13:18:04:507,-12.659837662774468,46.14699254099034,0,-11.545299530029297,21.741147994995117,-24.739927291870117
0.07593990862369537,0.12115518003702164,9.817776679992676,0.0034016871293515603,-0.003529550070594388,0.0008851845519975746,0.31998515129089355,2019-08-07 13:18:04:517,-15.995796513360354,48.80800314299881,0,-11.545299530029297,21.741147994995117,-24.739927291870117
0.107071653008461,0.12115518003702164,9.808197975158691,0.00047149462834221814,-0.0005993576020943366,-0.0031105326219151193,0.3299870491027832,2019-08-07 13:18:04:527,-19.2630350363697,51.417424152237324,0,-11.545299530029297,21.741147994995117,-24.739927291870117
0.1262296438217163,0.1498921662569046,9.887224197387695,0.002602543746583887,-0.006193361606560959,0.00035242226430983473,0.3399832248687744,2019-08-07 13:18:04:537,-22.45966905532953,53.97024393951813,0,-11.545299530029297,21.741147994995117,-24.739927291870117
0.11425590515136719,0.09481292963027954,9.801013946533203,0.0020697814914054373,-0.006992504989328633,0.002483471317532922,0.3499884605407715,2019-08-07 13:18:04:547,-25.593189362203972,56.47859127422142,0,-11.545299530029297,21.741147994995117,-24.739927291870117
0.09988740086555481,0.1307341754436493,9.793828964233398,0.006065498665318131,-0.0048614559686148365,-0.00257777036673667,0.3599820137023926,2019-08-07 13:18:04:556,-28.66691082965275,58.930320383116914,0,-10.94554328918457,22.340904235839844,-24.14017105102539
0.10467690229415894,0.09481292963027954,9.793828964233398,0.0015370192362269886,-0.0013985010498805918,-0.0004467211834764202,0.36998653411865234,2019-08-07 13:18:04:567,-31.680539868533735,61.33975742087456,0,-10.94554328918457,22.340904235839844,-24.14017105102539
0.13580864667892456,0.11397092789411545,9.858488082885742,0.002602543746583887,-0.0048614559686148365,-0.003909676004682793,0.37998414039611816,2019-08-07 13:18:04:577,-34.62841510808438,63.69825431232699,0,-10.94554328918457,22.340904235839844,-24.14017105102539
0.10228215157985687,0.1498921662569046,9.848908424377441,-0.00032764881944403687,-0.0048614559686148365,-0.006573487280575038,0.3899819850921631,2019-08-07 13:18:04:586,-37.5212176437448,66.0070346282046,0,-10.94554328918457,22.340904235839844,-24.14017105102539
0.0807294100522995,0.05889168381690979,9.8034086227417,0.0010042569160299579,-0.0075252672445070825,-0.0031105326219151193,0.3999898433685303,2019-08-07 13:18:04:597,-40.3571283355339,68.27944586660922,0,-10.94554328918457,22.340904235839844,-24.14017105102539
0.09270315617322922,0.11157617717981339,9.801013946533203,-0.0029914601928641544,-0.0016648821774698163,-0.0033769137495043436,0.4099845886230469,2019-08-07 13:18:04:607,-43.138213080497756,70.50249106018295,0,-10.94554328918457,22.340904235839844,-24.14017105102539
0.09509790688753128,0.11397092789411545,9.880040168762207,0.0007378757884407334,-0.005926980478971734,0.00035242226430983473,0.4199857711791992,2019-08-07 13:18:04:617,-45.86109104459625,72.67880878266854,0,-10.94554328918457,22.340904235839844,-24.14017105102539
0.10228215157985687,0.10918142646551132,9.801013946533203,-0.0032578413204533796,-0.00246402556023749,-0.007639012311080588,0.42998695373535156,2019-08-07 13:18:04:627,-48.53052731589808,74.81429734363586,0,-10.94554328918457,22.340904235839844,-24.14017105102539
0.11186115443706512,0.14031317830085754,9.812987327575684,-0.0037906035756318283,-0.005394218223793286,-0.004975200515039691,0.4399831295013428,2019-08-07 13:18:04:637,-51.14382701559817,76.9037549895633,0,-10.94554328918457,22.340904235839844,-24.14017105102539
0.061571408063173294,0.10199718177318573,9.796224594116211,-0.0008604111071317767,-0.006459742734150184,-0.002844151494325895,0.44999074935913086,2019-08-07 13:18:04:647,-53.71011834014144,78.95423266524622,0,-10.94554328918457,22.340904235839844,-24.14017105102539
0.04720291122794151,0.1043919250369072,9.863277435302734,0.004999974154961233,-0.00246402556023749,-0.010302823586972834,0.45998406410217285,2019-08-07 13:18:04:657,-56.22904935883109,80.96021460892341,0,-10.94554328918457,22.340904235839844,-24.14017105102539
0.0807294100522995,0.10199718177318573,9.901593208312988,-0.0013931734273288073,-0.0048614559686148365,-0.004975200515039691,0.4699862003326416,2019-08-07 13:18:04:667,-58.69239544569169,82.92998898913876,0,-10.94554328918457,22.340904235839844,-24.14017105102539
0.08791365474462509,0.12115518003702164,9.798619270324707,0.001803400363816213,-0.005926980478971734,-0.0041760571322720175,0.47998571395874023,2019-08-07 13:18:04:677,-61.10493877658406,84.85620868263267,0,-10.94554328918457,22.340904235839844,-24.14017105102539
0.06396616250276566,0.034944187849760056,9.801013946533203,0.0028689248741731116,-0.006992504989328633,-0.007372630663342713,0.48998594284057617,2019-08-07 13:18:04:687,-63.4714349353591,86.75338798516553,0,-12.744811058044434,21.14139175415039,-25.33968162536621
0.04001866281032562,0.042128436267375946,9.810592651367188,-0.0037906035756318283,0.002330834996442878,-0.012167492000246055,0.4999887943267822,2019-08-07 13:18:04:697,-65.798641060121,88.61552851525583,0,-12.744811058044434,21.14139175415039,-25.33968162536621
0.004097416531294584,0.03973368555307388,9.839329719543457,0.00020511348449834825,-0.00033297644199582136,-0.00950367968405651,0.5099828243255615,2019-08-07 13:18:04:707,-68.08200418826821,90.43847537285296,0,-12.744811058044434,21.14139175415039,-25.33968162536621
0.107071653008461,0.08044443279504776,9.8848295211792,-6.126766340918298e-05,-0.003529550070594388,-0.0068398684081642635,0.5199871063232422,2019-08-07 13:18:04:717,-70.30596944116623,92.2204148306998,0,-12.744811058044434,21.14139175415039,-25.33968162536621
0.09030840545892715,0.11876042932271957,9.858488082885742,-0.0019259356825072562,-0.003263168943005164,-0.012433872607686629,0.5299842357635498,2019-08-07 13:18:04:727,-72.48752147914594,93.96328401172063,0,-12.744811058044434,21.14139175415039,-25.33968162536621
0.07833465933799744,0.14031317830085754,9.839329719543457,0.003135306001762336,-0.0021976444326482656,-0.014564921628400425,0.539987325668335,2019-08-07 13:18:04:737,-74.62741381527886,95.66591716369166,0,-12.744811058044434,21.14139175415039,-25.33968162536621
0.11425590515136719,0.16186591982841492,9.820171356201172,-0.0029914601928641544,-0.0037959311981836125,-0.013499397118043528,0.5499861240386963,2019-08-07 13:18:04:747,-76.71940246725825,97.33539189889623,0,-12.744811058044434,21.14139175415039,-25.33968162536621
0.10228215157985687,0.14749743044376373,9.793828964233398,0.00393444938453001,-0.004595074841025611,-0.008171774566259036,0.5599837303161621,2019-08-07 13:18:04:757,-78.77046793788294,98.96921894068443,0,-12.744811058044434,21.14139175415039,-25.33968162536621
0.061571408063173294,0.10678667575120926,9.875250816345215,0.006331879792907356,-0.001132119922291367,-0.016695970649114225,0.56998610496521,2019-08-07 13:18:04:767,-80.78727814385161,100.57388742488807,0,-12.744811058044434,21.14139175415039,-25.33968162536621
0.09988740086555481,0.06847068667411804,9.901593208312988,-0.0019259356825072562,-0.0021976444326482656,-0.0158968277864952,0.579984188079834,2019-08-07 13:18:04:777,-82.75873922392219,102.15556686399607,0,-12.744811058044434,21.14139175415039,-25.33968162536621
0.11425590515136719,0.06128643453121185,9.8034086227417,0.004200830512119234,-0.008324410627274756,-0.018560639062387443,0.5899837017059326,2019-08-07 13:18:04:787,-84.68553580988582,103.70293323309363,0,-12.744811058044434,21.14139175415039,-25.33968162536621
0.17651939392089844,0.13312892615795135,9.70522403717041,0.003135306001762336,-0.004595074841025611,-0.011634728704770307,0.5999877452850342,2019-08-07 13:18:04:797,-86.56840421513883,105.21139556855394,0,-12.744811058044434,21.14139175415039,-25.33968162536621
1.175130009651184,0.7078688740730286,11.139678955078125,0.06227192178813103,0.028702568188222064,0.01420424223183043,0.6099848747253418,2019-08-07 13:18:04:807,-88.33271021436425,106.59949287060277,0,-11.845176696777344,21.441268920898438,-25.33968162536621
0.7895753383636475,0.9473438262939453,8.239636421203613,0.04096142741980385,0.002064453868853653,-0.005241581642628916,0.6199862957000732,2019-08-07 13:18:04:817,-90.05774058295279,107.91332545428573,0,-11.845176696777344,21.441268920898438,-25.33968162536621
0.7512593269348145,0.7821061015129089,8.982008934020996,0.0268432281777236,0.022575801733521247,0.005680045108677942,0.6299829483032227,2019-08-07 13:18:04:827,-91.77363547507527,109.24046228862915,0,-11.845176696777344,21.441268920898438,-25.33968162536621
0.8901547789573669,-0.5014797449111938,9.482511520385742,0.010327597226894376,0.017780940396617904,-0.021224451378576994,0.6399831771850586,2019-08-07 13:18:04:837,-93.44089039267875,103.51039897481019,0,-11.845176696777344,21.441268920898438,-25.33968162536621
0.29865163564682007,-0.05126680061221123,10.5242280960083,-0.002192316810096481,-0.02057794405682504,0.003016233572711371,0.6499848365783691,2019-08-07 13:18:04:847,-95.12800664641308,97.8470042509181,0,-11.845176696777344,21.441268920898438,-25.33968162536621
0.6027848124504089,0.05410218611359596,9.489696502685547,-0.005122509213577951,-0.0440194853652714,0.002483471317532922,0.6599810123443604,2019-08-07 13:18:04:856,-96.72804827090498,99.48640638165776,0,-11.845176696777344,21.441268920898438,-25.33968162536621
0.1453876495361328,-0.05605630204081535,9.595065116882324,-0.00965098890274342,0.01405160565066606,-0.015097683883578876,0.6699838638305664,2019-08-07 13:18:04:867,-98.38401754347328,93.90879340978955,0,-11.845176696777344,21.441268920898438,-25.33968162536621
0.5285475850105286,-0.33145251870155334,9.712408065795898,-0.004056984703221053,0.018580084299534227,-0.020958068690541815,0.6799867153167725,2019-08-07 13:18:04:877,-99.96447378063232,88.47198733894508,0,-11.845176696777344,21.441268920898438,-25.33968162536621
0.45670512318611145,0.755763828754425,9.925540924072266,0.01885179330974956,-0.016315844975100142,-0.0009794834711641602,0.6900427341461182,2019-08-07 13:18:04:887,-101.50328167024534,90.20481724191488,0,-11.845176696777344,21.441268920898438,-25.33968162536621
0.5333371162414551,0.03973368555307388,9.824960708618164,-0.0056552714687564,-0.018180512348076064,-0.01882701966982802,0.7000255584716797,2019-08-07 13:18:04:897,-103.00088147069845,91.99925663278414,0,-11.845176696777344,21.441268920898438,-25.33968162536621
0.24117763340473175,-0.00816130731254816,9.710013389587402,-0.006987177626851173,0.012186937237392836,-0.003643294877093568,0.7100248336791992,2019-08-07 13:18:04:907,-104.51924985558846,86.5641576531731,0,-11.845176696777344,21.441268920898438,-25.33968162536621
0.4423366189002991,0.3247089087963104,9.832145690917969,0.009262072716537477,0.017780940396617904,0.001950709062354473,0.7200207710266113,2019-08-07 13:18:04:917,-105.98732612662404,88.38984559104223,0,-11.845176696777344,21.441268920898438,-25.33968162536621
0.3178096413612366,0.1570764183998108,9.918355941772461,-0.0005940299795425521,-0.005127837096204061,0.0011515656795867992,0.7300233840942383,2019-08-07 13:18:04:927,-107.42799405329377,90.20423603272938,0,-11.845176696777344,21.441268920898438,-25.33968162536621
0.30104637145996094,-0.012950805947184563,9.853697776794434,0.006598260920496581,-0.014983938817005372,0.009942143150105534,0.7400226593017578,2019-08-07 13:18:04:937,-108.83602263648487,84.79795275264706,0,-11.395359992980957,21.89108657836914,-24.589988708496094
0.1405981481075287,0.21215566992759705,9.686065673828125,0.004467211899782784,-0.0016648821774698163,0.02006462599849607,0.7500264644622803,2019-08-07 13:18:04:947,-110.24173462197783,86.6743892233653,0,-11.395359992980957,21.89108657836914,-24.589988708496094
0.10946640372276306,0.027759937569499016,9.753118515014648,-0.00272507906527493,0.013785224002928184,0.01313871668117623,0.7600209712982178,2019-08-07 13:18:04:957,-111.63177515087534,88.53916915855059,0,-11.395359992980957,21.89108657836914,-24.589988708496094
0.15017715096473694,0.025365188717842102,9.896803855895996,0.0007378757884407334,-6.659528596096748e-05,0.015003385094449453,0.7700221538543701,2019-08-07 13:18:04:967,-112.98171510848141,90.36503447190738,0,-11.395359992980957,21.89108657836914,-24.589988708496094
0.10467690229415894,0.22652415931224823,9.8848295211792,0.004733593027372009,-0.011254603030756228,0.01313871668117623,0.7800183296203613,2019-08-07 13:18:04:977,-114.30362938525899,92.12882129183478,0,-11.395359992980957,21.89108657836914,-24.589988708496094
0.07115040719509125,0.04452318698167801,9.817776679992676,-0.00032764881944403687,-0.009922697912958753,0.015003385094449453,0.7900218963623047,2019-08-07 13:18:04:987,-115.60367880970138,93.88123226462515,0,-11.395359992980957,21.89108657836914,-24.589988708496094
0.042413413524627686,0.08044443279504776,9.760302543640137,-0.0056552714687564,0.006060170782692022,0.01020852479784341,0.8000195026397705,2019-08-07 13:18:04:997,-116.89002764956098,95.59733786175622,0,-11.395359992980957,21.89108657836914,-24.589988708496094
0.05917666107416153,0.15947116911411285,9.8034086227417,0.0034016871293515603,0.0031299783792105513,0.016868053507722677,0.8100228309631348,2019-08-07 13:18:05:007,-118.14706811345326,97.26484156384491,0,-11.395359992980957,21.89108657836914,-24.589988708496094
0.08551890403032303,0.09481292963027954,9.90638256072998,0.001803400363816213,-0.010189078520399329,0.014470622839271002,0.8200228214263916,2019-08-07 13:18:05:017,-119.36851349441706,98.90756502579754,0,-11.395359992980957,21.89108657836914,-24.589988708496094
0.06396616250276566,0.04452318698167801,9.805803298950195,0.004733593027372009,-0.015516702112481122,0.013937860584092555,0.8300228118896484,2019-08-07 13:18:05:027,-120.5649555845662,100.52155283514034,0,-11.395359992980957,21.89108657836914,-24.589988708496094
0.006492166314274073,0.0780496820807457,9.822566032409668,0.0020697814914054373,-0.0027304066878267143,0.010474905405283983,0.8400237560272217,2019-08-07 13:18:05:037,-121.75136582253704,102.1008542854522,0,-11.395359992980957,21.89108657836914,-24.589988708496094
0.07115040719509125,0.03015468828380108,9.882434844970703,-0.002192316810096481,-0.0013985010498805918,0.015003385094449453,0.8500502109527588,2019-08-07 13:18:05:047,-122.90730108476356,103.65657486971328,0,-11.395359992980957,21.89108657836914,-24.589988708496094
0.08551890403032303,0.10199718177318573,9.892014503479004,0.0015370192362269886,-0.005127837096204061,0.017400815762901124,0.8600177764892578,2019-08-07 13:18:05:057,-124.03637865230841,105.17076794852525,0,-11.245421409606934,21.741147994995117,-25.039804458618164
0.049597661942243576,0.10678667575120926,9.822566032409668,0.004467211899782784,-0.00859079175486398,0.01074128705302186,0.8700249195098877,2019-08-07 13:18:05:067,-125.14503782579514,106.6523850581449,0,-11.245421409606934,21.741147994995117,-25.039804458618164
0.008886916562914848,0.06847068667411804,9.810592651367188,-0.002192316810096481,-0.003529550070594388,0.01074128705302186,0.880021333694458,2019-08-07 13:18:05:077,-126.23911791604111,108.11257038434351,0,-11.245421409606934,21.741147994995117,-25.039804458618164
0.01607116498053074,0.11157617717981339,9.769882202148438,0.0020697814914054373,0.0012653104860859794,0.0075447130018025145,0.8900272846221924,2019-08-07 13:18:05:087,-127.31316145534626,109.53606983490813,0,-11.245421409606934,21.741147994995117,-25.039804458618164
0.05917666107416153,0.14749743044376373,9.848908424377441,0.002602543746583887,-0.006726123861739408,0.008610237512159412,0.900022029876709,2019-08-07 13:18:05:097,-128.35623840921647,110.92672791155968,0,-11.245421409606934,21.741147994995117,-25.039804458618164
0.03043966367840767,0.12833942472934723,9.882434844970703,0.004733593027372009,-0.004328693453362062,0.005413663981088718,0.9100196361541748,2019-08-07 13:18:05:107,-129.38315405391486,112.29065534985821,0,-11.245421409606934,21.741147994995117,-25.039804458618164
0.028044912964105606,0.13791842758655548,9.75790786743164,0.0012706381086377639,-0.0075252672445070825,0.0075447130018025145,0.9200229644775391,2019-08-07 13:18:05:117,-130.3879707062908,113.62793323273702,0,-11.245421409606934,21.741147994995117,-25.039804458618164
0.004097416531294584,0.13552367687225342,9.73396110534668,-6.126766340918298e-05,-0.0021976444326482656,0.007011950746624065,0.9300236701965332,2019-08-07 13:18:05:127,-131.378494868696,114.93945568669507,0,-11.245421409606934,21.741147994995117,-25.039804458618164
0.006492166314274073,0.13552367687225342,9.832145690917969,0.002602543746583887,-0.005127837096204061,0.004348139470731819,0.940021276473999,2019-08-07 13:18:05:137,-132.3472897389743,116.22341160296078,0,-11.245421409606934,21.741147994995117,-25.039804458618164
0.018465915694832802,0.08283918350934982,9.863277435302734,0.0012706381086377639,-0.00805802949968553,0.0048809017259102685,0.9500174522399902,2019-08-07 13:18:05:147,-133.29367573428607,117.48860615197263,0,-11.245421409606934,21.741147994995117,-25.039804458618164
0.054387159645557404,0.13791842758655548,9.772276878356934,-0.0008604111071317767,-0.011254603030756228,0.0022170901899436976,0.9600217342376709,2019-08-07 13:18:05:157,-134.2151025944104,118.72314585455993,0,-11.245421409606934,21.741147994995117,-25.039804458618164
0.01607116498053074,0.19060291349887848,9.853697776794434,0.0010042569160299579,-0.00805802949968553,0.003548996087964146,0.970017671585083,2019-08-07 13:18:05:167,-135.12440884655956,119.92595626634872,0,-11.245421409606934,21.741147994995117,-25.039804458618164
-0.012665831483900547,0.13552367687225342,9.841724395751953,0.001803400363816213,-0.004595074841025611,0.006479188491445616,0.9800267219543457,2019-08-07 13:18:05:177,-128.82081294432754,121.11064499265363,0,-11.245421409606934,21.741147994995117,-25.039804458618164
0.006492166314274073,0.13791842758655548,9.808197975158691,0.004200830512119234,-0.007258886116917857,0.007011950746624065,0.990023136138916,2019-08-07 13:18:05:187,-129.83956379684327,122.26996189502874,0,-11.845176696777344,21.14139175415039,-25.939437866210938
-0.022244829684495926,0.10678667575120926,9.839329719543457,0.0020697814914054373,-0.008857173402601856,0.003016233572711371,1.0000231266021729,2019-08-07 13:18:05:197,-123.64038992489706,123.41096429499468,0,-11.845176696777344,21.14139175415039,-25.939437866210938
-0.11324531584978104,-0.06324055045843124,9.688460350036621,-0.0005940299795425521,-0.00566059935138251,-0.010569204194413408,1.0100221633911133,2019-08-07 13:18:05:207,-117.57779764477901,117.35055827834896,0,-11.845176696777344,21.14139175415039,-25.939437866210938
1.893554925918579,-0.9516927003860474,9.8034086227417,0.01352417075796507,-0.0115209846784941,-0.04333408340803668,1.020019769668579,2019-08-07 13:18:05:217,-118.60113004502087,111.50685052514906,0,-11.845176696777344,21.14139175415039,-25.939437866210938
1.0673662424087524,0.8228168487548828,8.009740829467773,0.037498473281292584,0.034562954035482304,-0.026285691242326308,1.030022144317627,2019-08-07 13:18:05:227,-119.69671046526427,112.73834815215874,0,-11.845176696777344,21.14139175415039,-25.939437866210938
1.450526237487793,0.8874750733375549,9.384326934814453,0.034035519142781315,0.012453318885130711,-0.03134693318667023,1.0400264263153076,2019-08-07 13:18:05:237,-120.73403942104109,113.95641430211768,0,-11.845176696777344,21.14139175415039,-25.939437866210938
1.057787299156189,0.8323958516120911,9.173588752746582,0.08145135881336599,-0.00033297644199582136,-0.004975200515039691,1.0500197410583496,2019-08-07 13:18:05:247,-121.78761964828884,115.12788729603956,0,-11.845176696777344,21.14139175415039,-25.939437866210938
0.5979953408241272,0.8036588430404663,8.759297370910645,0.04548990814926662,0.039091434764945074,-0.0015122457263426093,1.0600264072418213,2019-08-07 13:18:05:257,-122.89572146549051,116.29492665161071,0,-11.845176696777344,21.14139175415039,-25.939437866210938
0.770417332649231,0.3079456388950348,9.583091735839844,0.004467211899782784,0.02737066307042459,-0.0068398684081642635,1.0700204372406006,2019-08-07 13:18:05:267,-123.96124010297865,117.52971079069556,0,-11.845176696777344,21.14139175415039,-25.939437866210938
0.4662840962409973,0.1690501719713211,9.580697059631348,0.028441513902961645,-0.013119271444029449,-0.016695970649114225,1.0800259113311768,2019-08-07 13:18:05:277,-125.01891808375801,118.74292052572126,0,-11.845176696777344,21.14139175415039,-25.939437866210938
0.18849314749240875,0.5857366323471069,9.508853912353516,0.031371706826591766,-0.01604946436765957,-0.021490831986017565,1.0900049209594727,2019-08-07 13:18:05:287,-126.0868344796296,119.87998565301743,0,-11.845176696777344,21.14139175415039,-25.939437866210938
0.1453876495361328,-0.4248477518558502,9.674092292785645,-0.004056984703221053,-0.004062312325772837,-0.025486549420004584,1.1000254154205322,2019-08-07 13:18:05:297,-127.1455919707858,113.9349603517297,0,-11.845176696777344,21.14139175415039,-25.939437866210938
0.1789141446352005,-0.15903054177761078,9.908777236938477,0.003668068256940785,0.014317986258106635,-0.024953786124528834,1.1100280284881592,2019-08-07 13:18:05:307,-128.19003321213663,108.07259074079657,0,-13.494505882263184,21.291330337524414,-24.88986587524414
0.12144014984369278,0.29118239879608154,9.765092849731445,0.011659502344691848,-0.004595074841025611,-0.028949503558515853,1.1200206279754639,2019-08-07 13:18:05:317,-129.2094042866058,109.47043738213328,0,-13.494505882263184,21.291330337524414,-24.88986587524414
0.11665065586566925,-0.022529805079102516,9.8034086227417,-0.005122509213577951,-0.00912355401004243,-0.03694093634589529,1.1300327777862549,2019-08-07 13:18:05:327,-130.20645251946542,103.68654190421954,0,-13.494505882263184,21.291330337524414,-24.88986587524414
0.18130889534950256,0.06368118524551392,9.743539810180664,0.0071310231756750294,-0.00566059935138251,-0.0316133158747054,1.1400208473205566,2019-08-07 13:18:05:337,-131.1778279754417,105.20132249040967,0,-13.494505882263184,21.291330337524414,-24.88986587524414
0.1980721354484558,0.40852513909339905,9.630986213684082,0.009262072716537477,0.01591627302364198,-0.038272845624881965,1.1500272750854492,2019-08-07 13:18:05:347,-132.1396503964002,106.64351397208561,0,-13.494505882263184,21.291330337524414,-24.88986587524414
0.49023160338401794,0.15228691697120667,9.753118515014648,0.005266355282550457,0.00019978586194656375,-0.04653065901970198,1.1600215435028076,2019-08-07 13:18:05:357,-133.03941953569975,108.0897972614069,0,-13.494505882263184,21.291330337524414,-24.88986587524414
0.4471261203289032,0.22652415931224823,9.595065116882324,0.020716461723022786,0.00019978586194656375,-0.043866848784107036,1.1700193881988525,2019-08-07 13:18:05:367,-133.92538270347342,109.4893233461506,0,-13.494505882263184,21.291330337524414,-24.88986587524414
0.48304736614227295,0.4396568834781647,9.456170082092285,0.02231474744826083,0.0009989292934781736,-0.03747370172196564,1.1800167560577393,2019-08-07 13:18:05:377,-134.788950092574,110.83377041110083,0,-13.494505882263184,21.291330337524414,-24.88986587524414
0.4088101089000702,0.17144492268562317,9.578302383422852,0.001803400363816213,0.0009989292934781736,-0.04013751195756059,1.1900238990783691,2019-08-07 13:18:05:387,-135.64485340062075,112.19557277408265,0,-13.494505882263184,21.291330337524414,-24.88986587524414
0.2818883955478668,0.01818094030022621,9.791434288024902,0.00020511348449834825,0.0031299783792105513,-0.038272845624881965,1.2000243663787842,2019-08-07 13:18:05:397,-136.50073291222432,113.54941838464894,0,-13.494505882263184,21.291330337524414,-24.88986587524414
0.33936238288879395,0.18102392554283142,9.846513748168945,-6.126766340918298e-05,-0.011787365285934675,-0.03321160159994345,1.2100205421447754,2019-08-07 13:18:05:407,-137.32462357523292,114.85739961266077,0,-13.494505882263184,21.291330337524414,-24.88986587524414
0.3297833800315857,0.07086542993783951,9.836935043334961,-0.003524222448042604,-0.011787365285934675,-0.0316133158747054,1.2200284004211426,2019-08-07 13:18:05:417,-138.13310486033618,116.15397697098028,0,-13.494505882263184,21.291330337524414,-24.88986587524414
0.29386213421821594,0.04452318698167801,9.755513191223145,-0.0024586979376857053,-0.0027304066878267143,-0.03321160159994345,1.2300176620483398,2019-08-07 13:18:05:427,-138.93440368374502,117.42704669672466,0,-13.494505882263184,21.291330337524414,-24.88986587524414
0.37767836451530457,0.1690501719713211,9.743539810180664,0.00393444938453001,0.006326551910281247,-0.028949503558515853,1.2400221824645996,2019-08-07 13:18:05:437,-139.71487389713124,118.65641596391485,0,-11.69523811340332,21.89108657836914,-24.88986587524414
0.4279681146144867,0.08762867748737335,9.791434288024902,-0.004323365830810277,-0.006726123861739408,-0.03134693318667023,1.2500312328338623,2019-08-07 13:18:05:447,-140.46674199151127,119.87546228025504,0,-11.69523811340332,21.89108657836914,-24.88986587524414
0.3561256229877472,0.1043919250369072,9.829751014709473,-0.0016595545549180318,-0.00859079175486398,-0.023621881006731363,1.2600157260894775,2019-08-07 13:18:05:457,-141.21109327110662,121.06671426479556,0,-11.69523811340332,21.89108657836914,-24.88986587524414
0.34415188431739807,0.09002342820167542,9.762697219848633,-0.00032764881944403687,-0.0075252672445070825,-0.014032159373221978,1.27001953125,2019-08-07 13:18:05:467,-141.94226559365478,122.2349976482252,0,-11.69523811340332,21.89108657836914,-24.88986587524414
0.3369676172733307,0.14510267972946167,9.765092849731445,-0.003524222448042604,0.0004661670057904337,-0.016163208393935775,1.2800226211547852,2019-08-07 13:18:05:477,-142.664155271958,123.37525087470033,0,-11.69523811340332,21.89108657836914,-24.88986587524414
0.3417571187019348,0.09002342820167542,9.750723838806152,-0.00032764881944403687,-0.007791648372096307,-0.012700254255424506,1.290024995803833,2019-08-07 13:18:05:487,-143.36634889656554,124.49735052539197,0,-11.69523811340332,21.89108657836914,-24.88986587524414
0.34654662013053894,0.06128643453121185,9.841724395751953,0.0012706381086377639,-0.00912355401004243,-0.010036441939234959,1.3000211715698242,2019-08-07 13:18:05:497,-144.05356771971012,125.59955456719956,0,-11.69523811340332,21.89108657836914,-24.88986587524414
0.2842831313610077,0.07326018065214157,9.829751014709473,0.0015370192362269886,-0.006992504989328633,-0.002844151494325895,1.3100287914276123,2019-08-07 13:18:05:507,-144.73543566289433,126.67815954442848,0,-11.69523811340332,21.89108657836914,-24.88986587524414
0.3154148757457733,0.05410218611359596,9.781855583190918,-0.0011267922997395827,-0.001132119922291367,-0.0023113892391474454,1.3200221061706543,2019-08-07 13:18:05:517,-145.40315456452683,127.73889077567517,0,-11.69523811340332,21.89108657836914,-24.88986587524414
0.3178096413612366,0.08283918350934982,9.808197975158691,0.002602543746583887,-0.0013985010498805918,-0.00257777036673667,1.3300225734710693,2019-08-07 13:18:05:527,-146.05718869433122,128.7729734942227,0,-11.69523811340332,21.89108657836914,-24.88986587524414
0.2627303898334503,0.08044443279504776,9.853697776794434,0.0007378757884407334,-0.0037959311981836125,0.0038153772155533703,1.3400232791900635,2019-08-07 13:18:05:537,-146.7033669048861,129.78774476621498,0,-11.69523811340332,21.89108657836914,-24.88986587524414
0.24836188554763794,0.09002342820167542,9.812987327575684,0.0020697814914054373,-0.006459742734150184,0.008077475256980963,1.3500256538391113,2019-08-07 13:18:05:547,-147.33667519877335,130.78031518784252,0,-11.69523811340332,21.89108657836914,-24.88986587524414
0.22920389473438263,0.07086542993783951,9.753118515014648,-0.002192316810096481,-0.005394218223793286,0.008343856384570188,1.3600220680236816,2019-08-07 13:18:05:557,-147.95998921513961,131.7576134350969,0,-11.845176696777344,22.041025161743164,-25.939437866210938
0.15496665239334106,0.09241817891597748,9.781855583190918,-0.002192316810096481,-0.002996787815415939,0.012073192170819333,1.3700273036956787,2019-08-07 13:18:05:567,-148.580953488853,132.71286659828,0,-11.845176696777344,22.041025161743164,-25.939437866210938
0.13580864667892456,0.08523393422365189,9.769882202148438,0.00047149462834221814,-0.00912355401004243,0.011007667660462434,1.3800241947174072,2019-08-07 13:18:05:577,-149.18828509342077,133.64834771722752,0,-11.845176696777344,22.041025161743164,-25.939437866210938
0.16933514177799225,0.10918142646551132,9.810592651367188,0.0028689248741731116,-0.004328693453362062,0.015802528997365776,1.3900229930877686,2019-08-07 13:18:05:587,-149.78231208516763,134.5610177678808,0,-11.845176696777344,22.041025161743164,-25.939437866210938
0.08791365474462509,0.1235499233007431,9.81538200378418,0.002602543746583887,-0.005926980478971734,0.01074128705302186,1.4000217914581299,2019-08-07 13:18:05:597,-150.3730748781657,135.4539129524011,0,-11.845176696777344,22.041025161743164,-25.939437866210938
0.08551890403032303,0.09481292963027954,9.789039611816406,0.0012706381086377639,-0.005127837096204061,0.01606890960480635,1.410048484802246,2019-08-07 13:18:05:607,-150.952715740351,136.3330207700255,0,-11.845176696777344,22.041025161743164,-25.939437866210938
0.054387159645557404,0.13312892615795135,9.829751014709473,0.004467211899782784,-0.005926980478971734,0.017134434115163247,1.4200325012207031,2019-08-07 13:18:05:617,-151.5239985665356,137.18833730719268,0,-11.845176696777344,22.041025161743164,-25.939437866210938
0.07593990862369537,0.1307341754436493,9.827356338500977,0.0034016871293515603,-0.002996787815415939,0.01926548417617435,1.4300217628479004,2019-08-07 13:18:05:627,-152.0829829385281,138.0274192539151,0,-11.845176696777344,22.041025161743164,-25.939437866210938
0.028044912964105606,0.10678667575120926,9.839329719543457,0.00393444938453001,-0.005394218223793286,0.02192929441176929,1.4400193691253662,2019-08-07 13:18:05:637,-152.63502897919452,138.85222602592867,0,-11.845176696777344,22.041025161743164,-25.939437866210938
-0.0030868323519825935,0.10918142646551132,9.8848295211792,0.002602543746583887,-0.008857173402601856,0.014737004487008877,1.4500195980072021,2019-08-07 13:18:05:647,-145.97771284122067,139.66106362024215,0,-11.845176696777344,22.041025161743164,-25.939437866210938
-0.02463958039879799,0.08044443279504776,9.85609245300293,0.004200830512119234,-0.006193361606560959,0.00967576254266496,1.460026741027832,2019-08-07 13:18:05:657,-139.45754324360118,140.4561292625271,0,-11.845176696777344,22.041025161743164,-25.939437866210938
-0.000692082685418427,0.10678667575120926,9.810592651367188,0.002602543746583887,-0.006193361606560959,0.011540429915640882,1.4700238704681396,2019-08-07 13:18:05:667,-133.06499665083456,141.23307316319068,0,-11.845176696777344,22.041025161743164,-25.939437866210938
-0.04619232565164566,0.027759937569499016,9.832145690917969,0.002602543746583887,-0.007258886116917857,0.003548996087964146,1.4800245761871338,2019-08-07 13:18:05:677,-126.80500415283312,142.0037149191622,0,-11.845176696777344,22.041025161743164,-25.939437866210938
0.008886916562914848,0.06368118524551392,9.762697219848633,0.001803400363816213,-0.004062312325772837,-0.002844151494325895,1.490020513534546,2019-08-07 13:18:05:687,-127.86558089477477,142.75515382824494,0,-11.845176696777344,22.041025161743164,-25.63956069946289
0.09030840545892715,0.09241817891597748,9.753118515014648,0.00020511348449834825,-0.0005993576020943366,-0.006573487280575038,1.5000247955322266,2019-08-07 13:18:05:697,-128.89732236206967,143.48907743897004,0,-11.845176696777344,22.041025161743164,-25.63956069946289
0.1717298924922943,0.0972076803445816,9.781855583190918,-6.126766340918298e-05,-0.004595074841025611,-0.0031105326219151193,1.5100243091583252,2019-08-07 13:18:05:707,-129.89668032705288,144.2079430714278,0,-11.845176696777344,22.041025161743164,-25.63956069946289
0.8159175515174866,0.3773933947086334,12.066447257995605,0.0992988990431819,0.03269828562220908,0.027523299651588957,1.5200271606445312,2019-08-07 13:18:05:717,-130.83974444134708,144.83218383495367,0,-11.845176696777344,22.041025161743164,-25.63956069946289
0.4806526005268097,0.7653428316116333,8.220479011535645,0.019118173917190135,-0.022176229782063083,0.011540429915640882,1.5300266742706299,2019-08-07 13:18:05:727,-131.74357258260542,145.41842550729248,0,-11.845176696777344,22.041025161743164,-25.63956069946289
0.6123638153076172,0.26484015583992004,8.998772621154785,-0.0024586979376857053,0.017780940396617904,-0.008171774566259036,1.5400235652923584,2019-08-07 13:18:05:737,-132.64082281820757,146.07772176038122,0,-11.845176696777344,22.041025161743164,-25.63956069946289
1.1056822538375854,-0.3673737645149231,9.44898509979248,-0.005122509213577951,0.014317986258106635,-0.012433872607686629,1.550020694732666,2019-08-07 13:18:05:747,-133.46256019008487,139.60357321411402,0,-11.845176696777344,22.041025161743164,-25.63956069946289
0.4088101089000702,0.2792086601257324,10.157831192016602,0.052682199114324334,0.008990363706322143,-0.012167492000246055,1.5600197315216064,2019-08-07 13:18:05:757,-134.35226315537244,140.3504337232056,0,-11.845176696777344,22.041025161743164,-25.63956069946289
0.5644688606262207,0.1953924149274826,9.377142906188965,0.032170850729508094,-0.04774881803062865,0.0032826149603749208,1.5700247287750244,2019-08-07 13:18:05:767,-135.16949691129147,141.10147803601146,0,-11.845176696777344,22.041025161743164,-25.63956069946289
0.15017715096473694,-0.04887205362319946,9.372353553771973,-0.01444584919934946,0.012453318885130711,-0.0020450079815210586,1.580021858215332,2019-08-07 13:18:05:777,-136.05473757262055,134.69353278397452,0,-11.845176696777344,22.041025161743164,-25.63956069946289
0.535731852054596,0.03733893856406212,9.326852798461914,0.004200830512119234,0.03296466622964966,-0.012167492000246055,1.5900235176086426,2019-08-07 13:18:05:787,-136.8864066777958,135.59271546489956,0,-11.845176696777344,22.041025161743164,-25.63956069946289
0.2842831313610077,0.6551843881607056,9.930330276489258,0.005799117537728906,-0.0021976444326482656,-0.015097683883578876,1.6000192165374756,2019-08-07 13:18:05:797,-137.71464905923696,136.4021104391861,0,-11.845176696777344,22.041025161743164,-25.63956069946289
0.535731852054596,0.08523393422365189,9.868066787719727,-0.0005940299795425521,-0.03363061878854839,-0.021224451378576994,1.6100311279296875,2019-08-07 13:18:05:807,-138.47929993032955,137.26450474827374,0,-12.145054817199707,21.741147994995117,-25.039804458618164
0.18130889534950256,0.3534458875656128,9.48730182647705,0.021781986233379683,0.006060170782692022,-0.01296663486286508,1.6200189590454102,2019-08-07 13:18:05:817,-139.29121599502335,138.06432805719308,0,-12.145054817199707,21.741147994995117,-25.039804458618164
0.32020437717437744,0.2145504206418991,9.69564437866211,-0.004856128085988727,0.016715416926558306,-0.0148313032761383,1.630025863647461,2019-08-07 13:18:05:827,-140.07695305071388,138.8804167907942,0,-12.145054817199707,21.741147994995117,-25.039804458618164
0.3106253743171692,-0.015345555730164051,9.961462020874023,-0.007519939882029623,0.003662740634389001,-0.022556356496374465,1.6400237083435059,2019-08-07 13:18:05:837,-140.84174899255646,132.50879525369456,0,-12.145054817199707,21.741147994995117,-25.039804458618164
0.32020437717437744,0.2408926635980606,9.820171356201172,0.015655219778678866,-0.01897965625099239,-0.009770061331794384,1.6500301361083984,2019-08-07 13:18:05:847,-141.57689870299865,133.42171919010883,0,-12.145054817199707,21.741147994995117,-25.039804458618164
0.1980721354484558,0.09241817891597748,9.66690731048584,0.006331879792907356,-0.012320127541113125,-0.006573487280575038,1.6600253582000732,2019-08-07 13:18:05:857,-142.31497010519058,134.33877624214514,0,-12.145054817199707,21.741147994995117,-25.039804458618164
0.20765113830566406,-0.09676704555749893,9.702829360961914,-0.006454414851524075,0.012186937237392836,-0.00257777036673667,1.6700232028961182,2019-08-07 13:18:05:867,-143.05099207557757,128.06705200467232,0,-12.145054817199707,21.741147994995117,-25.039804458618164
0.2627303898334503,0.15947116911411285,9.731565475463867,0.008995691068799602,0.010855031079298064,-0.004708819387450467,1.6800241470336914,2019-08-07 13:18:05:877,-143.7651382631459,129.08188298053187,0,-12.145054817199707,21.741147994995117,-25.039804458618164
0.30583587288856506,0.16186591982841492,9.836935043334961,0.005266355282550457,-0.01205374693367255,-0.00604072502539659,1.6900224685668945,2019-08-07 13:18:05:887,-144.44745278042052,130.07843452503903,0,-12.145054817199707,21.741147994995117,-25.039804458618164
0.24836188554763794,0.07086542993783951,9.772276878356934,0.002336162618994662,-0.014451176561826921,-0.004975200515039691,1.7000467777252197,2019-08-07 13:18:05:897,-145.12125256921897,131.06724122553456,0,-12.145054817199707,21.741147994995117,-25.039804458618164
0.14299289882183075,0.19060291349887848,9.721986770629883,0.004200830512119234,0.0009989292934781736,-0.007905393438669812,1.7100238800048828,2019-08-07 13:18:05:907,-145.80253399365944,132.02107984767073,0,-12.145054817199707,21.741147994995117,-25.039804458618164
0.2579408884048462,0.12115518003702164,9.741145133972168,-0.00032764881944403687,0.010855031079298064,-0.00897091742887806,1.7200210094451904,2019-08-07 13:18:05:917,-146.46224043862745,132.96659061871827,0,-12.145054817199707,21.741147994995117,-25.039804458618164
0.2435723841190338,0.09960243105888367,9.860882759094238,-0.0005940299795425521,-0.0027304066878267143,-0.012433872607686629,1.730022668838501,2019-08-07 13:18:05:927,-147.10316289818897,133.89601818153994,0,-12.145054817199707,21.741147994995117,-25.039804458618164
0.22680914402008057,0.12833942472934723,9.772276878356934,0.0010042569160299579,-0.013119271444029449,-0.010835585842151283,1.740025520324707,2019-08-07 13:18:05:937,-147.72713979329788,134.80248531071408,0,-12.145054817199707,21.741147994995117,-25.039804458618164
0.18370364606380463,0.1235499233007431,9.753118515014648,-0.0005940299795425521,-0.004062312325772837,-0.015097683883578876,1.750023365020752,2019-08-07 13:18:05:947,-148.34873530807187,135.69225370071027,0,-12.145054817199707,21.741147994995117,-25.039804458618164
0.22680914402008057,0.03733893856406212,9.731565475463867,-0.0056552714687564,0.004728265144745899,-0.009770061331794384,1.7600219249725342,2019-08-07 13:18:05:957,-148.95771263785375,136.57718686706588,0,-12.145054817199707,21.741147994995117,-25.039804458618164
0.2770988941192627,0.09241817891597748,9.839329719543457,0.00047149462834221814,-0.0021976444326482656,-0.011368348097329731,1.7700285911560059,2019-08-07 13:18:05:967,-149.5450604111964,137.43461524907792,0,-12.145054817199707,21.741147994995117,-25.039804458618164
0.2579408884048462,0.03254943713545799,9.846513748168945,-0.0016595545549180318,-0.00566059935138251,-0.010302823586972834,1.7800209522247314,2019-08-07 13:18:05:977,-150.12097148326265,138.28306605186668,0,-12.145054817199707,21.741147994995117,-25.039804458618164
0.1860983967781067,0.03973368555307388,9.8034086227417,-0.0008604111071317767,-0.009389935657780304,-0.006307106152985815,1.7900171279907227,2019-08-07 13:18:05:987,-150.69153129652008,139.1132432402977,0,-12.145054817199707,21.741147994995117,-25.039804458618164
0.22201964259147644,0.1570764183998108,9.767487525939941,0.004467211899782784,-0.0013985010498805918,-0.0041760571322720175,1.8000359535217285,2019-08-07 13:18:05:997,-151.25087121341843,139.9100388002029,0,-12.145054817199707,21.741147994995117,-25.039804458618164
0.26033562421798706,0.09002342820167542,9.870461463928223,-0.0019259356825072562,-0.003263168943005164,-0.00257777036673667,1.8100125789642334,2019-08-07 13:18:06:007,-151.79380903309448,140.70246588676955,0,-12.145054817199707,21.741147994995117,-25.039804458618164
0.2627303898334503,0.10918142646551132,9.8944091796875,-0.002192316810096481,-0.00566059935138251,0.002483471317532922,1.8200194835662842,2019-08-07 13:18:06:017,-152.32433141095666,141.47700412785142,0,-12.145054817199707,21.741147994995117,-25.039804458618164
0.1717298924922943,0.15228691697120667,9.769882202148438,-0.0008604111071317767,-0.010455460168137204,-0.00257777036673667,1.8300228118896484,2019-08-07 13:18:06:027,-152.8518318697374,142.23008694447608,0,-12.145054817199707,21.741147994995117,-25.039804458618164
0.1262296438217163,0.10678667575120926,9.748329162597656,0.0012706381086377639,-0.006193361606560959,0.005413663981088718,1.8400194644927979,2019-08-07 13:18:06:037,-153.3764813734283,142.97221971668074,0,-12.145054817199707,21.741147994995117,-25.039804458618164
0.1405981481075287,0.08044443279504776,9.834540367126465,-0.0013931734273288073,0.0004661670057904337,-0.006307106152985815,1.850024938583374,2019-08-07 13:18:06:047,-153.89283233338682,143.70418488062046,0,-12.145054817199707,21.741147994995117,-25.039804458618164
0.14778240025043488,0.09002342820167542,9.908777236938477,-0.0008604111071317767,-0.004062312325772837,0.0022170901899436976,1.8600208759307861,2019-08-07 13:18:06:057,-154.39560637748622,144.4201734967708,0,-12.145054817199707,20.841514587402344,-24.440048217773438
0.09509790688753128,0.07086542993783951,9.798619270324707,0.0010042569160299579,-0.00965631626522088,0.006479188491445616,1.870028018951416,2019-08-07 13:18:06:067,-154.89114733711818,145.122918405792,0,-12.145054817199707,20.841514587402344,-24.440048217773438
0.11425590515136719,0.08044443279504776,9.81538200378418,0.003135306001762336,-0.009389935657780304,0.0038153772155533703,1.8800227642059326,2019-08-07 13:18:06:077,-155.3747163025474,145.80930906344003,0,-12.145054817199707,20.841514587402344,-24.440048217773438
0.05678191035985947,0.10918142646551132,9.796224594116211,-0.0008604111071317767,-0.002996787815415939,0.007811094129391739,1.890021562576294,2019-08-07 13:18:06:087,-155.85889748397415,146.4808349504717,0,-12.145054817199707,20.841514587402344,-24.440048217773438
0.1262296438217163,0.14749743044376373,9.832145690917969,0.0015370192362269886,-0.0008657387296835611,0.01606890960480635,1.9000239372253418,2019-08-07 13:18:06:097,-156.32652232045007,147.13316579105762,0,-12.145054817199707,20.841514587402344,-24.440048217773438
0.09509790688753128,0.1235499233007431,9.834540367126465,0.0007378757884407334,-0.016848607230278593,0.013937860584092555,1.9100232124328613,2019-08-07 13:18:06:107,-156.77945167579867,147.775692972714,0,-12.145054817199707,20.841514587402344,-24.440048217773438
0.06875565648078918,0.11397092789411545,9.839329719543457,0.005266355282550457,-0.008324410627274756,0.02006462599849607,1.9200294017791748,2019-08-07 13:18:06:117,-157.2311782602034,148.40394745537955,0,-12.145054817199707,20.841514587402344,-24.440048217773438
-0.06056082621216774,0.01818094030022621,9.731565475463867,0.0020697814914054373,-0.006726123861739408,0.013937860584092555,1.9300220012664795,2019-08-07 13:18:06:127,-150.48991187362728,149.03256633924272,0,-12.145054817199707,20.841514587402344,-24.440048217773438
1.213446021080017,0.17862917482852936,8.74971866607666,-0.10581458064379134,-0.030966808552953445,-0.011368348097329731,1.9400219917297363,2019-08-07 13:18:06:137,-150.9048129214569,149.68793860100396,0,-12.145054817199707,20.841514587402344,-24.440048217773438
0.35373085737228394,-0.3146892786026001,11.391127586364746,0.09237299076615935,0.024174089539353894,-0.009237299076615935,1.9500195980072021,2019-08-07 13:18:06:147,-151.46471422825812,143.0739737479735,0,-12.145054817199707,20.841514587402344,-24.440048217773438
0.20046688616275787,0.7126583456993103,9.065825462341309,-0.0061880337239348495,0.0052610273999243486,0.003016233572711371,1.9600231647491455,2019-08-07 13:18:06:157,-152.01304027630542,143.72607530504015,0,-12.145054817199707,20.841514587402344,-24.440048217773438
0.732101321220398,0.6863161325454712,9.295721054077148,0.007663785430853478,-0.01658222662283802,0.03311730281081402,1.9700195789337158,2019-08-07 13:18:06:167,-152.4734091591124,144.36280080828976,0,-12.145054817199707,20.841514587402344,-24.440048217773438
-0.010271081700921059,0.44684112071990967,9.12808895111084,0.013790551365405645,0.02737066307042459,0.02006462599849607,1.9800233840942383,2019-08-07 13:18:06:177,-145.84060481725766,145.01174798771694,0,-12.145054817199707,20.841514587402344,-24.440048217773438
0.20046688616275787,-0.07760904729366302,10.076410293579102,-0.0011267922997395827,0.02390770685131872,0.01926548417617435,1.9900598526000977,2019-08-07 13:18:06:187,-146.5144712128962,138.52097375586592,0,-12.145054817199707,20.841514587402344,-24.440048217773438
0.4159943759441376,0.10678667575120926,9.997383117675781,0.012725026855048746,-0.014451176561826921,0.008343856384570188,2.000016212463379,2019-08-07 13:18:06:197,-147.12844845234588,139.33120078747157,0,-12.145054817199707,20.841514587402344,-24.440048217773438
-0.022244829684495926,0.5402363538742065,9.628591537475586,0.025511323059926126,-0.03256509427819149,8.60411123386422e-05,2.0100274085998535,2019-08-07 13:18:06:207,-140.57022114629396,140.06600902355376,0,-12.145054817199707,20.841514587402344,-24.440048217773438
-0.15874555706977844,-0.33624202013015747,9.621407508850098,-0.011515657316016642,-0.006726123861739408,-0.004708819387450467,2.02001953125,2019-08-07 13:18:06:217,-134.17394796779752,133.71118011700972,0,-12.145054817199707,20.841514587402344,-24.440048217773438
-0.029429078102111816,-0.06324055045843124,9.94709300994873,-0.0011267922997395827,0.021510277223164346,-0.00257777036673667,2.030026435852051,2019-08-07 13:18:06:227,-127.90594559010232,127.44487492371776,0,-12.145054817199707,20.841514587402344,-24.440048217773438
-0.055771324783563614,0.3079456388950348,9.903987884521484,0.011126740089513398,-0.004062312325772837,-0.011101966449591856,2.0400173664093018,2019-08-07 13:18:06:237,-121.75200057448262,128.4541168549639,0,-12.145054817199707,20.841514587402344,-24.440048217773438
-0.012665831483900547,-0.03450355306267738,9.870461463928223,-0.005388890341167176,-0.014983938817005372,-0.02228997588893389,2.0500221252441406,2019-08-07 13:18:06:247,-115.71001354241199,122.2920675013535,0,-12.145054817199707,20.841514587402344,-24.440048217773438
0.020860664546489716,0.14749743044376373,9.743539810180664,0.009528453323978052,-0.012586509188851,-0.01935978296530377,2.0600380897521973,2019-08-07 13:18:06:257,-116.98628130953655,123.42352188343338,0,-12.145054817199707,20.841514587402344,-24.440048217773438
-0.03661332651972771,0.38218289613723755,9.71719741821289,0.004733593027372009,0.01698179753399888,-0.018560639062387443,2.070019006729126,2019-08-07 13:18:06:267,-111.06039040633624,124.50735231819266,0,-12.145054817199707,20.841514587402344,-24.440048217773438
0.19088789820671082,0.01818094030022621,9.93511962890625,-6.126766340918298e-05,0.013785224002928184,-0.024953786124528834,2.080028772354126,2019-08-07 13:18:06:277,-112.42491626144086,125.61514272184753,0,-12.145054817199707,20.841514587402344,-24.440048217773438
0.1860983967781067,0.15228691697120667,9.875250816345215,0.005266355282550457,-0.006459742734150184,-0.02575293002744516,2.0900254249572754,2019-08-07 13:18:06:287,-113.75119987186942,126.68221396398071,0,-12.145054817199707,20.841514587402344,-24.440048217773438
0.15736140310764313,0.2217346578836441,9.75790786743164,0.009262072716537477,-0.014983938817005372,-0.03241245769702712,2.1000211238861084,2019-08-07 13:18:06:297,-115.0492879668864,127.71733644943788,0,-12.145054817199707,20.841514587402344,-24.440048217773438
0.16933514177799225,0.01818094030022621,9.698039054870605,-0.00032764881944403687,0.002330834996442878,-0.02788397904815896,2.1100223064422607,2019-08-07 13:18:06:307,-116.32960459780574,128.76102546800166,0,-12.744811058044434,21.741147994995117,-24.440048217773438
0.1789141446352005,0.0780496820807457,9.789039611816406,-0.004856128085988727,0.009523125961500591,-0.02442102490964769,2.1200222969055176,2019-08-07 13:18:06:317,-117.58741817089034,129.77939527854855,0,-12.744811058044434,21.741147994995117,-24.440048217773438
0.25554612278938293,0.11636567860841751,9.932724952697754,0.002336162618994662,-0.003529550070594388,-0.02442102490964769,2.1300413608551025,2019-08-07 13:18:06:327,-118.80420892662201,130.76906889406027,0,-12.744811058044434,21.741147994995117,-24.440048217773438
0.35133612155914307,0.05889168381690979,9.880040168762207,0.00047149462834221814,-0.015516702112481122,-0.02708483514524263,2.1400179862976074,2019-08-07 13:18:06:337,-119.97870069138212,131.7465930447498,0,-12.744811058044434,21.741147994995117,-24.440048217773438
0.25554612278938293,0.13552367687225342,9.777066230773926,0.0034016871293515603,-0.006459742734150184,-0.020425307475660667,2.150024175643921,2019-08-07 13:18:06:347,-121.14555297282142,132.69386699925502,0,-12.744811058044434,21.741147994995117,-24.440048217773438
0.31302013993263245,0.17862917482852936,9.796224594116211,-0.003524222448042604,0.003929121761978225,-0.02415464222161251,2.1600241661071777,2019-08-07 13:18:06:357,-122.2882449599516,133.62107563071368,0,-12.744811058044434,21.741147994995117,-24.440048217773438
0.35852035880088806,0.04691793769598007,9.846513748168945,0.00020511348449834825,0.0007325481658889489,-0.021757212593458142,2.1700210571289062,2019-08-07 13:18:06:367,-123.40118587153023,134.54307881800005,0,-12.744811058044434,21.741147994995117,-24.440048217773438
0.4399418532848358,0.06607593595981598,9.853697776794434,0.00047149462834221814,-0.00912355401004243,-0.022556356496374465,2.180023670196533,2019-08-07 13:18:06:377,-124.47690977076927,135.44426837847556,0,-12.744811058044434,21.741147994995117,-24.440048217773438
0.35852035880088806,0.09960243105888367,9.750723838806152,-0.00032764881944403687,-0.006726123861739408,-0.02282273710381504,2.1900253295898438,2019-08-07 13:18:06:387,-125.54147951158008,136.3238620376963,0,-12.744811058044434,21.741147994995117,-24.440048217773438
0.3178096413612366,0.11157617717981339,9.690855026245117,-0.0011267922997395827,-6.659528596096748e-05,-0.013765778765781403,2.200021266937256,2019-08-07 13:18:06:397,-126.59304593583894,137.184824254805,0,-12.744811058044434,21.741147994995117,-24.440048217773438
0.4088101089000702,0.1043919250369072,9.810592651367188,0.00020511348449834825,0.001531691613675204,-0.007106249535753488,2.210028886795044,2019-08-07 13:18:06:407,-127.61432270515995,138.02881958606207,0,-12.744811058044434,21.741147994995117,-24.440048217773438
0.3872573673725128,0.08523393422365189,9.791434288024902,-0.002192316810096481,-0.0027304066878267143,-0.011901110352508182,2.220019578933716,2019-08-07 13:18:06:417,-128.6152064874562,138.859498146862,0,-12.744811058044434,21.741147994995117,-24.440048217773438
0.30583587288856506,0.06847068667411804,9.848908424377441,-0.00272507906527493,-0.01205374693367255,-0.009237299076615935,2.2300212383270264,2019-08-07 13:18:06:427,-129.60056065152236,139.67587216406702,0,-12.744811058044434,21.741147994995117,-24.440048217773438
0.26033562421798706,0.06128643453121185,9.688460350036621,-0.00272507906527493,-0.008324410627274756,-0.009770061331794384,2.240021228790283,2019-08-07 13:18:06:437,-130.573091161624,140.47663620928242,0,-12.744811058044434,21.741147994995117,-24.440048217773438
0.23638813197612762,0.0517074353992939,9.832145690917969,-0.00272507906527493,0.0028635972516213265,-0.0033769137495043436,2.250019073486328,2019-08-07 13:18:06:447,-131.53569167222452,141.2626069478426,0,-12.744811058044434,21.741147994995117,-24.440048217773438
0.27230939269065857,0.09481292963027954,9.81538200378418,0.0010042569160299579,-0.0019312633050590406,0.00674556961903484,2.260023832321167,2019-08-07 13:18:06:457,-132.4721097915057,142.02572187866306,0,-12.744811058044434,21.741147994995117,-24.440048217773438
0.25315138697624207,0.13312892615795135,9.868066787719727,-0.0016595545549180318,-0.013119271444029449,0.004348139470731819,2.270026445388794,2019-08-07 13:18:06:467,-133.38590880967632,142.77068104780733,0,-12.744811058044434,21.741147994995117,-24.440048217773438
0.21723014116287231,0.12115518003702164,9.841724395751953,-0.0011267922997395827,-0.009922697912958753,0.006212807363856391,2.2800209522247314,2019-08-07 13:18:06:477,-134.28733315086518,143.50179384960202,0,-12.744811058044434,21.741147994995117,-24.440048217773438
0.16454564034938812,0.16186591982841492,9.74593448638916,0.0028689248741731116,0.002064453868853653,0.01367147893635468,2.2900257110595703,2019-08-07 13:18:06:487,-135.18340098137995,144.21111605252656,0,-12.744811058044434,21.741147994995117,-24.440048217773438
0.15017715096473694,0.15228691697120667,9.858488082885742,0.004200830512119234,0.001531691613675204,0.01606890960480635,2.3000247478485107,2019-08-07 13:18:06:497,-136.0631382138434,144.90683531623253,0,-12.744811058044434,21.741147994995117,-24.440048217773438
0.18849314749240875,0.11876042932271957,9.812987327575684,0.0020697814914054373,-0.00912355401004243,0.018999101488139172,2.310025453567505,2019-08-07 13:18:06:507,-136.91474356740017,145.59366872794067,0,-12.744811058044434,21.741147994995117,-24.440048217773438
0.10946640372276306,0.09481292963027954,9.846513748168945,0.003135306001762336,-0.00912355401004243,0.01846634027325802,2.320018768310547,2019-08-07 13:18:06:517,-137.75859032341128,146.26900228125987,0,-12.744811058044434,21.741147994995117,-24.440048217773438
0.06636090576648712,0.12833942472934723,9.81538200378418,0.0012706381086377639,-0.004062312325772837,0.02192929441176929,2.330024480819702,2019-08-07 13:18:06:527,-138.59338891795596,146.92792598808444,0,-12.744811058044434,21.741147994995117,-24.440048217773438
0.0352291613817215,0.06607593595981598,9.824960708618164,0.0007378757884407334,0.0012653104860859794,0.02059738929397182,2.3400189876556396,2019-08-07 13:18:06:537,-139.418122350871,147.58124685483526,0,-12.744811058044434,21.741147994995117,-24.440048217773438
-0.022244829684495926,0.11876042932271957,9.827356338500977,0.0012706381086377639,-0.0008657387296835611,0.02406034343248309,2.350017547607422,2019-08-07 13:18:06:547,-133.03186770921283,148.21506121293638,0,-12.744811058044434,21.741147994995117,-24.440048217773438
0.0017026669811457396,0.12833942472934723,9.86567211151123,0.003135306001762336,-0.0075252672445070825,0.024859487335399413,2.360029697418213,2019-08-07 13:18:06:557,-133.96680202606123,148.83409136507092,0,-13.344566345214844,21.741147994995117,-24.440048217773438
-0.0629555732011795,0.06847068667411804,9.805803298950195,0.006598260920496581,-0.006726123861739408,0.021130150508852967,2.370021104812622,2019-08-07 13:18:06:567,-127.69104946898183,149.4457063865714,0,-13.344566345214844,21.741147994995117,-24.440048217773438
-0.06774507462978363,0.04452318698167801,9.805803298950195,0.006065498665318131,-0.0016648821774698163,0.015269766742187328,2.3800244331359863,2019-08-07 13:18:06:577,-121.54420996791087,150.04818236941054,0,-13.344566345214844,21.741147994995117,-24.440048217773438
-0.000692082685418427,0.04931268468499184,9.836935043334961,0.0015370192362269886,0.0017980727412644285,0.01020852479784341,2.3900198936462402,2019-08-07 13:18:06:587,-115.51441554712393,150.64061163778794,0,-13.344566345214844,21.741147994995117,-24.440048217773438
0.0017026669811457396,0.09481292963027954,9.784250259399414,-0.0029914601928641544,-0.009389935657780304,0.012339573818557208,2.4000208377838135,2019-08-07 13:18:06:597,-116.7986548886914,151.21837527479497,0,-13.344566345214844,21.741147994995117,-24.440048217773438
-0.24974605441093445,0.24328741431236267,9.789039611816406,-0.06292721754148024,0.01698179753399888,0.015536147349627901,2.410022020339966,2019-08-07 13:18:06:607,-110.90144737792312,151.800871867722,0,-13.344566345214844,21.741147994995117,-24.440048217773438
2.259951591491699,1.083844542503357,8.993983268737793,0.04602266936414777,-0.028569376844204478,0.04963293376164325,2.420020580291748,2019-08-07 13:18:06:617,-111.98528090392138,152.20158749079232,0,-13.344566345214844,21.741147994995117,-24.440048217773438
0.4590998589992523,0.13552367687225342,9.228668212890625,0.0468218132670641,0.02737066307042459,-0.006307106152985815,2.4300267696380615,2019-08-07 13:18:06:627,-113.3039943196491,152.71442243860986,0,-13.344566345214844,21.741147994995117,-24.440048217773438
0.3154148757457733,-0.7696917057037354,10.0668306350708,0.02444579854956923,0.022575801733521247,-0.002844151494325895,2.4400222301483154,2019-08-07 13:18:06:637,-114.61469276879292,146.13385844541278,0,-13.344566345214844,21.741147994995117,-24.440048217773438
0.5141791105270386,-0.23805727064609528,9.446590423583984,-0.006454414851524075,0.010322268824119614,0.01420424223183043,2.4500269889831543,2019-08-07 13:18:06:647,-115.86588676741862,139.6436784957907,0,-13.344566345214844,21.741147994995117,-24.440048217773438
0.5812320709228516,0.8802908062934875,9.671697616577148,0.02338027195861773,-0.02963490135456137,0.027789680259029535,2.460021495819092,2019-08-07 13:18:06:657,-117.06315579163078,140.33367270452547,0,-13.344566345214844,21.741147994995117,-24.440048217773438
0.05678191035985947,-0.14945153892040253,9.405879974365234,0.015655219778678866,0.0031299783792105513,-0.006573487280575038,2.470022678375244,2019-08-07 13:18:06:667,-118.31673272282926,133.93641393130696,0,-13.344566345214844,21.741147994995117,-24.440048217773438
0.17412464320659637,-0.06084579974412918,9.621407508850098,0.014589695268321967,0.014850748513285082,0.0022170901899436976,2.4800214767456055,2019-08-07 13:18:06:677,-119.5379996523185,127.6567412188378,0,-13.344566345214844,21.741147994995117,-24.440048217773438
0.16694039106369019,0.3582353889942169,9.81538200378418,0.004467211899782784,0.012719699492571287,-0.00018034003963255039,2.4900176525115967,2019-08-07 13:18:06:687,-120.73489112487373,128.6592946983137,0,-13.344566345214844,21.741147994995117,-24.440048217773438
0.25315138697624207,0.16186591982841492,9.927935600280762,-0.0013931734273288073,-0.014983938817005372,-0.009237299076615935,2.500026226043701,2019-08-07 13:18:06:697,-121.88255937687656,129.6682102884185,0,-13.344566345214844,21.741147994995117,-24.440048217773438
0.018465915694832802,0.44684112071990967,9.669301986694336,0.006864642048085805,-0.020311561368789862,-0.0015122457263426093,2.510019063949585,2019-08-07 13:18:06:707,-123.03132303794122,130.6180765579871,0,-13.344566345214844,21.741147994995117,-24.440048217773438
0.1334138959646225,0.24568216502666473,9.719592094421387,0.0034016871293515603,0.017780940396617904,-0.007106249535753488,2.5200283527374268,2019-08-07 13:18:06:717,-124.16496164811493,131.57484406389833,0,-13.344566345214844,21.741147994995117,-24.440048217773438
0.17651939392089844,-0.00337180751375854,9.997383117675781,-0.00965098890274342,0.009523125961500591,-0.007905393438669812,2.530019998550415,2019-08-07 13:18:06:727,-125.26677434515787,125.34914815441101,0,-13.344566345214844,21.741147994995117,-24.440048217773438
0.14299289882183075,0.15947116911411285,9.939908981323242,0.003135306001762336,-0.00805802949968553,-0.007106249535753488,2.5400116443634033,2019-08-07 13:18:06:737,-126.3404343643247,126.42202324474655,0,-13.344566345214844,21.741147994995117,-24.440048217773438
0.1453876495361328,0.09241817891597748,9.858488082885742,0.009794834971715925,-0.021110705271706186,-0.006307106152985815,2.5500235557556152,2019-08-07 13:18:06:747,-127.38485980713116,127.4773343965922,0,-13.344566345214844,21.741147994995117,-24.440048217773438
0.11186115443706512,-0.027319304645061493,9.669301986694336,0.0007378757884407334,0.002597216124032102,-0.008171774566259036,2.560023069381714,2019-08-07 13:18:06:757,-128.42536472283206,121.33061103341981,0,-13.344566345214844,21.741147994995117,-24.440048217773438
0.14299289882183075,0.06128643453121185,9.77467155456543,0.005266355282550457,0.013785224002928184,-0.004708819387450467,2.5700414180755615,2019-08-07 13:18:06:767,-129.44784970242017,122.49385162766181,0,-13.344566345214844,21.741147994995117,-24.440048217773438
0.26033562421798706,0.11636567860841751,9.84411907196045,0.005799117537728906,0.00019978586194656375,-0.009237299076615935,2.5800247192382812,2019-08-07 13:18:06:777,-130.42870710554712,123.62717879106101,0,-13.344566345214844,21.741147994995117,-24.440048217773438
0.24117763340473175,0.06607593595981598,9.84411907196045,0.0071310231756750294,-0.013918414306648471,-0.009237299076615935,2.5900259017944336,2019-08-07 13:18:06:787,-131.38424793392917,124.74293915488396,0,-13.344566345214844,21.741147994995117,-24.440048217773438
0.11904539912939072,0.17144492268562317,9.659723281860352,0.002336162618994662,-0.00566059935138251,-0.014032159373221978,2.600020170211792,2019-08-07 13:18:06:797,-132.339264951562,125.82643330398673,0,-13.344566345214844,21.741147994995117,-24.440048217773438
0.13820339739322662,0.1427079290151596,9.70522403717041,0.0012706381086377639,0.008191220323554469,-0.01882701966982802,2.6100234985351562,2019-08-07 13:18:06:807,-133.28076368834928,126.89234233696058,0,-12.294994354248047,21.89108657836914,-25.189743041992188
0.25315138697624207,0.15468166768550873,9.78664493560791,0.0007378757884407334,0.0009989292934781736,-0.018560639062387443,2.6200292110443115,2019-08-07 13:18:06:817,-134.18607481387824,127.93597081087819,0,-12.294994354248047,21.89108657836914,-25.189743041992188
0.17412464320659637,0.1427079290151596,9.86567211151123,0.002336162618994662,-0.012586509188851,-0.019093400277268593,2.630021333694458,2019-08-07 13:18:06:827,-135.0750687856329,128.95936604873248,0,-12.294994354248047,21.89108657836914,-25.189743041992188
0.18130889534950256,0.09481292963027954,9.74593448638916,-0.00032764881944403687,-0.015516702112481122,-0.021757212593458142,2.6400251388549805,2019-08-07 13:18:06:837,-135.94353585825627,129.96921513031086,0,-12.294994354248047,21.89108657836914,-25.189743041992188
0.15017715096473694,0.0517074353992939,9.707618713378906,-0.00272507906527493,0.001531691613675204,-0.014032159373221978,2.6500260829925537,2019-08-07 13:18:06:847,-136.80779933067413,130.965257461786,0,-12.294994354248047,21.89108657836914,-25.189743041992188
0.1860983967781067,0.07565493136644363,9.8034086227417,-0.0011267922997395827,0.002330834996442878,-0.02282273710381504,2.6600265502929688,2019-08-07 13:18:06:857,-137.6512018286119,131.93774194245918,0,-12.294994354248047,21.89108657836914,-25.189743041992188
0.21483539044857025,0.11397092789411545,9.84411907196045,-0.0019259356825072562,-0.011787365285934675,-0.013765778765781403,2.670018434524536,2019-08-07 13:18:06:867,-138.46656039136994,132.88680131677629,0,-12.294994354248047,21.89108657836914,-25.189743041992188
0.2435723841190338,0.06607593595981598,9.85609245300293,0.00047149462834221814,-0.010455460168137204,-0.018027875766911696,2.6800239086151123,2019-08-07 13:18:06:877,-139.26304213697932,133.8211182184246,0,-12.294994354248047,21.89108657836914,-25.189743041992188
0.19088789820671082,0.1043919250369072,9.767487525939941,-0.0029914601928641544,-0.002996787815415939,-0.015630446138757324,2.6900157928466797,2019-08-07 13:18:06:887,-140.05370796802248,134.73412746194035,0,-12.294994354248047,21.89108657836914,-25.189743041992188
0.1860983967781067,0.1307341754436493,9.784250259399414,0.001803400363816213,-0.0037959311981836125,-0.014298541020959853,2.700024127960205,2019-08-07 13:18:06:897,-140.8287077059356,135.62312099742786,0,-12.294994354248047,21.89108657836914,-25.189743041992188
0.17412464320659637,0.14031317830085754,9.877645492553711,0.00020511348449834825,-0.006459742734150184,-0.011368348097329731,2.7100226879119873,2019-08-07 13:18:06:907,-141.5883086544076,136.494266644903,0,-12.294994354248047,21.89108657836914,-25.189743041992188
0.17651939392089844,0.12594467401504517,9.882434844970703,-0.004056984703221053,-0.00859079175486398,-0.011101966449591856,2.720020055770874,2019-08-07 13:18:06:917,-142.33125394142593,137.35205560698415,0,-12.294994354248047,21.89108657836914,-25.189743041992188
0.09749265760183334,0.08523393422365189,9.750723838806152,-0.0032578413204533796,-0.006193361606560959,-0.004975200515039691,2.7300238609313965,2019-08-07 13:18:06:927,-143.0696929146389,138.19682793554747,0,-12.294994354248047,21.89108657836914,-25.189743041992188
0.12383490055799484,0.10678667575120926,9.769882202148438,0.003668068256940785,0.001531691613675204,-0.004975200515039691,2.7400219440460205,2019-08-07 13:18:06:937,-143.79463503912092,139.01830757910992,0,-12.294994354248047,21.89108657836914,-25.189743041992188
0.107071653008461,0.07326018065214157,9.832145690917969,-0.0008604111071317767,0.0009989292934781736,-0.0068398684081642635,2.7500224113464355,2019-08-07 13:18:06:947,-144.5068247826741,139.82988641012003,0,-12.294994354248047,21.89108657836914,-25.189743041992188
0.13101914525032043,0.11397092789411545,9.81538200378418,0.004467211899782784,-0.00566059935138251,-0.005241581642628916,2.7600228786468506,2019-08-07 13:18:06:957,-145.19821454673553,140.61747507475508,0,-12.294994354248047,21.89108657836914,-25.189743041992188
0.10228215157985687,0.11157617717981339,9.784250259399414,0.002336162618994662,-0.00859079175486398,-0.007106249535753488,2.770022392272949,2019-08-07 13:18:06:967,-145.8774480884459,141.3907468296442,0,-12.294994354248047,21.89108657836914,-25.189743041992188
0.05917666107416153,0.1043919250369072,9.805803298950195,-0.00272507906527493,-0.004062312325772837,-0.006307106152985815,2.7800230979919434,2019-08-07 13:18:06:977,-146.55070262536935,142.15226324945547,0,-12.294994354248047,21.89108657836914,-25.189743041992188
0.09988740086555481,0.08044443279504776,9.848908424377441,0.003668068256940785,-0.0008657387296835611,-0.0009794834711641602,2.790026903152466,2019-08-07 13:18:06:987,-147.20758082587378,142.89779812385314,0,-12.294994354248047,21.89108657836914,-25.189743041992188
0.09988740086555481,0.09002342820167542,9.820171356201172,0.001803400363816213,-0.006992504989328633,0.006212807363856391,2.8000216484069824,2019-08-07 13:18:06:997,-147.84784953371923,143.6283255489217,0,-12.294994354248047,21.89108657836914,-25.189743041992188
0.06396616250276566,0.13312892615795135,9.791434288024902,0.001803400363816213,-0.003529550070594388,0.005413663981088718,2.8100271224975586,2019-08-07 13:18:07:007,-148.4814236100843,144.33916643173478,0,-12.294994354248047,21.89108657836914,-25.189743041992188
0.08791365474462509,0.12833942472934723,9.810592651367188,-0.0008604111071317767,-0.006459742734150184,0.009942143150105534,2.820019006729126,2019-08-07 13:18:07:017,-149.09790256097787,145.03787613897168,0,-12.294994354248047,21.89108657836914,-25.189743041992188
0.04001866281032562,0.12833942472934723,9.841724395751953,-0.002192316810096481,-0.004062312325772837,0.0048809017259102685,2.830026626586914,2019-08-07 13:18:07:027,-149.70900226424405,145.72340825600543,0,-12.294994354248047,21.89108657836914,-25.189743041992188
0.03762391209602356,0.05649693310260773,9.86567211151123,0.0007378757884407334,-0.003529550070594388,0.008610237512159412,2.8400228023529053,2019-08-07 13:18:07:037,-150.30847107530886,146.40196378424346,0,-12.294994354248047,21.89108657836914,-25.189743041992188
0.042413413524627686,0.04691793769598007,9.872856140136719,0.00020511348449834825,-0.00566059935138251,0.008876618639748637,2.850019931793213,2019-08-07 13:18:07:047,-150.89420136795553,147.06836377410525,0,-12.294994354248047,21.89108657836914,-25.189743041992188
0.04001866281032562,0.09241817891597748,9.834540367126465,-0.0024586979376857053,-0.006193361606560959,0.008077475256980963,2.860016107559204,2019-08-07 13:18:07:057,-151.46817817809296,147.71760832446313,0,-12.594871520996094,21.591209411621094,-24.88986587524414
0.0807294100522995,0.18102392554283142,9.789039611816406,-0.00032764881944403687,-0.00566059935138251,0.009409380894927086,2.8700196743011475,2019-08-07 13:18:07:067,-152.02618500400447,148.34225175603964,0,-12.594871520996094,21.591209411621094,-24.88986587524414
0.10946640372276306,0.1498921662569046,9.829751014709473,0.0034016871293515603,-0.0016648821774698163,0.008876618639748637,2.880025863647461,2019-08-07 13:18:07:077,-152.57196524001742,148.9560229823803,0,-12.594871520996094,21.591209411621094,-24.88986587524414
0.10946640372276306,0.20736616849899292,9.8034086227417,0.0055327364101396825,-0.006459742734150184,0.011007667660462434,2.890023946762085,2019-08-07 13:18:07:087,-153.10410455164964,149.54956117936595,0,-12.594871520996094,21.591209411621094,-24.88986587524414
0.09270315617322922,0.18581341207027435,9.769882202148438,0.004733593027372009,-0.00805802949968553,0.01020852479784341,2.90002703666687,2019-08-07 13:18:07:097,-153.62662360514,150.1341196844645,0,-12.594871520996094,21.591209411621094,-24.88986587524414
0.08551890403032303,0.14510267972946167,9.812987327575684,-0.0011267922997395827,-0.0019312633050590406,0.015536147349627901,2.910022735595703,2019-08-07 13:18:07:107,-154.14302094570354,150.71512652129388,0,-12.594871520996094,21.591209411621094,-24.88986587524414
0.09749265760183334,0.13552367687225342,9.765092849731445,0.002336162618994662,-0.00859079175486398,0.011806811563378757,2.9200165271759033,2019-08-07 13:18:07:117,-154.64389960066495,151.2836106211633,0,-12.594871520996094,21.591209411621094,-24.88986587524414
0.02325541339814663,0.04931268468499184,9.805803298950195,0.00047149462834221814,-0.00246402556023749,0.01020852479784341,2.930023670196533,2019-08-07 13:18:07:127,-155.14691942853472,151.8519107969318,0,-12.594871520996094,21.591209411621094,-24.88986587524414
-0.019850080832839012,-0.04408255219459534,9.812987327575684,-0.0013931734273288073,-0.004328693453362062,0.007811094129391739,2.9400222301483154,2019-08-07 13:18:07:137,-148.44386883260103,145.2208024566788,0,-12.594871520996094,21.591209411621094,-24.88986587524414
-0.10127156972885132,-0.012950805947184563,9.94709300994873,0.021781986233379683,-0.01791413174063549,0.005147282853499493,2.9500157833099365,2019-08-07 13:18:07:147,-141.87660536849015,138.70565568239792,0,-12.594871520996094,21.591209411621094,-24.88986587524414
-0.3167990446090698,0.027759937569499016,9.523222923278809,-0.016843279867801136,0.007924839195965244,-0.00604072502539659,2.960022449493408,2019-08-07 13:18:07:157,-135.48163193086697,139.5376660484747,0,-12.594871520996094,21.591209411621094,-24.88986587524414
-0.4892210066318512,0.4971308708190918,10.21530532836914,-0.011249275668278767,-0.012586509188851,0.008610237512159412,2.9700236320495605,2019-08-07 13:18:07:167,-129.2197682737489,140.29750756610983,0,-12.594871520996094,21.591209411621094,-24.88986587524414
-0.798143744468689,0.3534458875656128,10.162620544433594,-0.020306235046609705,-0.026438327823490676,-0.0031105326219151193,2.9800238609313965,2019-08-07 13:18:07:177,-123.11034012850807,141.06312184578454,0,-12.594871520996094,21.591209411621094,-24.88986587524414
-0.5514845252037048,0.17862917482852936,10.028514862060547,-0.014712230847087336,-0.03363061878854839,-0.012700254255424506,2.9900214672088623,2019-08-07 13:18:07:187,-117.09220667573334,141.8297092938666,0,-12.594871520996094,21.591209411621094,-24.88986587524414
-0.4245627820491791,0.2552611529827118,9.77467155456543,-0.013113944081551988,0.006859314685608345,-0.015097683883578876,3.0000245571136475,2019-08-07 13:18:07:197,-111.20395679773202,142.57056257442832,0,-12.594871520996094,21.591209411621094,-24.88986587524414
-0.2856673002243042,0.2217346578836441,10.20333194732666,-0.01657689822006326,-0.006193361606560959,-0.026019310634885735,3.0100231170654297,2019-08-07 13:18:07:207,-105.40847493679152,143.30355923611438,0,-12.594871520996094,21.591209411621094,-24.88986587524414
-0.3311675488948822,-0.14705678820610046,10.09556770324707,-0.021371759556966602,-0.022176229782063083,-0.03134693318667023,3.0200185775756836,2019-08-07 13:18:07:217,-99.72543546251076,136.86617358292574,0,-12.594871520996094,21.591209411621094,-24.88986587524414
-0.31440427899360657,0.03733893856406212,9.887224197387695,-0.0061880337239348495,-0.022708993077538833,-0.03880560683976311,3.0300168991088867,2019-08-07 13:18:07:227,-94.15460457056582,137.72799658989632,0,-12.594871520996094,21.591209411621094,-24.88986587524414
-0.3167990446090698,-0.08000379800796509,9.875250816345215,-0.015244993102265786,0.001531691613675204,-0.04120303438732288,3.040025472640991,2019-08-07 13:18:07:237,-88.70912174436278,131.39128740860582,0,-12.594871520996094,21.591209411621094,-24.88986587524414
-0.21143005788326263,-0.19255703687667847,9.944698333740234,-0.013646706336730438,0.004461884017156674,-0.05132551827601072,3.0500237941741943,2019-08-07 13:18:07:247,-83.36180339146512,125.19330832407933,0,-12.594871520996094,21.591209411621094,-24.88986587524414
-0.180298313498497,0.07326018065214157,9.978224754333496,0.003668068256940785,-0.014451176561826921,-0.0483953253523806,3.060028076171875,2019-08-07 13:18:07:257,-78.107153032229,126.27896849298136,0,-12.594871520996094,21.591209411621094,-24.88986587524414
-0.3575097918510437,0.027759937569499016,9.94709300994873,-0.009384607255005544,-0.018713275643551814,-0.04812894682553463,3.070021390914917,2019-08-07 13:18:07:267,-72.97567730155178,127.35545707882588,0,-12.594871520996094,21.591209411621094,-24.88986587524414
-0.32877278327941895,-0.18297803401947021,10.069225311279297,-0.019773471751133954,-0.00859079175486398,-0.05665314290838981,3.0800228118896484,2019-08-07 13:18:07:277,-67.94874163971863,121.24027358698851,0,-12.594871520996094,21.591209411621094,-24.88986587524414
-0.2976410388946533,0.11397092789411545,9.978224754333496,0.0010042569160299579,0.006326551910281247,-0.06571010020612615,3.090019702911377,2019-08-07 13:18:07:287,-63.02748950216944,122.40181636373518,0,-12.594871520996094,21.591209411621094,-24.88986587524414
-0.07971882075071335,0.20976091921329498,9.975830078125,0.005266355282550457,-0.006992504989328633,-0.06704200532392361,3.100020170211792,2019-08-07 13:18:07:297,-58.172170288620855,123.52673132872313,0,-12.594871520996094,21.591209411621094,-24.88986587524414
0.06396616250276566,0.14749743044376373,9.8034086227417,0.002336162618994662,-0.01658222662283802,-0.0694394370326726,3.1100332736968994,2019-08-07 13:18:07:307,-60.59192691761875,124.63764363014715,0,-12.594871520996094,21.591209411621094,-25.489622116088867
0.020860664546489716,0.10199718177318573,9.75790786743164,0.003668068256940785,-0.002996787815415939,-0.06970581972070777,3.1200273036956787,2019-08-07 13:18:07:317,-62.97595693238018,125.73085481412764,0,-12.594871520996094,21.591209411621094,-25.489622116088867
0.09509790688753128,0.18102392554283142,9.863277435302734,-0.0019259356825072562,-0.0019312633050590406,-0.06118162363785258,3.130018949508667,2019-08-07 13:18:07:327,-65.3043061652891,126.7962892256384,0,-12.594871520996094,21.591209411621094,-25.489622116088867
0.13101914525032043,0.10678667575120926,9.839329719543457,-0.0056552714687564,-0.0013985010498805918,-0.058784191929103606,3.1400258541107178,2019-08-07 13:18:07:337,-67.58217629259457,127.85110487711505,0,-12.594871520996094,21.591209411621094,-25.489622116088867
0.16215088963508606,0.11636567860841751,9.760302543640137,0.0020697814914054373,-0.004595074841025611,-0.055321237790592344,3.150021553039551,2019-08-07 13:18:07:347,-69.80891805339267,128.8792597480302,0,-12.594871520996094,21.591209411621094,-25.489622116088867
0.2124406397342682,0.09481292963027954,9.832145690917969,-6.126766340918298e-05,0.0007325481658889489,-0.048928090728450946,3.160025119781494,2019-08-07 13:18:07:357,-71.98839551272022,129.89065906501446,0,-12.594871520996094,21.591209411621094,-25.489622116088867
0.22920389473438263,0.08523393422365189,9.805803298950195,-0.004056984703221053,0.0052610273999243486,-0.04226856097827438,3.1700310707092285,2019-08-07 13:18:07:367,-74.12480330935199,130.88516496215678,0,-12.594871520996094,21.591209411621094,-25.489622116088867
0.2914673686027527,0.0780496820807457,9.801013946533203,0.006864642048085805,0.002330834996442878,-0.04093665586047691,3.180018186569214,2019-08-07 13:18:07:377,-76.20954655729086,131.85448691697323,0,-12.594871520996094,21.591209411621094,-25.489622116088867
0.3369676172733307,0.12833942472934723,9.841724395751953,0.0020697814914054373,-0.0048614559686148365,-0.02815035965559953,3.190025568008423,2019-08-07 13:18:07:387,-78.24340459783221,132.8012918602032,0,-12.594871520996094,21.591209411621094,-25.489622116088867
0.3417571187019348,0.06607593595981598,9.753118515014648,0.004733593027372009,-0.002996787815415939,-0.02308911771125561,3.200078010559082,2019-08-07 13:18:07:397,-80.23670760730113,133.73483088828905,0,-12.594871520996094,21.591209411621094,-25.489622116088867
0.3561256229877472,0.0780496820807457,9.781855583190918,0.003668068256940785,-0.0019312633050590406,-0.021224451378576994,3.2100107669830322,2019-08-07 13:18:07:407,-82.18919569436797,134.6489454082773,0,-12.594871520996094,21.591209411621094,-25.489622116088867
0.3106253743171692,0.13552367687225342,9.75790786743164,0.003135306001762336,0.001531691613675204,-0.010036441939234959,3.220029354095459,2019-08-07 13:18:07:417,-84.10980758275291,135.5382886180506,0,-12.594871520996094,21.591209411621094,-25.489622116088867
0.3944416046142578,0.11397092789411545,9.880040168762207,0.003135306001762336,-0.003529550070594388,-0.008171774566259036,3.2300219535827637,2019-08-07 13:18:07:427,-85.97990686604714,136.4125455874097,0,-12.594871520996094,21.591209411621094,-25.489622116088867
0.37767836451530457,0.1235499233007431,9.77467155456543,0.004733593027372009,-0.0005993576020943366,-0.0007131023435749355,3.2400355339050293,2019-08-07 13:18:07:437,-87.81571732095789,137.2671497840038,0,-12.594871520996094,21.591209411621094,-25.489622116088867
0.3896521031856537,0.13552367687225342,9.762697219848633,0.00047149462834221814,-0.0008657387296835611,0.009409380894927086,3.2499992847442627,2019-08-07 13:18:07:447,-89.61320671406934,138.10563667070682,0,-12.594871520996094,21.591209411621094,-25.489622116088867
0.4088101089000702,0.20736616849899292,9.729170799255371,0.0015370192362269886,-0.0013985010498805918,0.01074128705302186,3.260019540786743,2019-08-07 13:18:07:457,-91.37203380398496,138.91823896974338,0,-12.594871520996094,21.591209411621094,-25.489622116088867
0.41838911175727844,0.10199718177318573,9.726776123046875,0.0028689248741731116,0.00019978586194656375,0.015003385094449453,3.2699966430664062,2019-08-07 13:18:07:467,-93.09544481886925,139.7262510910089,0,-12.594871520996094,21.591209411621094,-25.489622116088867
0.46867886185646057,0.17144492268562317,9.781855583190918,0.0020697814914054373,-0.003529550070594388,0.028322441473910682,3.2800190448760986,2019-08-07 13:18:07:477,-94.77668725226519,140.51047907431487,0,-12.594871520996094,21.591209411621094,-25.489622116088867
0.41120487451553345,0.20018191635608673,9.762697219848633,0.004200830512119234,-0.0037959311981836125,0.029920729279743333,3.290017604827881,2019-08-07 13:18:07:487,-96.430784943815,141.27441762198382,0,-12.594871520996094,21.591209411621094,-25.489622116088867
0.4159943759441376,0.0972076803445816,9.839329719543457,0.0020697814914054373,-0.003263168943005164,0.034715590616646676,3.3000094890594482,2019-08-07 13:18:07:497,-98.05191944566073,142.0364473258787,0,-12.594871520996094,21.591209411621094,-25.489622116088867
0.40402060747146606,0.1498921662569046,9.798619270324707,0.0028689248741731116,-0.004328693453362062,0.03205177830045713,3.3100223541259766,2019-08-07 13:18:07:507,-99.64122527103443,142.77657739160418,0,-12.594871520996094,21.591209411621094,-25.489622116088867
0.35373085737228394,0.1427079290151596,9.84411907196045,0.0034016871293515603,-0.003263168943005164,0.03924406718492024,3.319997549057007,2019-08-07 13:18:07:517,-101.20541432173052,143.5025296278839,0,-12.594871520996094,21.591209411621094,-25.489622116088867
0.39204686880111694,0.1307341754436493,9.829751014709473,0.003668068256940785,-0.00566059935138251,0.04297340401146668,3.3300187587738037,2019-08-07 13:18:07:527,-102.73244172869427,144.2151754491556,0,-12.594871520996094,21.591209411621094,-25.489622116088867
0.34654662013053894,0.13312892615795135,9.812987327575684,-0.0016595545549180318,-0.003263168943005164,0.038178544755157945,3.3399972915649414,2019-08-07 13:18:07:537,-104.23551325068757,144.9162565465172,0,-12.594871520996094,21.591209411621094,-25.489622116088867
0.29386213421821594,0.16426067054271698,9.777066230773926,0.0028689248741731116,-0.0048614559686148365,0.04057597646390691,3.3500173091888428,2019-08-07 13:18:07:547,-105.71363623889869,145.59706702439576,0,-12.594871520996094,21.591209411621094,-25.489622116088867
0.2818883955478668,0.14031317830085754,9.753118515014648,-0.0019259356825072562,-0.0048614559686148365,0.03604749573444414,3.359997510910034,2019-08-07 13:18:07:557,-107.16352874042697,146.269720382934,0,-12.145054817199707,22.340904235839844,-25.939437866210938
0.27230939269065857,0.15947116911411285,9.822566032409668,0.0010042569160299579,-0.0037959311981836125,0.03977683256099059,3.370018482208252,2019-08-07 13:18:07:567,-108.58636238970388,146.925158387429,0,-12.145054817199707,22.340904235839844,-25.939437866210938
0.21483539044857025,0.1953924149274826,9.834540367126465,0.004467211899782784,-0.0008657387296835611,0.03285092220337345,3.3800203800201416,2019-08-07 13:18:07:577,-109.98912040995731,147.56138238140386,0,-12.145054817199707,22.340904235839844,-25.939437866210938
0.19328264892101288,0.1307341754436493,9.824960708618164,-0.0005940299795425521,-0.002996787815415939,0.03285092220337345,3.3899991512298584,2019-08-07 13:18:07:587,-111.36511863526961,148.19524054085232,0,-12.145054817199707,22.340904235839844,-25.939437866210938
0.17651939392089844,0.09241817891597748,9.789039611816406,-0.0037906035756318283,-0.002996787815415939,0.024326726120518262,3.4000303745269775,2019-08-07 13:18:07:597,-112.71546700398419,148.82265254359652,0,-12.145054817199707,22.340904235839844,-25.939437866210938
0.15496665239334106,0.14510267972946167,9.836935043334961,0.0020697814914054373,-0.00033297644199582136,0.022994818922126188,3.409996747970581,2019-08-07 13:18:07:607,-114.04292058087964,149.42813927322885,0,-12.145054817199707,22.340904235839844,-25.939437866210938
0.13101914525032043,0.07565493136644363,9.880040168762207,-6.126766340918298e-05,-0.0048614559686148365,0.020331008686531246,3.420017957687378,2019-08-07 13:18:07:617,-115.34413159057428,150.03083645651856,0,-12.145054817199707,22.340904235839844,-25.939437866210938
0.07593990862369537,0.10678667575120926,9.820171356201172,0.001803400363816213,-0.005926980478971734,0.011806811563378757,3.4299981594085693,2019-08-07 13:18:07:627,-116.62506630642143,150.61674868149206,0,-12.145054817199707,22.340904235839844,-25.939437866210938
0.1405981481075287,0.08523393422365189,9.805803298950195,-0.0037906035756318283,-0.006459742734150184,0.0075447130018025145,3.4400172233581543,2019-08-07 13:18:07:637,-117.87250161999032,151.19658591565474,0,-12.145054817199707,22.340904235839844,-25.939437866210938
0.07833465933799744,0.03733893856406212,9.863277435302734,-0.004589746958399502,-6.659528596096748e-05,0.005680045108677942,3.4499998092651367,2019-08-07 13:18:07:647,-119.10591353002461,151.77088882893642,0,-12.145054817199707,22.340904235839844,-25.939437866210938
0.09988740086555481,0.11397092789411545,9.836935043334961,-0.004056984703221053,-0.0008657387296835611,-0.0004467211834764202,3.4600131511688232,2019-08-07 13:18:07:657,-120.31167290434689,152.32447607588944,0,-12.145054817199707,22.340904235839844,-25.939437866210938
0.061571408063173294,0.10678667575120926,9.920751571655273,-0.0019259356825072562,-0.003263168943005164,0.0011515656795867992,3.4700186252593994,2019-08-07 13:18:07:667,-121.49649434512635,152.8667344315168,0,-12.145054817199707,22.340904235839844,-25.939437866210938
0.03762391209602356,0.03733893856406212,9.817776679992676,-0.00272507906527493,-0.005926980478971734,-0.00018034003963255039,3.4800164699554443,2019-08-07 13:18:07:677,-122.6588458011584,153.40657141959088,0,-12.145054817199707,22.340904235839844,-25.939437866210938
0.03762391209602356,0.04452318698167801,9.784250259399414,0.00047149462834221814,-0.0016648821774698163,-0.005507962770218141,3.4900176525115967,2019-08-07 13:18:07:687,-123.80032751540054,153.93296076853017,0,-12.145054817199707,22.340904235839844,-25.939437866210938
0.042413413524627686,0.04691793769598007,9.822566032409668,-0.0008604111071317767,0.001531691613675204,-0.0031105326219151193,3.500014066696167,2019-08-07 13:18:07:697,-124.92023271645446,154.4493110227777,0,-12.145054817199707,22.340904235839844,-25.939437866210938
0.09270315617322922,0.020575689151883125,9.889619827270508,0.0034016871293515603,-0.005127837096204061,-0.005507962770218141,3.510006904602051,2019-08-07 13:18:07:707,-126.00820960056252,154.95603201484457,0,-12.145054817199707,22.340904235839844,-25.939437866210938
0.11186115443706512,0.07326018065214157,9.810592651367188,-0.003524222448042604,-0.003263168943005164,-0.005774343897807364,3.520012855529785,2019-08-07 13:18:07:717,-127.07314679911639,155.4503344816882,0,-12.145054817199707,22.340904235839844,-25.939437866210938
0.1262296438217163,0.034944187849760056,9.858488082885742,0.00020511348449834825,-0.0027304066878267143,-0.004708819387450467,3.5300168991088867,2019-08-07 13:18:07:727,-128.11547844049392,155.93715080344563,0,-12.145054817199707,22.340904235839844,-25.939437866210938
0.06636090576648712,0.05889168381690979,9.851303100585938,-6.126766340918298e-05,-0.00246402556023749,-0.008438155693848261,3.5399961471557617,2019-08-07 13:18:07:737,-129.1440691310847,156.41159184681888,0,-12.145054817199707,22.340904235839844,-25.939437866210938
0.0807294100522995,0.04452318698167801,9.820171356201172,0.0007378757884407334,-0.010189078520399329,-0.0017786268539318336,3.550017833709717,2019-08-07 13:18:07:747,-130.14603408655978,156.87774942096223,0,-12.145054817199707,22.340904235839844,-25.939437866210938
0.07833465933799744,0.02297043986618519,9.791434288024902,0.0007378757884407334,-0.005127837096204061,-0.002844151494325895,3.559998035430908,2019-08-07 13:18:07:757,-131.13107232985448,157.33709265453422,0,-12.145054817199707,22.340904235839844,-25.939437866210938
0.042413413524627686,0.07086542993783951,9.851303100585938,-0.0008604111071317767,-0.002996787815415939,-0.002844151494325895,3.570016860961914,2019-08-07 13:18:07:767,-132.10183147371816,157.782591819558,0,-12.145054817199707,22.340904235839844,-25.939437866210938
0.08791365474462509,0.0517074353992939,9.848908424377441,-0.0008604111071317767,-0.00965631626522088,-0.0015122457263426093,3.5800132751464844,2019-08-07 13:18:07:777,-133.04414634173946,158.22140685051107,0,-12.145054817199707,22.340904235839844,-25.939437866210938
0.054387159645557404,0.11397092789411545,9.846513748168945,0.004999974154961233,0.0004661670057904337,0.0014179468071760237,3.590013027191162,2019-08-07 13:18:07:787,-133.97719576702946,158.64090821106467,0,-12.145054817199707,22.340904235839844,-25.939437866210938
0.0352291613817215,0.05889168381690979,9.805803298950195,-0.0019259356825072562,-0.0013985010498805918,0.004614520598321043,3.5999982357025146,2019-08-07 13:18:07:797,-134.8927508608458,159.06228780155922,0,-12.145054817199707,22.340904235839844,-25.939437866210938
0.06396616250276566,0.0972076803445816,9.772276878356934,0.001803400363816213,-0.0037959311981836125,0.003016233572711371,3.610020160675049,2019-08-07 13:18:07:807,-135.7852590747603,159.4686288388191,0,-11.845176696777344,21.441268920898438,-25.63956069946289
0.10228215157985687,0.10918142646551132,9.741145133972168,0.0012706381086377639,-0.00246402556023749,0.0022170901899436976,3.619994878768921,2019-08-07 13:18:07:817,-136.6561421575723,159.86570140579556,0,-11.845176696777344,21.441268920898438,-25.63956069946289
0.03762391209602356,0.1043919250369072,9.796224594116211,0.0015370192362269886,-0.0037959311981836125,0.0048809017259102685,3.63000750541687,2019-08-07 13:18:07:827,-137.51648416896373,160.2553124468724,0,-11.845176696777344,21.441268920898438,-25.63956069946289
0.05199240893125534,0.07565493136644363,9.829751014709473,-0.0011267922997395827,-0.001132119922291367,0.009409380894927086,3.6400063037872314,2019-08-07 13:18:07:837,-138.35945785421907,160.64201941959527,0,-11.845176696777344,21.441268920898438,-25.63956069946289
0.07593990862369537,0.09960243105888367,9.789039611816406,0.0034016871293515603,-0.0027304066878267143,0.007278331874213289,3.650007724761963,2019-08-07 13:18:07:847,-139.18184592992708,161.01560955086862,0,-11.845176696777344,21.441268920898438,-25.63956069946289
0.025650164112448692,0.0972076803445816,9.853697776794434,0.002602543746583887,-0.006459742734150184,0.008343856384570188,3.6599960327148438,2019-08-07 13:18:07:857,-139.99160318890463,161.38253354238324,0,-11.845176696777344,21.441268920898438,-25.63956069946289
0.061571408063173294,0.1235499233007431,9.860882759094238,0.005799117537728906,-0.0021976444326482656,0.012605954425997783,3.6700074672698975,2019-08-07 13:18:07:867,-140.78338072929128,161.7372661867077,0,-11.845176696777344,21.441268920898438,-25.63956069946289
0.061571408063173294,0.11876042932271957,9.870461463928223,0.0007378757884407334,-0.0019312633050590406,0.008610237512159412,3.6799871921539307,2019-08-07 13:18:07:877,-141.55948284448118,162.08832050744053,0,-11.845176696777344,21.441268920898438,-25.63956069946289
0.10228215157985687,0.15947116911411285,9.84411907196045,0.004999974154961233,0.00019978586194656375,0.008876618639748637,3.690006971359253,2019-08-07 13:18:07:887,-142.3164997501775,162.42517927106368,0,-11.845176696777344,21.441268920898438,-25.63956069946289
0.09509790688753128,0.11157617717981339,9.870461463928223,0.005799117537728906,-0.0016648821774698163,0.01420424223183043,3.699981927871704,2019-08-07 13:18:07:896,-143.05819717525628,162.76047470973452,0,-11.845176696777344,21.441268920898438,-25.63956069946289
0.04720291122794151,0.1498921662569046,9.853697776794434,0.005266355282550457,-0.005394218223793286,0.013937860584092555,3.7100043296813965,2019-08-07 13:18:07:907,-143.78850827655336,163.08487148191983,0,-11.845176696777344,21.441268920898438,-25.63956069946289
0.061571408063173294,0.12115518003702164,9.85609245300293,0.005266355282550457,-0.003263168943005164,0.01367147893635468,3.7199831008911133,2019-08-07 13:18:07:917,-144.50375124787334,163.40613791769454,0,-11.845176696777344,21.441268920898438,-25.63956069946289
0.07833465933799744,0.08283918350934982,9.860882759094238,0.0012706381086377639,-0.002996787815415939,0.0075447130018025145,3.729975461959839,2019-08-07 13:18:07:926,-145.20289187652924,163.72767587552812,0,-11.845176696777344,21.441268920898438,-25.63956069946289
0.09030840545892715,0.09241817891597748,9.839329719543457,0.0071310231756750294,-0.004328693453362062,0.012073192170819333,3.74001407623291,2019-08-07 13:18:07:937,-145.88587682640576,164.03833987625075,0,-11.845176696777344,21.441268920898438,-25.63956069946289
0.07354515790939331,0.10678667575120926,9.798619270324707,-0.00032764881944403687,-0.0021976444326482656,0.004348139470731819,3.7499704360961914,2019-08-07 13:18:07:946,-146.55833000307416,164.34526840178444,0,-11.845176696777344,21.441268920898438,-25.63956069946289
0.11425590515136719,0.10199718177318573,9.85609245300293,0.003135306001762336,-0.004062312325772837,0.011540429915640882,3.7599735260009766,2019-08-07 13:18:07:956,-147.21159838231986,164.64474377172647,0,-11.845176696777344,21.441268920898438,-25.63956069946289
0.08551890403032303,0.10918142646551132,9.793828964233398,-6.126766340918298e-05,0.0007325481658889489,0.012872336073735658,3.7699711322784424,2019-08-07 13:18:07:966,-147.85777185520428,164.93910917285092,0,-11.845176696777344,21.441268920898438,-25.63956069946289
0.1262296438217163,0.06607593595981598,9.822566032409668,0.0028689248741731116,-0.0013985010498805918,0.0075447130018025145,3.7799625396728516,2019-08-07 13:18:07:976,-148.48510650349925,165.23100907259177,0,-11.845176696777344,21.441268920898438,-25.63956069946289
0.11425590515136719,0.14510267972946167,9.796224594116211,0.00020511348449834825,-0.005394218223793286,0.011274049308200309,3.789977550506592,2019-08-07 13:18:07:986,-149.0990064762842,165.5093013696464,0,-11.845176696777344,21.441268920898438,-25.63956069946289
0.12144014984369278,0.03973368555307388,9.791434288024902,0.0012706381086377639,-0.0021976444326482656,0.007011950746624065,3.800124168395996,2019-08-07 13:18:07:997,-149.70156256997095,165.79374131482993,0,-11.845176696777344,21.441268920898438,-25.63956069946289
0.11186115443706512,0.09002342820167542,9.789039611816406,0.00393444938453001,-0.004328693453362062,0.0032826149603749208,3.8099782466888428,2019-08-07 13:18:08:006,-150.29204221207124,166.06515159436486,0,-11.845176696777344,21.441268920898438,-25.63956069946289
0.11186115443706512,0.09960243105888367,9.824960708618164,0.0012706381086377639,-0.004595074841025611,0.0011515656795867992,3.819969892501831,2019-08-07 13:18:08:016,-150.87057724592225,166.33151915494022,0,-11.845176696777344,21.441268920898438,-25.63956069946289
0.08551890403032303,0.13552367687225342,9.808197975158691,0.00020511348449834825,-0.0016648821774698163,0.005680045108677942,3.8299732208251953,2019-08-07 13:18:08:026,-151.44223943271123,166.58894100978932,0,-11.845176696777344,21.441268920898438,-25.63956069946289
0.12383490055799484,0.08762867748737335,9.853697776794434,0.003668068256940785,-0.0016648821774698163,0.009409380894927086,3.8399875164031982,2019-08-07 13:18:08:037,-151.9980581106876,166.8449093010725,0,-11.845176696777344,21.441268920898438,-25.63956069946289
0.10228215157985687,0.11636567860841751,9.829751014709473,0.001803400363816213,-0.006992504989328633,0.003016233572711371,3.8499977588653564,2019-08-07 13:18:08:047,-152.54224340477154,167.0934326293107,0,-11.845176696777344,21.441268920898438,-25.63956069946289
0.09749265760183334,0.1235499233007431,9.841724395751953,0.00047149462834221814,-0.004062312325772837,0.0048809017259102685,3.8599891662597656,2019-08-07 13:18:08:057,-153.07776838286168,167.33691475108978,0,-12.894749641418457,21.291330337524414,-25.189743041992188
0.10946640372276306,0.13312892615795135,9.789039611816406,0.0007378757884407334,-0.0048614559686148365,-0.0007131023435749355,3.869967460632324,2019-08-07 13:18:08:066,-153.6006755174751,167.5741797833647,0,-12.894749641418457,21.291330337524414,-25.189743041992188
0.10946640372276306,0.13552367687225342,9.789039611816406,-0.0032578413204533796,-0.003263168943005164,0.001950709062354473,3.8799753189086914,2019-08-07 13:18:08:076,-154.11401458055474,167.80866336356974,0,-12.894749641418457,21.291330337524414,-25.189743041992188
0.07354515790939331,0.12833942472934723,9.817776679992676,0.00020511348449834825,-0.004595074841025611,-0.005774343897807364,3.8900914192199707,2019-08-07 13:18:08:087,-154.6205402896746,168.03739486377162,0,-12.894749641418457,21.291330337524414,-25.189743041992188
0.11186115443706512,0.1235499233007431,9.820171356201172,-0.00032764881944403687,-0.006459742734150184,-0.004975200515039691,3.900906801223755,2019-08-07 13:18:08:097,-155.11115408566843,168.26242966444116,0,-12.894749641418457,21.291330337524414,-25.189743041992188
0.07593990862369537,0.10199718177318573,9.85609245300293,-0.0019259356825072562,-0.004062312325772837,-0.003643294877093568,3.911041259765625,2019-08-07 13:18:08:108,-155.59779039568605,168.48641877390182,0,-12.894749641418457,21.291330337524414,-25.189743041992188
0.09749265760183334,0.12115518003702164,9.796224594116211,-0.0005940299795425521,-0.0075252672445070825,-0.004975200515039691,3.920264482498169,2019-08-07 13:18:08:117,-156.07053353282575,168.70282660415944,0,-12.894749641418457,21.291330337524414,-25.189743041992188
0.10467690229415894,0.1043919250369072,9.863277435302734,-0.0013931734273288073,-0.0037959311981836125,-0.008171774566259036,3.930023431777954,2019-08-07 13:18:08:127,-156.5348819236182,168.9174056793008,0,-12.894749641418457,21.291330337524414,-25.189743041992188
0.12144014984369278,0.0972076803445816,9.810592651367188,-0.00272507906527493,-0.00033297644199582136,-0.008704536821437486,3.939992666244507,2019-08-07 13:18:08:137,-156.98981393451453,169.12922912069754,0,-12.894749641418457,21.291330337524414,-25.189743041992188
0.06875565648078918,0.1043919250369072,9.81538200378418,0.0012706381086377639,-0.002996787815415939,-0.004708819387450467,3.950289249420166,2019-08-07 13:18:08:147,-157.44025817807352,169.33372294070955,0,-12.894749641418457,21.291330337524414,-25.189743041992188
0.054387159645557404,0.13791842758655548,9.801013946533203,-0.0013931734273288073,-0.006459742734150184,-0.007106249535753488,3.959967613220215,2019-08-07 13:18:08:156,-157.8815837633811,169.53168149488488,0,-12.894749641418457,21.291330337524414,-25.189743041992188
0.05917666107416153,0.13312892615795135,9.887224197387695,0.003668068256940785,-0.001132119922291367,-0.007639012311080588,3.969989538192749,2019-08-07 13:18:08:167,-158.31645659941995,169.72355520814722,0,-12.894749641418457,21.291330337524414,-25.189743041992188
0.08551890403032303,0.07326018065214157,9.817776679992676,-0.0037906035756318283,-0.0021976444326482656,-0.007106249535753488,3.9800329208374023,2019-08-07 13:18:08:177,-158.7389067590336,169.92267110099024,0,-12.145054817199707,21.741147994995117,-24.739927291870117
0.08551890403032303,0.08044443279504776,9.846513748168945,0.003668068256940785,-0.0013985010498805918,-0.007106249535753488,3.989999771118164,2019-08-07 13:18:08:187,-159.15339371899785,170.11280315351726,0,-12.145054817199707,21.741147994995117,-24.739927291870117
0.09988740086555481,0.10199718177318573,9.78664493560791,0.0012706381086377639,-0.00566059935138251,-0.006573487280575038,4.0000433921813965,2019-08-07 13:18:08:197,-159.55543817872126,170.29788812682682,0,-12.145054817199707,21.741147994995117,-24.739927291870117
0.11425590515136719,0.0972076803445816,9.8848295211792,0.003668068256940785,-0.005394218223793286,-0.005241581642628916,4.010004281997681,2019-08-07 13:18:08:207,-159.94806769549598,170.4786102025467,0,-12.145054817199707,21.741147994995117,-24.739927291870117
0.07593990862369537,0.06847068667411804,9.781855583190918,0.00020511348449834825,-0.006992504989328633,-0.007106249535753488,4.020082235336304,2019-08-07 13:18:08:217,-160.33625349480747,170.6609009213452,0,-12.145054817199707,21.741147994995117,-24.739927291870117
0.12144014984369278,0.08523393422365189,9.860882759094238,0.0007378757884407334,-0.003263168943005164,-0.006573487280575038,4.0299973487854,2019-08-07 13:18:08:227,-160.71360008372955,170.8373674669071,0,-12.145054817199707,21.741147994995117,-24.739927291870117
0.10946640372276306,0.1043919250369072,9.772276878356934,0.001803400363816213,-0.003529550070594388,-0.005774343897807364,4.040034532546997,2019-08-07 13:18:08:237,-161.08450317547528,171.00736301734327,0,-12.145054817199707,21.741147994995117,-24.739927291870117
0.1262296438217163,0.1043919250369072,9.853697776794434,0.002336162618994662,-0.0048614559686148365,-0.00604072502539659,4.049997329711914,2019-08-07 13:18:08:247,-161.4454147514888,171.17376929411373,0,-12.145054817199707,21.741147994995117,-24.739927291870117
0.1262296438217163,0.12115518003702164,9.81538200378418,0.00020511348449834825,-0.004328693453362062,-0.007372630663342713,4.06012225151062,2019-08-07 13:18:08:257,-161.7993094286254,171.33603352306227,0,-12.145054817199707,21.741147994995117,-24.739927291870117
0.152571901679039,0.06607593595981598,9.851303100585938,0.0034016871293515603,-0.00246402556023749,-0.007639012311080588,4.070001125335693,2019-08-07 13:18:08:267,-162.14421052053402,171.49974002733066,0,-12.145054817199707,21.741147994995117,-24.739927291870117
0.17651939392089844,0.06128643453121185,9.870461463928223,0.0015370192362269886,-0.003529550070594388,-0.008171774566259036,4.080000877380371,2019-08-07 13:18:08:277,-162.47885360887778,171.66176722967714,0,-12.145054817199707,21.741147994995117,-24.739927291870117
0.12383490055799484,0.06607593595981598,9.851303100585938,0.0015370192362269886,-0.0008657387296835611,-0.0033769137495043436,4.090090274810791,2019-08-07 13:18:08:287,-162.81438221186886,171.81997521737722,0,-12.145054817199707,21.741147994995117,-24.739927291870117
0.15736140310764313,0.1235499233007431,9.851303100585938,0.004467211899782784,-0.003263168943005164,-0.005241581642628916,4.100000619888306,2019-08-07 13:18:08:297,-163.13797581616194,171.96671914374315,0,-12.145054817199707,21.741147994995117,-24.739927291870117
0.2315986305475235,0.11157617717981339,9.820171356201172,-6.126766340918298e-05,0.002330834996442878,-0.003909676004682793,4.110064744949341,2019-08-07 13:18:08:307,-163.44951322243725,172.11440012161182,0,-12.145054817199707,20.841514587402344,-26.539194107055664
0.18849314749240875,0.09960243105888367,9.805803298950195,-6.126766340918298e-05,-0.005394218223793286,-0.005241581642628916,4.120007276535034,2019-08-07 13:18:08:317,-163.75548674038026,172.26050708772476,0,-12.145054817199707,20.841514587402344,-26.539194107055664
0.15017715096473694,0.11636567860841751,9.8034086227417,-0.0008604111071317767,-0.006193361606560959,-0.005774343897807364,4.1300883293151855,2019-08-07 13:18:08:327,-164.059318494794,172.40218269353704,0,-12.145054817199707,20.841514587402344,-26.539194107055664
0.1717298924922943,0.10199718177318573,9.767487525939941,0.001803400363816213,-0.005926980478971734,-0.0033769137495043436,4.139998197555542,2019-08-07 13:18:08:337,-164.3546889600966,172.54116974832206,0,-12.145054817199707,20.841514587402344,-26.539194107055664
0.12862439453601837,0.13552367687225342,9.877645492553711,-0.0016595545549180318,-0.004328693453362062,-0.007106249535753488,4.150073289871216,2019-08-07 13:18:08:347,-164.65022537173266,172.67556393670986,0,-12.145054817199707,20.841514587402344,-26.539194107055664
0.107071653008461,0.08044443279504776,9.846513748168945,0.00047149462834221814,-0.006193361606560959,-0.00950367968405651,4.15999698638916,2019-08-07 13:18:08:357,-164.94130956308626,172.81242819678394,0,-12.145054817199707,20.841514587402344,-26.539194107055664
0.15496665239334106,0.11876042932271957,9.841724395751953,-0.0013931734273288073,-0.005926980478971734,-0.010302823586972834,4.170068740844727,2019-08-07 13:18:08:367,-165.22108953734016,172.94314037890751,0,-12.145054817199707,20.841514587402344,-26.539194107055664
0.06636090576648712,0.13791842758655548,9.81538200378418,-0.0016595545549180318,-0.005127837096204061,-0.010302823586972834,4.180000066757202,2019-08-07 13:18:08:377,-165.50606093305953,173.06910251795463,0,-12.145054817199707,20.841514587402344,-26.539194107055664
0.054387159645557404,0.1498921662569046,9.8034086227417,-0.0037906035756318283,-0.006726123861739408,-0.009237299076615935,4.190065145492554,2019-08-07 13:18:08:387,-165.78578120365617,173.19234328170594,0,-12.145054817199707,20.841514587402344,-26.539194107055664
0.06875565648078918,0.1834186613559723,9.820171356201172,-0.0005940299795425521,-0.007258886116917857,-0.018560639062387443,4.199994802474976,2019-08-07 13:18:08:397,-166.0579954306756,173.307426985431,0,-12.145054817199707,20.841514587402344,-26.539194107055664
0.05917666107416153,0.12594467401504517,9.832145690917969,-0.0008604111071317767,-0.006193361606560959,-0.019093400277268593,4.210057497024536,2019-08-07 13:18:08:407,-166.32643932527807,173.4270868141551,0,-12.145054817199707,20.841514587402344,-26.539194107055664
0.028044912964105606,0.0780496820807457,9.836935043334961,-0.0019259356825072562,-0.0075252672445070825,-0.02335550039929079,4.220008134841919,2019-08-07 13:18:08:417,-166.59243899458863,173.55052924588878,0,-12.145054817199707,20.841514587402344,-26.539194107055664
0.004097416531294584,0.13791842758655548,9.808197975158691,-0.004589746958399502,-0.005394218223793286,-0.02015892478762549,4.2300803661346436,2019-08-07 13:18:08:427,-166.85706077966015,173.6660021296702,0,-12.145054817199707,20.841514587402344,-26.539194107055664
0.05199240893125534,0.13552367687225342,9.822566032409668,-0.00032764881944403687,-0.004328693453362062,-0.021490831986017565,4.240156173706055,2019-08-07 13:18:08:437,-167.11140512575966,173.77705805961605,0,-12.145054817199707,20.841514587402344,-26.539194107055664
0.054387159645557404,0.16186591982841492,9.918355941772461,0.00047149462834221814,-0.004062312325772837,-0.026285691242326308,4.249988794326782,2019-08-07 13:18:08:447,-167.3606506709613,173.88255709419767,0,-12.145054817199707,20.841514587402344,-26.539194107055664
0.05199240893125534,0.14031317830085754,9.824960708618164,-0.0013931734273288073,-0.006459742734150184,-0.023621881006731363,4.259960174560547,2019-08-07 13:18:08:456,-167.60375692252504,173.98932193046247,0,-12.145054817199707,20.841514587402344,-26.539194107055664
0.06875565648078918,0.13312892615795135,9.875250816345215,-0.004323365830810277,-0.00566059935138251,-0.020958068690541815,4.269968748092651,2019-08-07 13:18:08:466,-167.84052242203106,174.09651790710032,0,-12.145054817199707,20.841514587402344,-26.539194107055664
0.06875565648078918,0.09241817891597748,9.798619270324707,-0.0013931734273288073,-0.002996787815415939,-0.01935978296530377,4.280014753341675,2019-08-07 13:18:08:477,-168.0739809290684,174.20456573783588,0,-12.145054817199707,20.841514587402344,-26.539194107055664
0.06396616250276566,0.1235499233007431,9.827356338500977,0.0020697814914054373,-0.005394218223793286,-0.019626163572744344,4.289992094039917,2019-08-07 13:18:08:487,-168.30202067985317,174.30490913857176,0,-12.145054817199707,20.841514587402344,-26.539194107055664
0.09509790688753128,0.12594467401504517,9.887224197387695,-0.0016595545549180318,-0.006193361606560959,-0.014564921628400425,4.299976825714111,2019-08-07 13:18:08:496,-168.52148663596387,174.40514534679983,0,-12.145054817199707,20.841514587402344,-26.539194107055664
0.07593990862369537,0.0780496820807457,9.772276878356934,0.004733593027372009,-0.0016648821774698163,-0.013233016510602954,4.30997109413147,2019-08-07 13:18:08:506,-168.74121793251598,174.50523399911347,0,-12.145054817199707,20.841514587402344,-26.539194107055664
0.08791365474462509,0.11157617717981339,9.870461463928223,0.004733593027372009,-0.004328693453362062,-0.00950367968405651,4.319953680038452,2019-08-07 13:18:08:516,-168.953761146212,174.59952310763632,0,-12.145054817199707,20.841514587402344,-26.539194107055664
0.05678191035985947,0.08762867748737335,9.810592651367188,-6.126766340918298e-05,-0.002996787815415939,-0.011368348097329731,4.3299641609191895,2019-08-07 13:18:08:526,-169.16636919225442,174.69733198319338,0,-12.145054817199707,20.841514587402344,-26.539194107055664
0.08312415331602097,0.09960243105888367,9.793828964233398,0.0034016871293515603,-0.004595074841025611,-0.007905393438669812,4.339989185333252,2019-08-07 13:18:08:537,-169.3707296119694,174.78981705597863,0,-12.145054817199707,20.841514587402344,-26.539194107055664
0.10946640372276306,0.04452318698167801,9.741145133972168,0.002602543746583887,-0.007791648372096307,-0.0009794834711641602,4.349964380264282,2019-08-07 13:18:08:546,-169.56607415399898,174.8873254932342,0,-12.145054817199707,20.841514587402344,-26.539194107055664
0.09749265760183334,0.06128643453121185,9.801013946533203,0.0010042569160299579,-0.0048614559686148365,0.00061880342440835,4.359971523284912,2019-08-07 13:18:08:556,-169.76062274318386,174.981849293716,0,-12.294994354248047,21.591209411621094,-25.789499282836914
0.11425590515136719,0.0517074353992939,9.796224594116211,0.00020511348449834825,-0.003529550070594388,0.003016233572711371,4.369966506958008,2019-08-07 13:18:08:566,-169.9500649405109,175.07604876187804,0,-12.294994354248047,21.591209411621094,-25.789499282836914
0.11665065586566925,0.04691793769598007,9.784250259399414,0.002336162618994662,-0.005127837096204061,0.003016233572711371,4.37996768951416,2019-08-07 13:18:08:576,-170.13452273846906,175.1677209684066,0,-12.294994354248047,21.591209411621094,-25.789499282836914
0.14299289882183075,0.034944187849760056,9.841724395751953,0.004999974154961233,-0.00566059935138251,0.00061880342440835,4.389967441558838,2019-08-07 13:18:08:586,-170.3120058181205,175.25749045039976,0,-12.294994354248047,21.591209411621094,-25.789499282836914
0.10467690229415894,0.03733893856406212,9.805803298950195,0.0012706381086377639,-0.005394218223793286,0.004348139470731819,4.4000818729400635,2019-08-07 13:18:08:597,-170.4904700173619,175.34725557245483,0,-12.294994354248047,21.591209411621094,-25.789499282836914
0.16215088963508606,0.03254943713545799,9.858488082885742,0.002602543746583887,-0.006459742734150184,-0.0009794834711641602,4.410190582275391,2019-08-07 13:18:08:607,-170.65814790659127,175.43504983321526,0,-12.294994354248047,21.591209411621094,-25.789499282836914
0.09749265760183334,0.07565493136644363,9.829751014709473,0.00047149462834221814,-0.006726123861739408,-0.0009794834711641602,4.420007228851318,2019-08-07 13:18:08:617,-170.8299125297629,175.51726955246664,0,-12.294994354248047,21.591209411621094,-25.789499282836914
0.13580864667892456,0.07565493136644363,9.834540367126465,0.001803400363816213,-0.010988222423315652,-0.0009794834711641602,4.430025577545166,2019-08-07 13:18:08:627,-170.9913097383694,175.5970945967233,0,-12.294994354248047,21.591209411621094,-25.789499282836914
0.107071653008461,0.07086542993783951,9.853697776794434,-0.0011267922997395827,-0.005127837096204061,0.004348139470731819,4.440017461776733,2019-08-07 13:18:08:637,-171.15615541836624,175.67754387577665,0,-12.294994354248047,21.591209411621094,-25.789499282836914
0.10228215157985687,0.09960243105888367,9.939908981323242,0.00020511348449834825,-0.009389935657780304,0.0016843279347652483,4.450027942657471,2019-08-07 13:18:08:647,-171.31596323638198,175.75239549294844,0,-12.294994354248047,21.591209411621094,-25.789499282836914
0.11186115443706512,0.1498921662569046,9.84411907196045,0.004733593027372009,-0.004595074841025611,-0.0033769137495043436,4.4600231647491455,2019-08-07 13:18:08:657,-171.47404431490276,175.81724393150984,0,-12.294994354248047,21.591209411621094,-25.789499282836914
0.13101914525032043,0.11157617717981339,9.772276878356934,0.002602543746583887,-0.002996787815415939,-0.0033769137495043436,4.470026016235352,2019-08-07 13:18:08:667,-171.62751762524766,175.8863542472445,0,-12.294994354248047,21.591209411621094,-25.789499282836914
0.14778240025043488,0.10678667575120926,9.834540367126465,0.0020697814914054373,-0.00912355401004243,0.0011515656795867992,4.480018854141235,2019-08-07 13:18:08:677,-171.7726298452032,175.955023575563,0,-12.294994354248047,21.591209411621094,-25.789499282836914
0.10946640372276306,0.16665542125701904,9.789039611816406,0.007397404303264255,-0.008324410627274756,8.60411123386422e-05,4.490025758743286,2019-08-07 13:18:08:687,-171.91968615394288,176.01225962387355,0,-12.294994354248047,21.591209411621094,-25.789499282836914
0.08791365474462509,0.13552367687225342,9.765092849731445,0.004733593027372009,-0.006193361606560959,-0.004708819387450467,4.500005483627319,2019-08-07 13:18:08:697,-172.06750569142775,176.07345948232398,0,-12.294994354248047,21.591209411621094,-25.789499282836914
0.11665065586566925,0.10678667575120926,9.851303100585938,0.003668068256940785,-0.006726123861739408,-0.0041760571322720175,4.510014533996582,2019-08-07 13:18:08:707,-172.20880713772277,176.1375077434523,0,-12.294994354248047,21.591209411621094,-25.789499282836914
0.09270315617322922,0.11636567860841751,9.760302543640137,-0.002192316810096481,-0.002996787815415939,-0.00604072502539659,4.520019769668579,2019-08-07 13:18:08:717,-172.35206386584994,176.20232786407786,0,-12.294994354248047,21.591209411621094,-25.789499282836914
