ACCELEROMETER X (m/s²),ACCELEROMETER Y (m/s²),ACCELEROMETER Z (m/s²),GYROSCOPE X (rad/s),GYROSCOPE Y (rad/s),GYROSCOPE Z (rad/s),Pitch (Deg),Roll (Deg),Heading (Deg),Time since start in ms ,YYYY-MO-DD HH-MI-SS_SSS
-0.03688393533229828,-0.1833564043045044,9.868440628051758,6.393147468507523e-05,-0.002023963937460091,0.004007171627417612,3.595717086284184,-3.578711247595212,0,0.0,2019-08-06 14:28:36:511
-0.05843668058514595,-0.22646190226078033,9.856466293334961,0.0011294561110154748,0.0006398475334878987,0.0026752657293971638,7.116896859014178,-7.081011006895476,0,0.0031201839447021484,2019-08-06 14:28:36:514
-0.07280518114566803,-0.19772490859031677,9.849282264709473,0.004059648644534107,-0.003888631830584663,0.0026752657293971638,10.566856975925973,-10.51719177402386,0,0.0066394805908203125,2019-08-06 14:28:36:517
-0.005752188619226217,-0.2216724008321762,9.854071617126465,0.0005966937908184444,-0.0014912016822816417,0.0008105978362725917,13.95513206140234,-13.88118682151033,0,0.009997129440307617,2019-08-06 14:28:36:521
-0.048857681453228,-0.2096986472606659,9.916335105895996,0.0019285994937831485,-0.002023963937460091,0.004539933882596061,17.270738850201347,-17.17967281879281,0,0.013123512268066406,2019-08-06 14:28:36:524
-0.05364718288183212,-0.1953301578760147,9.815755844116211,-0.002599880065345157,-0.0006920582344953867,0.0026752657293971638,20.519197245959695,-20.412768073686365,0,0.016623735427856445,2019-08-06 14:28:36:527
-0.09675268083810806,-0.21927765011787415,9.846887588500977,0.0024613618789987605,-0.0014912016822816417,0.004539933882596061,23.697835185743067,-23.57946259553675,0,0.019979238510131836,2019-08-06 14:28:36:531
0.003826810047030449,-0.18096165359020233,9.882808685302734,0.0021949807514095357,-0.004687775213352337,0.0018761223466294901,19.6251433650294,-26.687277609879402,0,0.02309894561767578,2019-08-06 14:28:36:534
-0.09196317940950394,-0.23843564093112946,9.887598037719727,-0.0012679742973618717,-0.00255672619263854,0.00507269613777451,22.822488272114853,-29.725653415772296,0,0.026619911193847656,2019-08-06 14:28:36:537
-0.000962689402513206,-0.21448814868927002,9.88520336151123,0.0016622183661939237,-0.0028231073202277645,0.002408884601807939,25.966461232864567,-32.706594891508644,0,0.029990673065185547,2019-08-06 14:28:36:541
-0.09914742410182953,-0.25040939450263977,9.849282264709473,0.0016622183661939237,-0.0017575828098708665,0.0018761223466294901,29.03590604236004,-35.623627562283836,0,0.033121347427368164,2019-08-06 14:28:36:544
-0.02969968505203724,-0.23364615440368652,9.818150520324707,0.002727743006587985,-0.00255672619263854,0.0037407904998283874,32.05227255469499,-38.484478227313424,0,0.03695940971374512,2019-08-06 14:28:36:548
-0.0680156797170639,-0.22646190226078033,9.849282264709473,0.002727743006587985,-0.005753299723709235,0.0021425034742187147,35.0043115846117,-41.28891857650163,0,0.040047645568847656,2019-08-06 14:28:36:551
-0.07998942583799362,-0.24083039164543152,9.918729782104492,-0.0010015931047540657,-0.004421394085763112,0.005339077265363735,37.895761323242134,-44.03514640709005,0,0.04317736625671387,2019-08-06 14:28:36:554
-0.11112117767333984,-0.21927765011787415,9.784624099731445,0.0024613618789987605,-0.0030894884478169893,0.0026752657293971638,40.725440888080996,-46.729251754502705,0,0.04668259620666504,2019-08-06 14:28:36:557
-0.02969968505203724,-0.2025144100189209,9.866044998168945,6.393147468507523e-05,-0.004155012958173888,-0.0005213078992014032,43.50825131667208,-49.37116032635109,0,0.049977779388427734,2019-08-06 14:28:36:561
-0.17577941715717316,-0.16898790001869202,9.904361724853516,0.002727743006587985,0.00010708522141819095,0.00507269613777451,46.21773228083612,-51.96466643226843,0,0.05310511589050293,2019-08-06 14:28:36:564
-0.09675268083810806,-0.19054065644741058,9.961835861206055,0.004059648644534107,-0.0033558695754062136,0.0042735527550068365,48.882907887716,-54.50425548520426,0,0.056604623794555664,2019-08-06 14:28:36:567
-0.07041043043136597,-0.2025144100189209,9.892387390136719,6.393147468507523e-05,-0.002023963937460091,0.0037407904998283874,51.4974774312856,-56.99072688504743,0,0.059981584548950195,2019-08-06 14:28:36:571
-0.09914742410182953,-0.2360409051179886,9.892387390136719,-0.0012679742973618717,-0.004155012958173888,0.004806315010185286,54.05677355705301,-59.42335212283026,0,0.06311202049255371,2019-08-06 14:28:36:574
-0.08956842869520187,-0.19293540716171265,9.827729225158691,0.0019285994937831485,-0.004954156340941561,0.004539933882596061,56.56616437070291,-61.812769147067165,0,0.06659793853759766,2019-08-06 14:28:36:577
-0.07041043043136597,-0.2025144100189209,9.945072174072266,0.0016622183661939237,-0.00255672619263854,0.0016097412190402653,59.027213181920004,-64.15349766900354,0,0.0699760913848877,2019-08-06 14:28:36:581
-0.10154217481613159,-0.20490914583206177,9.870835304260254,0.0016622183661939237,-0.003888631830584663,0.003474409372239163,61.435562581105046,-66.44693427651846,0,0.07309675216674805,2019-08-06 14:28:36:584
-0.10154217481613159,-0.20730389654636383,9.806177139282227,0.0013958372386046994,-0.003622250702995438,0.0018761223466294901,63.79570022094227,-68.69404965793365,0,0.07660889625549316,2019-08-06 14:28:36:587
-0.07759468257427216,-0.1953301578760147,9.856466293334961,0.00033031263071992917,-0.0014912016822816417,0.006404601775720633,66.11104817805175,-70.89752517366401,0,0.07998824119567871,2019-08-06 14:28:36:591
-0.05125243216753006,-0.22406715154647827,9.87322998046875,6.393147468507523e-05,-0.003622250702995438,0.0042735527550068365,68.3835258356964,-73.05358467326204,0,0.08316969871520996,2019-08-06 14:28:36:594
-0.12309492379426956,-0.25759363174438477,9.866044998168945,0.003260505261766434,-0.0009584393620846114,0.006138220648131409,70.6017521100391,-75.16325820758128,0,0.08675980567932129,2019-08-06 14:28:36:597
-0.10633167624473572,-0.23125140368938446,9.940282821655273,-0.0020671176801295454,-0.0028231073202277645,0.002941646856986388,72.77797134490056,-77.23296450389812,0,0.08998799324035645,2019-08-06 14:28:36:601
-0.04646293446421623,-0.1953301578760147,9.842098236083984,0.000863074918407669,-0.0009584393620846114,0.0016097412190402653,74.9171703873214,-79.26571728912974,0,0.09311175346374512,2019-08-06 14:28:36:604
-0.14464767277240753,-0.21927765011787415,9.94267749786377,0.0013958372386046994,-0.004421394085763112,0.0037407904998283874,77.00302533019374,-81.25540887708662,0,0.09660863876342773,2019-08-06 14:28:36:607
-0.06562092900276184,-0.2216724008321762,9.882808685302734,0.00033031263071992917,-0.003622250702995438,0.0037407904998283874,79.0560471692034,-83.20466501865467,0,0.100006103515625,2019-08-06 14:28:36:611
-0.05364718288183212,-0.19054065644741058,9.86365032196045,0.00033031263071992917,-0.0009584393620846114,0.002408884601807939,81.06886269763041,-85.11849650477227,0,0.10314464569091797,2019-08-06 14:28:36:614
-0.09196317940950394,-0.21448814868927002,9.830123901367188,-0.0020671176801295454,-0.005220537468530785,0.0026752657293971638,83.03779321601279,-86.99072030716516,0,0.10665082931518555,2019-08-06 14:28:36:617
-0.07519993185997009,-0.19293540716171265,9.921124458312988,-0.0012679742973618717,-0.0006920582344953867,0.004539933882596061,84.96848105695413,-88.82838722170486,0,0.10997891426086426,2019-08-06 14:28:36:621
-0.06562092900276184,-0.20011965930461884,9.86365032196045,0.003260505261766434,-0.0022903450650493154,0.005605458392952959,86.86188922984016,-90.6291448330618,0,0.1130988597869873,2019-08-06 14:28:36:624
-0.06322617828845978,-0.20011965930461884,9.84449291229248,0.002727743006587985,-0.003888631830584663,0.002941646856986388,88.71806210739898,-92.39381114362833,0,0.11662626266479492,2019-08-06 14:28:36:627
-0.05843668058514595,-0.2096986472606659,9.96423053741455,0.0035268863893556587,-0.004687775213352337,0.005871839520542184,90.53786528824966,-94.12248816121611,0,0.11998748779296875,2019-08-06 14:28:36:631
-0.08477892726659775,-0.252804160118103,9.818150520324707,-0.001534355424951096,-0.00255672619263854,0.003474409372239163,92.31766223237398,-95.8102697411343,0,0.12311434745788574,2019-08-06 14:28:36:634
-0.08238417655229568,-0.19293540716171265,9.870835304260254,0.0016622183661939237,-0.003622250702995438,0.004007171627417612,94.06245520840402,-97.47199496680702,0,0.12660551071166992,2019-08-06 14:28:36:637
-0.10393692553043365,-0.18096165359020233,9.933098793029785,-0.0004688308170663259,-0.0017575828098708665,0.003474409372239163,95.76955305977812,-99.10159113136402,0,0.1300206184387207,2019-08-06 14:28:36:641
-0.13027916848659515,-0.22406715154647827,9.837308883666992,0.002994124134177209,-0.004155012958173888,0.004806315010185286,97.43971187506035,-100.69398525889703,0,0.13312721252441406,2019-08-06 14:28:36:644
-0.094357930123806,-0.259988397359848,9.870835304260254,-0.0004688308170663259,-0.0030894884478169893,0.0026752657293971638,99.08056994269526,-102.24983823240171,0,0.13662099838256836,2019-08-06 14:28:36:647
-0.020120687782764435,-0.21448814868927002,9.851676940917969,0.002727743006587985,-0.0017575828098708665,0.006404601775720633,100.69694934450548,-103.7804108057314,0,0.13997673988342285,2019-08-06 14:28:36:651
-0.11112117767333984,-0.2216724008321762,9.84449291229248,0.0005966937908184444,-0.0017575828098708665,0.0042735527550068365,102.27038458616204,-105.27910859897628,0,0.14310145378112793,2019-08-06 14:28:36:654
-0.12309492379426956,-0.23364615440368652,9.79420280456543,-0.0012679742973618717,-0.003622250702995438,0.005871839520542184,103.81128423277833,-106.74594710753475,0,0.14658546447753906,2019-08-06 14:28:36:657
-0.08717367798089981,-0.19054065644741058,9.830123901367188,0.002994124134177209,-0.0030894884478169893,0.003474409372239163,105.32548565414774,-108.18938993191881,0,0.149979829788208,2019-08-06 14:28:36:661
-0.09675268083810806,-0.20730389654636383,9.897176742553711,-0.0004688308170663259,-0.005753299723709235,0.005339077265363735,106.80878565843761,-109.6015211354566,0,0.15311121940612793,2019-08-06 14:28:36:664
-0.07519993185997009,-0.16659316420555115,9.861255645751953,0.000863074918407669,-0.005753299723709235,0.006404601775720633,108.2650011764714,-110.99030324466162,0,0.15660786628723145,2019-08-06 14:28:36:667
-0.11591067165136337,-0.259988397359848,9.83491325378418,0.0016622183661939237,-0.004687775213352337,0.003208027984575613,109.68708412264839,-112.34052642750449,0,0.15998029708862305,2019-08-06 14:28:36:671
-0.015331187285482883,-0.22646190226078033,9.930704116821289,0.000863074918407669,-0.0028231073202277645,0.00507269613777451,111.09206758247737,-113.66773981629899,0,0.16309809684753418,2019-08-06 14:28:36:674
-0.012936437502503395,-0.2360409051179886,9.887598037719727,0.0013958372386046994,-0.00255672619263854,0.0037407904998283874,112.46923696040129,-114.9673128612132,0,0.16665053367614746,2019-08-06 14:28:36:677
-0.041673433035612106,-0.2288566529750824,9.858860969543457,-0.0010015931047540657,-0.0022903450650493154,0.0016097412190402653,113.81543989593546,-116.24118223220786,0,0.17000532150268555,2019-08-06 14:28:36:681
-0.13746342062950134,-0.21209339797496796,9.918729782104492,0.00033031263071992917,-0.0022903450650493154,0.0026752657293971638,115.12365293020314,-117.49191705018085,0,0.17313146591186523,2019-08-06 14:28:36:684
-0.024910185486078262,-0.19054065644741058,9.842098236083984,-0.0004688308170663259,-0.002023963937460091,0.004539933882596061,116.41872237361693,-118.71979426214284,0,0.17702770233154297,2019-08-06 14:28:36:688
-0.10393692553043365,-0.1761721521615982,9.870835304260254,0.0013958372386046994,-0.005220537468530785,0.005339077265363735,117.67930259381735,-119.9252213589113,0,0.18050861358642578,2019-08-06 14:28:36:691
-0.13506866991519928,-0.2216724008321762,9.830123901367188,-0.00020244967322245603,-0.0017575828098708665,0.003474409372239163,118.91028274878317,-121.1008447957751,0,0.1836540699005127,2019-08-06 14:28:36:694
-0.1278844177722931,-0.23125140368938446,9.945072174072266,6.393147468507523e-05,-0.0028231073202277645,0.005871839520542184,120.11774355646422,-122.25219596456712,0,0.18618416786193848,2019-08-06 14:28:36:697
-0.07759468257427216,-0.1833564043045044,9.79420280456543,0.0016622183661939237,-0.004421394085763112,0.0013433600914510408,121.30726253488474,-123.38605994090933,0,0.1900196075439453,2019-08-06 14:28:36:701
-0.07998942583799362,-0.21688289940357208,9.751097679138184,0.000863074918407669,-0.0017575828098708665,0.006138220648131409,122.47202592481035,-124.49300710623338,0,0.193145751953125,2019-08-06 14:28:36:704
-0.13267391920089722,-0.17377740144729614,9.86365032196045,0.000863074918407669,-0.003888631830584663,0.0026752657293971638,123.60793899663504,-125.58313039910777,0,0.1966545581817627,2019-08-06 14:28:36:707
-0.1135159283876419,-0.23125140368938446,9.763071060180664,-0.001534355424951096,-0.0033558695754062136,0.00507269613777451,124.7230876151221,-126.64404207382292,0,0.20000028610229492,2019-08-06 14:28:36:711
-0.05843668058514595,-0.22646190226078033,9.897176742553711,0.0011294561110154748,-0.006552443626625559,0.007203745158488308,125.82301176801087,-127.68514410803,0,0.20313072204589844,2019-08-06 14:28:36:714
-0.05843668058514595,-0.1761721521615982,9.868440628051758,-0.00020244967322245603,-0.006019680851298459,0.002408884601807939,126.90094843606751,-128.71094665924784,0,0.20662903785705566,2019-08-06 14:28:36:717
-0.04406818374991417,-0.21209339797496796,9.846887588500977,0.0013958372386046994,-0.00042567707439687154,0.006404601775720633,127.95788119219142,-129.71231202167053,0,0.20997834205627441,2019-08-06 14:28:36:721
-0.09914742410182953,-0.252804160118103,9.770255088806152,-0.00020244967322245603,-0.0030894884478169893,0.005605458392952959,128.9876378193019,-130.68838642201243,0,0.2131054401397705,2019-08-06 14:28:36:724
-0.034489184617996216,-0.23125140368938446,9.889992713928223,6.393147468507523e-05,-0.0017575828098708665,0.007736507413666756,130.004235650058,-131.64784197144152,0,0.21661853790283203,2019-08-06 14:28:36:727
-0.03209443390369415,-0.23125140368938446,9.86365032196045,0.004059648644534107,-0.00255672619263854,0.004007171627417612,131.0009066080549,-132.58879318422814,0,0.21999168395996094,2019-08-06 14:28:36:731
-0.13267391920089722,-0.18575115501880646,9.916335105895996,0.00033031263071992917,-0.003888631830584663,0.007203745158488308,131.9662702185421,-133.51561524299987,0,0.22325444221496582,2019-08-06 14:28:36:734
-0.0680156797170639,-0.2360409051179886,9.918729782104492,-0.0020671176801295454,0.00010708522141819095,0.005605458392952959,132.91906593547,-134.41763051683526,0,0.22676658630371094,2019-08-06 14:28:36:737
-0.056041933596134186,-0.2025144100189209,9.846887588500977,0.0019285994937831485,-0.005220537468530785,0.0010769789638618162,133.85510387302958,-135.30606156222595,0,0.22997665405273438,2019-08-06 14:28:36:741
-0.07759468257427216,-0.2216724008321762,9.88520336151123,-0.0020671176801295454,-0.0012248205546924172,0.005605458392952959,134.76922157880162,-136.17388576132694,0,0.23309636116027832,2019-08-06 14:28:36:744
-0.05843668058514595,-0.20730389654636383,9.86365032196045,0.000863074918407669,-0.005220537468530785,0.0042735527550068365,135.66807042496924,-137.02649691376863,0,0.23658323287963867,2019-08-06 14:28:36:747
-0.06322617828845978,-0.20730389654636383,10.009730339050293,-0.0012679742973618717,-0.0030894884478169893,0.0037407904998283874,136.5480604250759,-137.86199626133003,0,0.23998117446899414,2019-08-06 14:28:36:751
-0.09196317940950394,-0.2216724008321762,9.854071617126465,0.0019285994937831485,-0.0022903450650493154,0.007203745158488308,137.40680772271259,-138.67932161698937,0,0.24311065673828125,2019-08-06 14:28:36:754
-0.0680156797170639,-0.22646190226078033,9.870835304260254,0.0011294561110154748,-0.004421394085763112,0.0037407904998283874,138.25164050632628,-139.47967051845808,0,0.24659419059753418,2019-08-06 14:28:36:757
-0.02969968505203724,-0.23364615440368652,9.909151077270508,6.393147468507523e-05,0.0009062286610771233,0.005605458392952959,139.0830013355342,-140.26307489114555,0,0.2499711513519287,2019-08-06 14:28:36:761
0.013405809178948402,-0.20011965930461884,9.796597480773926,-0.002333498937755932,-0.005753299723709235,0.003208027984575613,132.70391759283436,-141.03399957914755,0,0.25309205055236816,2019-08-06 14:28:36:764
-0.0680156797170639,-0.23843564093112946,9.803781509399414,0.00033031263071992917,-0.003888631830584663,0.0042735527550068365,133.64265496546315,-141.78552055000702,0,0.25659847259521484,2019-08-06 14:28:36:767
-0.024910185486078262,-0.1953301578760147,9.866044998168945,0.0021949807514095357,-0.006286061978887684,0.00800288854125598,134.5681061100201,-142.52754415286677,0,0.2599911689758301,2019-08-06 14:28:36:771
-0.15662142634391785,-0.24561989307403564,9.813361167907715,0.0024613618789987605,-0.0028231073202277645,0.004539933882596061,135.45895263160938,-143.2487503651169,0,0.2631196975708008,2019-08-06 14:28:36:774
-0.06322617828845978,-0.2096986472606659,9.969019889831543,0.0013958372386046994,-0.0009584393620846114,0.0037407904998283874,136.34269367630716,-143.9599479035751,0,0.26660752296447754,2019-08-06 14:28:36:777
-0.10154217481613159,-0.2216724008321762,9.909151077270508,0.000863074918407669,-0.006818824754214785,0.0016097412190402653,137.20541973514355,-144.65528588463457,0,0.27006053924560547,2019-08-06 14:28:36:781
-0.08956842869520187,-0.18575115501880646,9.806177139282227,0.0011294561110154748,-0.004155012958173888,0.004806315010185286,138.05155852091784,-145.34067049390086,0,0.2731189727783203,2019-08-06 14:28:36:784
-0.020120687782764435,-0.14504040777683258,9.861255645751953,-0.002333498937755932,-0.0028231073202277645,0.00507269613777451,138.88874020540763,-146.0165486481736,0,0.2765946388244629,2019-08-06 14:28:36:787
-0.12548966705799103,-0.1833564043045044,9.815755844116211,-0.00020244967322245603,-0.0012248205546924172,0.004806315010185286,139.6965492744578,-146.67477616424114,0,0.2799832820892334,2019-08-06 14:28:36:791
-0.07519993185997009,-0.2695674002170563,9.832518577575684,0.002727743006587985,-0.004421394085763112,0.004806315010185286,140.4946304402375,-147.31035096629404,0,0.283109188079834,2019-08-06 14:28:36:794
-0.09675268083810806,-0.15940891206264496,9.889992713928223,0.00033031263071992917,-0.0030894884478169893,0.002941646856986388,141.2741368451229,-147.94574055912827,0,0.2866199016571045,2019-08-06 14:28:36:797
-0.13506866991519928,-0.21448814868927002,9.758281707763672,0.0013958372386046994,-0.0022903450650493154,0.0021425034742187147,142.03322644537204,-148.5619059989106,0,0.28998255729675293,2019-08-06 14:28:36:801
-0.08717367798089981,-0.2288566529750824,9.851676940917969,0.0035268863893556587,-0.0012248205546924172,0.0013433600914510408,142.78263756083734,-149.1646722994244,0,0.29311084747314453,2019-08-06 14:28:36:804
-0.13506866991519928,-0.20490914583206177,9.940282821655273,0.003260505261766434,-0.003622250702995438,0.003474409372239163,143.5121259425981,-149.75840017007025,0,0.29660606384277344,2019-08-06 14:28:36:807
-0.024910185486078262,-0.2288566529750824,9.916335105895996,0.0037932675169448835,-0.004155012958173888,0.005605458392952959,144.23979648808628,-150.33751327404903,0,0.2999992370605469,2019-08-06 14:28:36:811
-0.07280518114566803,-0.2743569016456604,9.803781509399414,0.0011294561110154748,-0.005753299723709235,-0.0005213078992014032,144.94750115345116,-150.89890148506905,0,0.30312657356262207,2019-08-06 14:28:36:814
-0.13506866991519928,-0.23364615440368652,9.909151077270508,0.0005966937908184444,-0.0009584393620846114,0.003474409372239163,145.63313503802775,-151.454035231203,0,0.30689072608947754,2019-08-06 14:28:36:818
-0.14943717420101166,-0.21927765011787415,9.83491325378418,0.0011294561110154748,-0.007085205881804008,0.0042735527550068365,146.3043094730085,-151.99960846960926,0,0.3100264072418213,2019-08-06 14:28:36:821
-0.12548966705799103,-0.25040939450263977,9.803781509399414,0.0021949807514095357,-0.00255672619263854,0.002408884601807939,146.9640048006685,-152.5307386600095,0,0.31315112113952637,2019-08-06 14:28:36:824
-0.09914742410182953,-0.24322514235973358,9.78222942352295,6.393147468507523e-05,-0.0006920582344953867,0.0002778355485848519,147.6132617041477,-153.05165168339641,0,0.31703662872314453,2019-08-06 14:28:36:828
-0.08238417655229568,-0.1953301578760147,9.959440231323242,-0.0012679742973618717,-0.0030894884478169893,0.004007171627417612,148.25204657255972,-153.56793013387625,0,0.3200852870941162,2019-08-06 14:28:36:831
-0.09196317940950394,-0.23843564093112946,9.909151077270508,0.0013958372386046994,-0.0006920582344953867,0.0016097412190402653,148.8764916691553,-154.06924676699006,0,0.32318735122680664,2019-08-06 14:28:36:834
-0.07519993185997009,-0.23364615440368652,9.894782066345215,0.0021949807514095357,-0.0030894884478169893,0.0016097412190402653,149.49086211142654,-154.5612409651202,0,0.32669806480407715,2019-08-06 14:28:36:837
-0.07759468257427216,-0.24561989307403564,9.923519134521484,6.393147468507523e-05,-0.0012248205546924172,0.004806315010185286,150.0923109897775,-155.04167085223935,0,0.329986572265625,2019-08-06 14:28:36:841
-0.06322617828845978,-0.17138265073299408,9.760676383972168,6.393147468507523e-05,-0.0022903450650493154,0.0037407904998283874,150.68344416372224,-155.52073019005167,0,0.333113431930542,2019-08-06 14:28:36:844
-0.13027916848659515,-0.24083039164543152,9.92591381072998,0.000863074918407669,-0.004155012958173888,-0.0007876890592999184,151.2555524369966,-155.98268755356088,0,0.33661365509033203,2019-08-06 14:28:36:847
-0.08477892726659775,-0.25759363174438477,9.839703559875488,-0.0004688308170663259,-0.003888631830584663,0.004007171627417612,151.8213032666135,-156.43295312832905,0,0.3399791717529297,2019-08-06 14:28:36:851
-0.05843668058514595,-0.23364615440368652,9.798992156982422,0.000863074918407669,-0.003622250702995438,0.0005442166761740764,152.37867948896647,-156.8771276702009,0,0.3431057929992676,2019-08-06 14:28:36:854
-0.09914742410182953,-0.24083039164543152,9.892387390136719,0.0011294561110154748,-0.003622250702995438,0.006138220648131409,152.92032891989848,-157.3119139501524,0,0.3465852737426758,2019-08-06 14:28:36:857
-0.08956842869520187,-0.17138265073299408,9.849282264709473,0.0021949807514095357,-0.0009584393620846114,0.0002778355485848519,153.4516841719286,-157.74615585583123,0,0.3499743938446045,2019-08-06 14:28:36:861
-0.10154217481613159,-0.24322514235973358,9.916335105895996,-0.0004688308170663259,-0.004954156340941561,0.0021425034742187147,153.97178712875638,-158.16304931256352,0,0.3531029224395752,2019-08-06 14:28:36:864
-0.04646293446421623,-0.24083039164543152,9.90196704864502,0.0016622183661939237,-0.00015929593055300162,-0.00025492675535753324,154.48700588047555,-158.57225140209815,0,0.3566164970397949,2019-08-06 14:28:36:867
-0.020120687782764435,-0.3078833818435669,9.882808685302734,0.000863074918407669,-0.0022903450650493154,0.0021425034742187147,154.99536680487444,-158.9652822763942,0,0.35999155044555664,2019-08-06 14:28:36:871
-0.08717367798089981,-0.2025144100189209,9.815755844116211,-0.0010015931047540657,-0.0030894884478169893,-0.0007876890592999184,155.4858250475722,-159.36216217990798,0,0.363116979598999,2019-08-06 14:28:36:874
-0.05125243216753006,-0.24083039164543152,9.837308883666992,0.0011294561110154748,-0.002023963937460091,0.0013433600914510408,155.97053949086677,-159.74709484240145,0,0.36664652824401855,2019-08-06 14:28:36:877
-0.05125243216753006,-0.2360409051179886,9.949861526489258,-0.0020671176801295454,-0.002023963937460091,0.0005442166761740764,156.4456051502117,-160.12458627783474,0,0.3699822425842285,2019-08-06 14:28:36:881
-0.09196317940950394,-0.2216724008321762,9.892387390136719,-0.0020671176801295454,-0.003888631830584663,0.0005442166761740764,156.90672366618253,-160.4960575831408,0,0.3731110095977783,2019-08-06 14:28:36:884
-0.056041933596134186,-0.2551988959312439,9.827729225158691,0.0019285994937831485,-0.00255672619263854,0.0016097412190402653,157.36255690991737,-160.85676564741942,0,0.37660884857177734,2019-08-06 14:28:36:887
-0.005752188619226217,-0.23843564093112946,9.870835304260254,0.0011294561110154748,-0.0017575828098708665,0.0018761223466294901,157.8149714245306,-161.21216974214343,0,0.3799874782562256,2019-08-06 14:28:36:891
-0.07041043043136597,-0.20730389654636383,9.892387390136719,0.002727743006587985,-0.003888631830584663,0.0010769789638618162,158.25119819089056,-161.56439475592398,0,0.38311219215393066,2019-08-06 14:28:36:894
-0.07998942583799362,-0.22406715154647827,9.839703559875488,0.0024613618789987605,-0.003888631830584663,0.0018761223466294901,158.67761992467655,-161.90749852022162,0,0.3865971565246582,2019-08-06 14:28:36:897
-0.012936437502503395,-0.23843564093112946,9.935493469238281,0.0035268863893556587,-0.004954156340941561,0.0037407904998283874,159.1035174028987,-162.24252426969645,0,0.3899831771850586,2019-08-06 14:28:36:901
-0.1207001730799675,-0.21209339797496796,9.810966491699219,-0.0007352119771648412,-0.0030894884478169893,0.0037407904998283874,159.5078909092653,-162.57277653867598,0,0.3931009769439697,2019-08-06 14:28:36:904
-0.02969968505203724,-0.21448814868927002,9.832518577575684,6.393147468507523e-05,-0.0022903450650493154,0.0037407904998283874,159.91472386731877,-162.89634040282004,0,0.39661622047424316,2019-08-06 14:28:36:907
-0.03927868604660034,-0.1953301578760147,9.933098793029785,-0.001534355424951096,-0.004954156340941561,-0.0018532135696568165,160.3128368161625,-163.2155918238149,0,0.3999907970428467,2019-08-06 14:28:36:911
-0.02251543663442135,-0.21448814868927002,9.830123901367188,-0.0010015931047540657,-0.0014912016822816417,0.004007171627417612,160.70421721305385,-163.52610483782576,0,0.40311741828918457,2019-08-06 14:28:36:914
-0.06562092900276184,-0.21209339797496796,9.894782066345215,0.003260505261766434,-0.004421394085763112,0.0018761223466294901,161.08339906771667,-163.8316623123132,0,0.4066042900085449,2019-08-06 14:28:36:917
-0.0680156797170639,-0.2096986472606659,9.820545196533203,-0.00020244967322245603,-0.004954156340941561,0.0021425034742187147,161.4547347507883,-164.1305255725858,0,0.40998339653015137,2019-08-06 14:28:36:921
-0.05364718288183212,-0.20490914583206177,9.83491325378418,0.003260505261766434,-0.0033558695754062136,0.003474409372239163,161.81998553035965,-164.42462268953932,0,0.41314697265625,2019-08-06 14:28:36:924
-0.1135159283876419,-0.21688289940357208,9.923519134521484,0.000863074918407669,-0.0009584393620846114,0.0026752657293971638,162.17066683540318,-164.71125962212884,0,0.4166526794433594,2019-08-06 14:28:36:927
-0.05125243216753006,-0.2288566529750824,9.889992713928223,0.0005966937908184444,-0.0022903450650493154,-0.0026523570824616527,162.52174303704044,-164.9906338980855,0,0.4199800491333008,2019-08-06 14:28:36:931
-0.1135159283876419,-0.2025144100189209,9.894782066345215,-0.0018007365525403206,-0.003622250702995438,0.0013433600914510408,162.85879857721852,-165.2670550496713,0,0.4231076240539551,2019-08-06 14:28:36:934
-0.05843668058514595,-0.21209339797496796,9.820545196533203,0.0021949807514095357,-0.005753299723709235,0.003474409372239163,163.1959363247021,-165.53740157542626,0,0.42661285400390625,2019-08-06 14:28:36:937
-0.12309492379426956,-0.2025144100189209,9.875624656677246,-0.0007352119771648412,-0.0028231073202277645,0.0005442166761740764,163.51826895737287,-165.80301908529097,0,0.429980993270874,2019-08-06 14:28:36:941
-0.1398581713438034,-0.2216724008321762,9.880414009094238,0.0016622183661939237,-0.0054869185961200105,1.1454389502251989e-05,163.8326482819604,-166.0615458685018,0,0.43311047554016113,2019-08-06 14:28:36:944
-0.11830542236566544,-0.2551988959312439,9.810966491699219,0.0016622183661939237,-0.00255672619263854,0.0010769789638618162,164.1426777982399,-166.3108395294537,0,0.43659210205078125,2019-08-06 14:28:36:947
-0.1135159283876419,-0.259988397359848,9.875624656677246,0.0021949807514095357,-0.004155012958173888,0.00507269613777451,164.44744300068868,-166.5548793378401,0,0.43997812271118164,2019-08-06 14:28:36:951
-0.056041933596134186,-0.2360409051179886,9.921124458312988,0.000863074918407669,-0.006286061978887684,0.0016097412190402653,164.75312530284916,-166.79667514729908,0,0.44310617446899414,2019-08-06 14:28:36:954
-0.09914742410182953,-0.21927765011787415,9.830123901367188,-0.0018007365525403206,-0.006019680851298459,0.005339077265363735,165.04769146347914,-167.0348294811582,0,0.44661521911621094,2019-08-06 14:28:36:957
-0.05364718288183212,-0.20730389654636383,9.918729782104492,0.0024613618789987605,-0.004155012958173888,0.0042735527550068365,165.3413265539676,-167.270652513989,0,0.44998741149902344,2019-08-06 14:28:36:961
-0.094357930123806,-0.267172634601593,9.86365032196045,0.0019285994937831485,-0.0006920582344953867,-0.0005213078992014032,165.62366004243574,-167.49454746580344,0,0.4531211853027344,2019-08-06 14:28:36:964
-0.07041043043136597,-0.267172634601593,9.86365032196045,0.0021949807514095357,-0.004687775213352337,1.1454389502251989e-05,165.90393196721868,-167.71405825969532,0,0.4566352367401123,2019-08-06 14:28:36:967
-0.094357930123806,-0.22646190226078033,9.851676940917969,0.002727743006587985,-0.005220537468530785,-0.0007876890592999184,166.1758629056891,-167.93395489231412,0,0.4599943161010742,2019-08-06 14:28:36:971
-0.10154217481613159,-0.2887254059314728,9.95465087890625,-0.00020244967322245603,-0.004421394085763112,0.004539933882596061,166.441430426384,-168.14201348545714,0,0.46310901641845703,2019-08-06 14:28:36:974
-0.041673433035612106,-0.1833564043045044,9.849282264709473,0.0019285994937831485,-0.004954156340941561,0.0026752657293971638,166.7087250995975,-168.35822135553957,0,0.4666023254394531,2019-08-06 14:28:36:977
-0.05843668058514595,-0.19054065644741058,9.870835304260254,-0.0010015931047540657,-0.005220537468530785,0.0013433600914510408,166.96875568981,-168.56874986761426,0,0.46997618675231934,2019-08-06 14:28:36:981
-0.10633167624473572,-0.19772490859031677,9.928308486938477,0.005125173414965331,-0.004687775213352337,0.0018761223466294901,167.2179317699377,-168.77545692480555,0,0.47310447692871094,2019-08-06 14:28:36:984
-0.07519993185997009,-0.20730389654636383,9.899572372436523,0.0016622183661939237,-0.004421394085763112,0.003474409372239163,167.46573715876897,-168.97628155917695,0,0.47660303115844727,2019-08-06 14:28:36:987
-0.034489184617996216,-0.22406715154647827,9.83491325378418,-0.0010015931047540657,-0.004687775213352337,0.006138220648131409,167.7132930500408,-169.1704632725489,0,0.4799809455871582,2019-08-06 14:28:36:991
-0.10393692553043365,-0.259988397359848,9.88520336151123,-0.002599880065345157,-0.003622250702995438,0.004007171627417612,167.94761576906646,-169.35646547336597,0,0.4831116199493408,2019-08-06 14:28:36:994
0.008616309612989426,-0.18096165359020233,9.820545196533203,0.0011294561110154748,-0.004421394085763112,0.003208027984575613,160.99053657692124,-169.54844460805646,0,0.4866068363189697,2019-08-06 14:28:36:997
-0.07041043043136597,-0.2288566529750824,9.770255088806152,0.0021949807514095357,-0.005220537468530785,0.003208027984575613,161.36345603965913,-169.7310544059887,0,0.4899780750274658,2019-08-06 14:28:37:001
-0.07759468257427216,-0.2360409051179886,9.882808685302734,0.004059648644534107,-0.004687775213352337,0.005339077265363735,161.72801132063745,-169.90978077989521,0,0.49309849739074707,2019-08-06 14:28:37:004
-0.005752188619226217,-0.26477789878845215,9.779834747314453,6.393147468507523e-05,-0.0033558695754062136,0.0016097412190402653,162.0934389470222,-170.08058098889933,0,0.4966108798980713,2019-08-06 14:28:37:007
-0.094357930123806,-0.18575115501880646,9.870835304260254,-0.0012679742973618717,-0.004155012958173888,0.0002778355485848519,162.44141069980188,-170.2571654711197,0,0.5000154972076416,2019-08-06 14:28:37:011
-0.10393692553043365,-0.1378561556339264,9.976203918457031,-0.0004688308170663259,-0.0030894884478169893,0.004007171627417612,162.78118685072943,-170.43610599168673,0,0.5031435489654541,2019-08-06 14:28:37:014
-0.08477892726659775,-0.18575115501880646,9.916335105895996,0.0011294561110154748,-0.0033558695754062136,0.002408884601807939,163.1164485874595,-170.6061508653501,0,0.5067636966705322,2019-08-06 14:28:37:017
-0.07280518114566803,-0.21688289940357208,9.808571815490723,0.000863074918407669,-0.002023963937460091,0.0010769789638618162,163.44597995579667,-170.7688500015827,0,0.5099830627441406,2019-08-06 14:28:37:021
-0.06322617828845978,-0.17138265073299408,9.940282821655273,0.004326029772123333,-0.003622250702995438,0.006670982903309857,163.77040693512737,-170.934476576866,0,0.513106107711792,2019-08-06 14:28:37:024
-0.0680156797170639,-0.23125140368938446,9.930704116821289,0.0024613618789987605,-0.0012248205546924172,0.004007171627417612,164.08739036371068,-171.08958949890996,0,0.5165936946868896,2019-08-06 14:28:37:027
-0.07041043043136597,-0.19293540716171265,9.911545753479004,-0.0004688308170663259,-0.004421394085763112,0.0008105978362725917,164.3983430400146,-171.24540529474464,0,0.5199804306030273,2019-08-06 14:28:37:031
-0.08238417655229568,-0.19054065644741058,9.827729225158691,-0.00020244967322245603,-0.0028231073202277645,0.003474409372239163,164.70126593674473,-171.3982473491391,0,0.523106575012207,2019-08-06 14:28:37:034
-0.13027916848659515,-0.22406715154647827,9.882808685302734,0.00033031263071992917,-0.0030894884478169893,0.0021425034742187147,164.99274049581493,-171.54437085276632,0,0.5265936851501465,2019-08-06 14:28:37:037
-0.07998942583799362,-0.22406715154647827,9.758281707763672,0.005391554542554556,-0.003888631830584663,0.003474409372239163,165.2842317455515,-171.68820047395008,0,0.5299782752990723,2019-08-06 14:28:37:041
-0.056041933596134186,-0.18575115501880646,10.000151634216309,0.00033031263071992917,-0.0030894884478169893,0.0042735527550068365,165.57266673868142,-171.83321160359318,0,0.5330991744995117,2019-08-06 14:28:37:044
-0.11830542236566544,-0.17856690287590027,9.909151077270508,-0.0004688308170663259,-0.004421394085763112,0.003474409372239163,165.848403288968,-171.9758074577881,0,0.5366048812866211,2019-08-06 14:28:37:047
-0.10633167624473572,-0.13546140491962433,9.976203918457031,0.002994124134177209,-0.004155012958173888,0.005339077265363735,166.12001187928635,-172.12130176174279,0,0.5399909019470215,2019-08-06 14:28:37:051
-0.08477892726659775,-0.14264565706253052,9.825334548950195,-0.002333498937755932,-0.0009584393620846114,0.0018761223466294901,166.38789275411423,-172.2618300312132,0,0.5431222915649414,2019-08-06 14:28:37:054
-0.056041933596134186,-0.20490914583206177,9.875624656677246,-0.00020244967322245603,-0.006818824754214785,0.004007171627417612,166.654977147174,-172.39278032878664,0,0.5466351509094238,2019-08-06 14:28:37:057
-0.15183192491531372,-0.21927765011787415,9.849282264709473,0.002727743006587985,-0.006818824754214785,0.004806315010185286,166.90549556060708,-172.51992968126635,0,0.5499820709228516,2019-08-06 14:28:37:061
-0.03927868604660034,-0.24083039164543152,9.856466293334961,0.0019285994937831485,-0.004155012958173888,0.0026752657293971638,167.16354990867274,-172.6418768506435,0,0.5531144142150879,2019-08-06 14:28:37:064
-0.03209443390369415,-0.24561989307403564,9.84449291229248,0.002727743006587985,-0.004155012958173888,0.0037407904998283874,167.41735891273265,-172.76099026520882,0,0.5566112995147705,2019-08-06 14:28:37:067
-0.015331187285482883,-0.24561989307403564,9.818150520324707,-0.0007352119771648412,-0.0014912016822816417,0.0042735527550068365,167.66750410920358,-172.8769702527283,0,0.5599761009216309,2019-08-06 14:28:37:071
-0.07998942583799362,-0.25040939450263977,9.923519134521484,-0.0012679742973618717,-0.004954156340941561,0.002941646856986388,167.9057855609838,-172.99029884773074,0,0.5630967617034912,2019-08-06 14:28:37:074
-0.17098991572856903,-0.19293540716171265,9.88520336151123,0.0021949807514095357,-0.002023963937460091,0.0018761223466294901,168.12824719747775,-173.10856064709583,0,0.56658935546875,2019-08-06 14:28:37:077
-0.09196317940950394,-0.2360409051179886,9.858860969543457,-0.0007352119771648412,-0.0017575828098708665,0.002941646856986388,168.3553283134965,-173.21881909952808,0,0.5699820518493652,2019-08-06 14:28:37:081
-0.07998942583799362,-0.22646190226078033,9.945072174072266,-0.0020671176801295454,-0.0033558695754062136,0.00507269613777451,168.5795950356051,-173.3279899585221,0,0.5731122493743896,2019-08-06 14:28:37:084
-0.11112117767333984,-0.20011965930461884,9.961835861206055,6.393147468507523e-05,-0.0030894884478169893,0.0021425034742187147,168.79582741560264,-173.43842591984878,0,0.576606035232544,2019-08-06 14:28:37:087
-0.10872642695903778,-0.18575115501880646,9.966625213623047,0.0016622183661939237,-0.0012248205546924172,0.003208027984575613,169.00764247774242,-173.54861788613053,0,0.5799789428710938,2019-08-06 14:28:37:091
-0.07041043043136597,-0.20730389654636383,9.84449291229248,0.0019285994937831485,-0.004687775213352337,0.003474409372239163,169.22011579094948,-173.6538567155516,0,0.5831015110015869,2019-08-06 14:28:37:094
-0.10872642695903778,-0.22406715154647827,9.878019332885742,-0.00020244967322245603,-0.002023963937460091,0.0037407904998283874,169.42350081569975,-173.7547507740155,0,0.5866196155548096,2019-08-06 14:28:37:097
-0.04406818374991417,-0.2935148775577545,9.818150520324707,6.393147468507523e-05,-0.005220537468530785,0.0013433600914510408,169.63087519036628,-173.8454207598845,0,0.589989185333252,2019-08-06 14:28:37:101
-0.048857681453228,-0.15461941063404083,9.846887588500977,-0.0004688308170663259,-0.0028231073202277645,0.0042735527550068365,169.83306849184774,-173.95043778791862,0,0.5931212902069092,2019-08-06 14:28:37:104
-0.034489184617996216,-0.23364615440368652,9.842098236083984,0.0019285994937831485,-0.0030894884478169893,-0.0005213078992014032,170.0329992576302,-174.04461006783578,0,0.5966243743896484,2019-08-06 14:28:37:107
-0.08238417655229568,-0.21209339797496796,9.851676940917969,-0.0007352119771648412,-0.008150730392160906,0.002941646856986388,170.22429993904126,-174.1389124589491,0,0.5999960899353027,2019-08-06 14:28:37:111
-0.09675268083810806,-0.20490914583206177,9.839703559875488,0.0013958372386046994,-0.004155012958173888,0.0026752657293971638,170.40927776643218,-174.2325198913905,0,0.6031298637390137,2019-08-06 14:28:37:114
-0.08477892726659775,-0.26477789878845215,9.870835304260254,6.393147468507523e-05,-0.0022903450650493154,0.0010769789638618162,170.59169935134642,-174.31715105217245,0,0.6066210269927979,2019-08-06 14:28:37:117
-0.13027916848659515,-0.2480146437883377,9.870835304260254,0.0013958372386046994,-0.004687775213352337,0.003474409372239163,170.76562516340985,-174.40228478101344,0,0.6099762916564941,2019-08-06 14:28:37:121
-0.07998942583799362,-0.16180366277694702,10.014519691467285,0.0013958372386046994,-0.005753299723709235,0.0026752657293971638,170.94216999996468,-174.49597127822102,0,0.6131026744842529,2019-08-06 14:28:37:124
-0.05843668058514595,-0.18575115501880646,9.878019332885742,-0.00020244967322245603,-0.003622250702995438,0.002941646856986388,171.11726051382865,-174.58446618613758,0,0.616607666015625,2019-08-06 14:28:37:127
-0.08717367798089981,-0.21927765011787415,9.870835304260254,0.0019285994937831485,0.0009062286610771233,0.0021425034742187147,171.28462381772184,-174.66769020864677,0,0.6199812889099121,2019-08-06 14:28:37:131
-0.10393692553043365,-0.2216724008321762,9.875624656677246,-0.003132642320523606,0.00010708522141819095,0.002408884601807939,171.44685268928652,-174.74806897397121,0,0.6231083869934082,2019-08-06 14:28:37:134
-0.08238417655229568,-0.259988397359848,9.770255088806152,6.393147468507523e-05,-0.003622250702995438,-0.00025492675535753324,171.608963793454,-174.82263429025357,0,0.6266014575958252,2019-08-06 14:28:37:137
-0.06322617828845978,-0.16898790001869202,9.710386276245117,0.002994124134177209,-0.0014912016822816417,-0.00025492675535753324,171.76960618329716,-174.90680937250298,0,0.6299793720245361,2019-08-06 14:28:37:141
-0.041673433035612106,-0.22406715154647827,9.906756401062012,0.000863074918407669,-0.002023963937460091,0.0037407904998283874,171.9297487452941,-174.98291112517649,0,0.6331033706665039,2019-08-06 14:28:37:144
-0.024910185486078262,-0.252804160118103,9.758281707763672,0.0013958372386046994,-0.005220537468530785,0.0016097412190402653,172.08925641835606,-175.0538475537772,0,0.6366097927093506,2019-08-06 14:28:37:147
-0.09914742410182953,-0.2288566529750824,9.849282264709473,-0.0007352119771648412,-0.004954156340941561,0.0013433600914510408,172.23687694458533,-175.12600946109234,0,0.639991044998169,2019-08-06 14:28:37:151
-0.0680156797170639,-0.17856690287590027,9.803781509399414,-0.0007352119771648412,-0.0022903450650493154,0.0013433600914510408,172.38459179190787,-175.2024906439456,0,0.6431190967559814,2019-08-06 14:28:37:154
-0.07759468257427216,-0.24322514235973358,9.995362281799316,0.0011294561110154748,-0.0022903450650493154,0.002408884601807939,172.52846009282686,-175.27078661469733,0,0.6466631889343262,2019-08-06 14:28:37:157
-0.05364718288183212,-0.2743569016456604,9.870835304260254,0.002727743006587985,-0.0022903450650493154,0.0010769789638618162,172.67209084169258,-175.3340382558994,0,0.6499900817871094,2019-08-06 14:28:37:161
-0.13746342062950134,-0.19772490859031677,9.79420280456543,-0.0018007365525403206,-0.005753299723709235,1.1454389502251989e-05,172.80357529787318,-175.40391133655433,0,0.653111457824707,2019-08-06 14:28:37:164
-0.11830542236566544,-0.252804160118103,9.854071617126465,0.0019285994937831485,-0.003622250702995438,-0.00025492675535753324,172.93445593361926,-175.46681884851043,0,0.6565976142883301,2019-08-06 14:28:37:167
-0.1207001730799675,-0.19293540716171265,9.854071617126465,-0.0007352119771648412,-0.006818824754214785,0.0016097412190402653,173.0630272573987,-175.5349094482499,0,0.6599819660186768,2019-08-06 14:28:37:171
-0.11830542236566544,-0.23125140368938446,9.889992713928223,0.0016622183661939237,-0.005220537468530785,0.003474409372239163,173.18897607421533,-175.59771367726523,0,0.6631078720092773,2019-08-06 14:28:37:174
-0.048857681453228,-0.2096986472606659,9.808571815490723,6.393147468507523e-05,-0.0022903450650493154,0.002941646856986388,173.31993719920118,-175.6612769871269,0,0.6665956974029541,2019-08-06 14:28:37:177
-0.06322617828845978,-0.2791464030742645,9.889992713928223,-0.0010015931047540657,-0.003622250702995438,0.0010769789638618162,173.44690087687263,-175.71552614067022,0,0.6699788570404053,2019-08-06 14:28:37:181
-0.09675268083810806,-0.15222465991973877,9.808571815490723,-0.0020671176801295454,-0.0022903450650493154,0.003208027984575613,173.5670611003873,-175.78307076421999,0,0.6730992794036865,2019-08-06 14:28:37:184
-0.034489184617996216,-0.17377740144729614,9.957045555114746,-0.0010015931047540657,-0.006552443626625559,0.002941646856986388,173.69304478897152,-175.8472142342085,0,0.6766166687011719,2019-08-06 14:28:37:187
-0.03209443390369415,-0.2025144100189209,9.899572372436523,0.0035268863893556587,-0.005220537468530785,-0.0023859759548724283,173.8164571349302,-175.90749902342574,0,0.6799881458282471,2019-08-06 14:28:37:191
-0.08238417655229568,-0.21209339797496796,9.861255645751953,-0.0018007365525403206,-0.003888631830584663,0.0037407904998283874,173.93123848154983,-175.96439020876628,0,0.6831190586090088,2019-08-06 14:28:37:194
-0.06562092900276184,-0.24083039164543152,9.940282821655273,0.0005966937908184444,-0.0030894884478169893,0.003474409372239163,174.04565562108607,-176.0174620650355,0,0.6866157054901123,2019-08-06 14:28:37:197
-0.010541687719523907,-0.21688289940357208,9.952256202697754,0.0021949807514095357,-0.005753299723709235,-0.00025492675535753324,174.1646160997151,-176.07255945106323,0,0.6899816989898682,2019-08-06 14:28:37:201
-0.08956842869520187,-0.17856690287590027,9.801386833190918,0.0016622183661939237,-0.0022903450650493154,0.004007171627417612,174.27125972676274,-176.1305293587098,0,0.6931498050689697,2019-08-06 14:28:37:204
-0.024910185486078262,-0.23364615440368652,9.858860969543457,0.004858792287376107,-0.0028231073202277645,0.002408884601807939,174.38349576023555,-176.18172460812096,0,0.6966609954833984,2019-08-06 14:28:37:207
-0.09196317940950394,-0.20011965930461884,9.806177139282227,-0.0007352119771648412,-0.0017575828098708665,-0.0010540701868891429,174.4854074947138,-176.2345709432522,0,0.6999828815460205,2019-08-06 14:28:37:211
-0.11112117767333984,-0.22406715154647827,9.858860969543457,-0.00020244967322245603,-0.005753299723709235,0.0013433600914510408,174.58379255498411,-176.2838047358159,0,0.7031047344207764,2019-08-06 14:28:37:214
-0.08477892726659775,-0.22406715154647827,9.894782066345215,0.0019285994937831485,-0.006818824754214785,0.0016097412190402653,174.68363537194008,-176.33256189871437,0,0.7065958976745605,2019-08-06 14:28:37:217
-0.09675268083810806,-0.19772490859031677,9.796597480773926,-0.0007352119771648412,-0.0028231073202277645,0.0013433600914510408,174.77918185833335,-176.38264616008362,0,0.7099776268005371,2019-08-06 14:28:37:221
-0.08238417655229568,-0.18096165359020233,9.854071617126465,0.00033031263071992917,-0.002023963937460091,0.0037407904998283874,174.87437432879966,-176.4340099711279,0,0.7131121158599854,2019-08-06 14:28:37:224
-0.11591067165136337,-0.1953301578760147,9.906756401062012,-0.00020244967322245603,-0.005220537468530785,0.003474409372239163,174.96450293805992,-176.48269917134004,0,0.7166016101837158,2019-08-06 14:28:37:227
-0.07998942583799362,-0.21209339797496796,9.775045394897461,-0.00020244967322245603,-0.006286061978887684,0.004806315010185286,175.05702713011894,-176.5281473005809,0,0.7199761867523193,2019-08-06 14:28:37:231
-0.048857681453228,-0.259988397359848,9.94267749786377,0.0019285994937831485,-0.0028231073202277645,-0.0034515004652293266,175.15075080849542,-176.56796519093345,0,0.7230997085571289,2019-08-06 14:28:37:234
-0.08477892726659775,-0.20730389654636383,9.88520336151123,0.005125173414965331,-0.0014912016822816417,0.0037407904998283874,175.23820181983646,-176.61358719604323,0,0.7266056537628174,2019-08-06 14:28:37:237
-0.04406818374991417,-0.21927765011787415,9.827729225158691,0.000863074918407669,-0.004155012958173888,0.0002778355485848519,175.32908803663585,-176.65591566987985,0,0.7299857139587402,2019-08-06 14:28:37:241
-0.03927868604660034,-0.267172634601593,9.921124458312988,0.0011294561110154748,-0.0028231073202277645,0.005871839520542184,175.41846520805316,-176.69214399802144,0,0.7331128120422363,2019-08-06 14:28:37:244
-0.008146938867866993,-0.25040939450263977,9.856466293334961,-0.0028662611929343817,-0.0030894884478169893,-0.0018532135696568165,175.50975432460237,-176.728632881291,0,0.7366037368774414,2019-08-06 14:28:37:247
-0.06562092900276184,-0.20011965930461884,9.957045555114746,0.0037932675169448835,-0.00255672619263854,-0.0013204513144783674,175.5924953510005,-176.77175646003016,0,0.7400033473968506,2019-08-06 14:28:37:251
-0.10393692553043365,-0.20490914583206177,9.916335105895996,0.000863074918407669,-0.0012248205546924172,-0.0007876890592999184,175.6688493266257,-176.8127966866225,0,0.7431182861328125,2019-08-06 14:28:37:254
-0.11830542236566544,-0.2551988959312439,9.837308883666992,0.0037932675169448835,-0.00015929593055300162,0.0021425034742187147,175.74172319993443,-176.84756317249713,0,0.7466068267822266,2019-08-06 14:28:37:257
-0.05364718288183212,-0.1761721521615982,9.940282821655273,0.003260505261766434,-0.004687775213352337,-0.00025492675535753324,175.82159234795844,-176.89092254564898,0,0.7499804496765137,2019-08-06 14:28:37:261
-0.12309492379426956,-0.21209339797496796,9.899572372436523,0.0005966937908184444,-0.007351587009393233,0.0010769789638618162,175.8922006788485,-176.92866173582317,0,0.753101110458374,2019-08-06 14:28:37:264
-0.09914742410182953,-0.20490914583206177,9.916335105895996,0.0013958372386046994,-0.003622250702995438,0.002941646856986388,175.96361008637558,-176.96668663795086,0,0.7565937042236328,2019-08-06 14:28:37:267
-0.03927868604660034,-0.21209339797496796,9.892387390136719,0.0016622183661939237,-0.003622250702995438,0.00507269613777451,176.04047724863693,-177.00310448536843,0,0.7599828243255615,2019-08-06 14:28:37:271
-0.07998942583799362,-0.23843564093112946,9.825334548950195,0.0016622183661939237,-0.0014912016822816417,0.0013433600914510408,176.11060104397896,-177.0355316866396,0,0.7631142139434814,2019-08-06 14:28:37:274
-0.05843668058514595,-0.29112014174461365,9.923519134521484,6.393147468507523e-05,-0.004421394085763112,-0.00025492675535753324,176.18250472327028,-177.06122616205252,0,0.7665927410125732,2019-08-06 14:28:37:277
-0.08238417655229568,-0.1833564043045044,9.832518577575684,0.000863074918407669,-0.0054869185961200105,0.0021425034742187147,176.25029627518384,-177.09879915067745,0,0.769977331161499,2019-08-06 14:28:37:281
0.003826810047030449,-0.2480146437883377,9.921124458312988,0.0037932675169448835,-0.0033558695754062136,-0.0015868324420675922,169.12632119596506,-177.12884838670013,0,0.7731022834777832,2019-08-06 14:28:37:284
0.011011059395968914,-0.2025144100189209,9.952256202697754,0.0011294561110154748,-0.002023963937460091,-0.0007876890592999184,162.14546230674694,-177.16317992018156,0,0.7766194343566895,2019-08-06 14:28:37:287
0.030169056728482246,-0.20011965930461884,9.878019332885742,-0.00020244967322245603,-0.002023963937460091,-0.00025492675535753324,155.30643639175335,-177.19666592942772,0,0.7799942493438721,2019-08-06 14:28:37:291
-0.07280518114566803,-0.14743515849113464,9.851676940917969,-0.0007352119771648412,-0.00255672619263854,0.0018761223466294901,155.79228834610367,-177.23545559158333,0,0.7831218242645264,2019-08-06 14:28:37:294
-0.09675268083810806,-0.2360409051179886,9.854071617126465,0.0013958372386046994,-0.002023963937460091,0.0018761223466294901,156.26561044129002,-177.26359165407308,0,0.7868063449859619,2019-08-06 14:28:37:298
-0.12309492379426956,-0.22406715154647827,9.878019332885742,0.0024613618789987605,-0.003888631830584663,-0.0007876890592999184,156.72671489828016,-177.29277139162477,0,0.7899928092956543,2019-08-06 14:28:37:301
-0.03927868604660034,-0.22646190226078033,9.88520336151123,0.0011294561110154748,-0.0030894884478169893,0.0018761223466294901,157.18816924062256,-177.3208666736882,0,0.793116569519043,2019-08-06 14:28:37:304
-0.0680156797170639,-0.24561989307403564,9.842098236083984,0.0024613618789987605,-0.0017575828098708665,0.0002778355485848519,157.6368323222609,-177.34634146428527,0,0.7966165542602539,2019-08-06 14:28:37:307
-0.04646293446421623,-0.22646190226078033,9.928308486938477,-0.0007352119771648412,-0.004687775213352337,0.002941646856986388,158.07961868491157,-177.3731422509452,0,0.7999813556671143,2019-08-06 14:28:37:311
-0.07519993185997009,-0.16898790001869202,9.92591381072998,0.0021949807514095357,-0.004421394085763112,1.1454389502251989e-05,158.51012186781563,-177.40655789932717,0,0.8031110763549805,2019-08-06 14:28:37:314
-0.05843668058514595,-0.259988397359848,9.949861526489258,0.0013958372386046994,-0.003888631830584663,0.00507269613777451,158.9339567975539,-177.428766404671,0,0.8066256046295166,2019-08-06 14:28:37:317
-0.03927868604660034,-0.16659316420555115,9.870835304260254,-0.0010015931047540657,-0.004155012958173888,-0.0005213078992014032,159.35150002039845,-177.46066437424403,0,0.8099784851074219,2019-08-06 14:28:37:321
-0.05364718288183212,-0.2096986472606659,9.842098236083984,0.0011294561110154748,-0.005220537468530785,0.0005442166761740764,159.7591405938217,-177.48723788160436,0,0.813105583190918,2019-08-06 14:28:37:324
-0.09914742410182953,-0.2623831331729889,9.897176742553711,0.0005966937908184444,-0.0014912016822816417,0.0021425034742187147,160.15277282652178,-177.5072386801428,0,0.8166186809539795,2019-08-06 14:28:37:327
-0.10393692553043365,-0.2480146437883377,9.858860969543457,-0.0018007365525403206,-0.004155012958173888,-0.0031851193376401022,160.53842359304977,-177.5279318418425,0,0.8199901580810547,2019-08-06 14:28:37:331
-0.07519993185997009,-0.19772490859031677,9.906756401062012,6.393147468507523e-05,-0.004155012958173888,1.1454389502251989e-05,160.91968769033153,-177.55451662374443,0,0.823122501373291,2019-08-06 14:28:37:334
-0.07519993185997009,-0.18096165359020233,9.897176742553711,0.0037932675169448835,-0.002023963937460091,-0.0010540701868891429,161.292985165645,-177.58322218113267,0,0.8266234397888184,2019-08-06 14:28:37:337
-0.05364718288183212,-0.19772490859031677,9.904361724853516,0.0037932675169448835,-0.0014912016822816417,0.0008105978362725917,161.66119952622822,-177.60939887478472,0,0.8299779891967773,2019-08-06 14:28:37:341
-0.11830542236566544,-0.2096986472606659,9.832518577575684,0.000863074918407669,-0.006019680851298459,0.0005442166761740764,162.01524440433724,-177.632926992555,0,0.8331019878387451,2019-08-06 14:28:37:344
-0.056041933596134186,-0.1953301578760147,9.813361167907715,0.0016622183661939237,-0.0009584393620846114,1.1454389502251989e-05,162.36858532298157,-177.6577917542021,0,0.8366289138793945,2019-08-06 14:28:37:347
-0.09196317940950394,-0.2480146437883377,9.899572372436523,0.0024613618789987605,-0.003622250702995438,0.0010769789638618162,162.71125016901792,-177.67639621379413,0,0.8399789333343506,2019-08-06 14:28:37:351
-0.08717367798089981,-0.24561989307403564,9.827729225158691,-0.002333498937755932,-0.004155012958173888,0.002408884601807939,163.04758840934207,-177.69382636869983,0,0.8430969715118408,2019-08-06 14:28:37:354
-0.11112117767333984,-0.16898790001869202,9.851676940917969,-0.001534355424951096,-0.004954156340941561,-0.0005213078992014032,163.37468480827383,-177.7199943249112,0,0.8465943336486816,2019-08-06 14:28:37:357
-0.03209443390369415,-0.19772490859031677,9.849282264709473,-0.0020671176801295454,-0.0030894884478169893,0.0005442166761740764,163.70404481428722,-177.74219997521357,0,0.8499822616577148,2019-08-06 14:28:37:361
-0.06322617828845978,-0.16419841349124908,9.899572372436523,0.0024613618789987605,-0.003622250702995438,0.0026752657293971638,164.0232821241968,-177.7687837953296,0,0.8531131744384766,2019-08-06 14:28:37:364
-0.10872642695903778,-0.18575115501880646,9.787018775939941,-0.0007352119771648412,-0.0033558695754062136,1.1454389502251989e-05,164.3307454430726,-177.7915176995015,0,0.8566088676452637,2019-08-06 14:28:37:367
-0.02969968505203724,-0.15940891206264496,9.861255645751953,0.002727743006587985,-0.0030894884478169893,-0.00025492675535753324,164.64126274498767,-177.81768013945504,0,0.8599720001220703,2019-08-06 14:28:37:371
-0.11830542236566544,-0.1953301578760147,9.837308883666992,-0.002333498937755932,-0.0014912016822816417,-0.0005213078992014032,164.9349184422048,-177.8381672752875,0,0.8630926609039307,2019-08-06 14:28:37:374
-0.04646293446421623,-0.23843564093112946,9.904361724853516,0.002727743006587985,-0.0022903450650493154,0.002408884601807939,165.2312958968017,-177.854360385189,0,0.8666031360626221,2019-08-06 14:28:37:377
-0.08956842869520187,-0.16898790001869202,9.957045555114746,0.0005966937908184444,-0.0017575828098708665,0.0026752657293971638,165.5166964471356,-177.87794039728877,0,0.8699901103973389,2019-08-06 14:28:37:381
-0.04646293446421623,-0.16419841349124908,9.9139404296875,-0.00020244967322245603,-0.0030894884478169893,0.003208027984575613,165.80153475743396,-177.9013686781653,0,0.8731184005737305,2019-08-06 14:28:37:384
-0.1207001730799675,-0.22406715154647827,9.856466293334961,0.0035268863893556587,-0.004954156340941561,0.0016097412190402653,166.07244401161554,-177.91798756862025,0,0.8766121864318848,2019-08-06 14:28:37:387
-0.05364718288183212,-0.21448814868927002,9.827729225158691,-0.004464548218544054,-0.004421394085763112,0.003208027984575613,166.34558343517972,-177.93377066818977,0,0.8800098896026611,2019-08-06 14:28:37:391
-0.03688393533229828,-0.2623831331729889,9.92591381072998,-0.0018007365525403206,-0.003622250702995438,0.0008105978362725917,166.61504772884794,-177.9444957782133,0,0.8831274509429932,2019-08-06 14:28:37:394
-0.08717367798089981,-0.26477789878845215,9.878019332885742,-0.0012679742973618717,-0.005753299723709235,0.002408884601807939,166.87376112198675,-177.9546488897904,0,0.886615514755249,2019-08-06 14:28:37:397
-0.09675268083810806,-0.1570141613483429,9.796597480773926,-0.00020244967322245603,-0.004155012958173888,0.0013433600914510408,167.12575416240986,-177.97715316150502,0,0.8899807929992676,2019-08-06 14:28:37:401
-0.04406818374991417,-0.20490914583206177,9.911545753479004,0.0016622183661939237,-0.005220537468530785,0.0013433600914510408,167.3790572939058,-177.99421378994788,0,0.8930957317352295,2019-08-06 14:28:37:404
-0.06083143129944801,-0.19054065644741058,9.820545196533203,0.0016622183661939237,-0.0017575828098708665,0.002408884601807939,167.62472201486742,-178.0124242279342,0,0.896580696105957,2019-08-06 14:28:37:407
-0.06562092900276184,-0.20730389654636383,9.937888145446777,0.00033031263071992917,-0.0030894884478169893,0.002408884601807939,167.86525177892344,-178.02833861661887,0,0.8999857902526855,2019-08-06 14:28:37:411
-0.10633167624473572,-0.2791464030742645,9.9139404296875,0.004592411159786882,-0.0033558695754062136,0.0016097412190402653,168.09624566034122,-178.0363208034316,0,0.9031112194061279,2019-08-06 14:28:37:414
-0.020120687782764435,-0.2791464030742645,9.858860969543457,0.0016622183661939237,-0.002023963937460091,0.0018761223466294901,168.33237894433083,-178.04348322687144,0,0.9066033363342285,2019-08-06 14:28:37:417
-0.09914742410182953,-0.19772490859031677,9.842098236083984,0.002994124134177209,-0.004421394085763112,0.0016097412190402653,168.55502549910273,-178.0601626779564,0,0.9099767208099365,2019-08-06 14:28:37:421
-0.1398581713438034,-0.18096165359020233,9.930704116821289,-0.002599880065345157,-0.005220537468530785,0.003474409372239163,168.76870508036734,-178.0776234721113,0,0.9131064414978027,2019-08-06 14:28:37:424
-0.07280518114566803,-0.20490914583206177,9.973809242248535,0.0013958372386046994,-0.00255672619263854,0.0018761223466294901,168.98547104213807,-178.09280732569437,0,0.9166219234466553,2019-08-06 14:28:37:427
-0.0680156797170639,-0.23364615440368652,9.856466293334961,-0.001534355424951096,-0.0054869185961200105,0.003208027984575613,169.19889242773584,-178.10350217474505,0,0.9199917316436768,2019-08-06 14:28:37:431
-0.10393692553043365,-0.19293540716171265,9.801386833190918,-0.0036654045757020556,-0.004421394085763112,-0.0005213078992014032,169.4035406160284,-178.118233937374,0,0.9231224060058594,2019-08-06 14:28:37:434
-0.09675268083810806,-0.2025144100189209,9.789413452148438,-0.0033990234481128304,-0.0014912016822816417,0.0026752657293971638,169.60446533639063,-178.13143597768743,0,0.926952600479126,2019-08-06 14:28:37:438
-0.1278844177722931,-0.21209339797496796,9.842098236083984,0.004326029772123333,-0.004155012958173888,-0.0015868324420675922,169.79831535609247,-178.14497919855336,0,0.9305019378662109,2019-08-06 14:28:37:441
-0.07041043043136597,-0.22406715154647827,9.880414009094238,-0.0018007365525403206,-0.004421394085763112,0.0026752657293971638,169.99496321477952,-178.1557793689335,0,0.9336442947387695,2019-08-06 14:28:37:444
-0.034489184617996216,-0.2743569016456604,9.846887588500977,0.0013958372386046994,-0.0017575828098708665,0.0026752657293971638,170.1912984108048,-178.16094120948594,0,0.9361579418182373,2019-08-06 14:28:37:447
-0.08238417655229568,-0.21927765011787415,9.909151077270508,-0.0012679742973618717,-0.0022903450650493154,0.0037407904998283874,170.37843858041555,-178.17209584864133,0,0.9399914741516113,2019-08-06 14:28:37:451
-0.024910185486078262,-0.18575115501880646,9.88520336151123,0.003260505261766434,-0.004421394085763112,1.1454389502251989e-05,170.56875436090928,-178.18769320694494,0,0.9431018829345703,2019-08-06 14:28:37:454
-0.08717367798089981,-0.18814590573310852,9.868440628051758,0.00033031263071992917,-0.006019680851298459,0.0021425034742187147,170.74843581707506,-178.20215931854145,0,0.946589469909668,2019-08-06 14:28:37:457
-0.08477892726659775,-0.259988397359848,9.957045555114746,0.0011294561110154748,-0.005220537468530785,0.0026752657293971638,170.92470484669346,-178.2084170600194,0,0.949981689453125,2019-08-06 14:28:37:461
-0.094357930123806,-0.21209339797496796,9.798992156982422,0.002994124134177209,-0.0022903450650493154,0.0016097412190402653,171.09557869810618,-178.21997549108642,0,0.9531078338623047,2019-08-06 14:28:37:464
-0.09675268083810806,-0.24561989307403564,9.98338794708252,0.000863074918407669,0.001971753236452603,0.002408884601807939,171.26217559523954,-178.22755799644344,0,0.9565978050231934,2019-08-06 14:28:37:467
-0.03688393533229828,-0.24322514235973358,9.770255088806152,-0.0012679742973618717,-0.0054869185961200105,0.00507269613777451,171.43364851936678,-178.23424490078364,0,0.9599812030792236,2019-08-06 14:28:37:471
-0.07759468257427216,-0.259988397359848,9.8229398727417,-0.0010015931047540657,-0.004155012958173888,0.0010769789638618162,171.5966518281172,-178.2390620880532,0,0.963101863861084,2019-08-06 14:28:37:474
-0.11112117767333984,-0.267172634601593,9.770255088806152,0.0013958372386046994,-0.0009584393620846114,-0.00025492675535753324,171.7518757353315,-178.24322877674254,0,0.9666204452514648,2019-08-06 14:28:37:477
-0.08956842869520187,-0.1833564043045044,9.84449291229248,0.002994124134177209,-0.0028231073202277645,0.0002778355485848519,171.90694706656652,-178.2575905254176,0,0.9699921607971191,2019-08-06 14:28:37:481
-0.04406818374991417,-0.26477789878845215,9.875624656677246,0.0011294561110154748,-0.0014912016822816417,0.0026752657293971638,172.06397354152816,-178.26193382164624,0,0.9733221530914307,2019-08-06 14:28:37:484
-0.1207001730799675,-0.2216724008321762,9.861255645751953,0.0013958372386046994,-0.003622250702995438,0.0021425034742187147,172.20938192299332,-178.2712150474506,0,0.9768276214599609,2019-08-06 14:28:37:488
-0.056041933596134186,-0.24322514235973358,9.861255645751953,-0.0010015931047540657,-0.00255672619263854,0.0042735527550068365,172.35913325246239,-178.27735603396954,0,0.9799704551696777,2019-08-06 14:28:37:491
-0.09914742410182953,-0.25759363174438477,9.801386833190918,0.0035268863893556587,-0.004155012958173888,0.0008105978362725917,172.50108747081566,-178.28231773291827,0,0.9830915927886963,2019-08-06 14:28:37:494
-0.10633167624473572,-0.1833564043045044,9.949861526489258,-0.00020244967322245603,-0.0012248205546924172,-0.0005213078992014032,172.63906091227048,-178.29551698681922,0,0.98659348487854,2019-08-06 14:28:37:497
-0.08717367798089981,-0.20730389654636383,9.861255645751953,-0.0012679742973618717,-0.0033558695754062136,0.0037407904998283874,172.77678852598697,-178.30527944691295,0,0.9899818897247314,2019-08-06 14:28:37:501
-0.015331187285482883,-0.20011965930461884,9.966625213623047,0.0035268863893556587,-0.0017575828098708665,-0.0007876890592999184,172.9197986799017,-178.31678745371931,0,0.9931092262268066,2019-08-06 14:28:37:504
-0.11830542236566544,-0.21688289940357208,9.875624656677246,-0.0012679742973618717,-0.002023963937460091,0.003208027984575613,173.04807276734968,-178.3250411196788,0,0.9966020584106445,2019-08-06 14:28:37:507
-0.07519993185997009,-0.23364615440368652,9.882808685302734,6.393147468507523e-05,-0.006286061978887684,0.002941646856986388,173.17958193588407,-178.33146608050302,0,0.9999732971191406,2019-08-06 14:28:37:511
-0.07998942583799362,-0.22406715154647827,9.858860969543457,0.0005966937908184444,-0.0022903450650493154,0.002941646856986388,173.30709516599867,-178.33890218926612,0,1.0030992031097412,2019-08-06 14:28:37:514
-0.06322617828845978,-0.2887254059314728,9.870835304260254,0.0005966937908184444,-0.005220537468530785,0.0016097412190402653,173.434642823498,-178.33873292946683,0,1.0066111087799072,2019-08-06 14:28:37:517
-0.08477892726659775,-0.2743569016456604,9.921124458312988,0.0019285994937831485,-0.007351587009393233,0.0026752657293971638,173.55755465446987,-178.34064380196935,0,1.0099945068359375,2019-08-06 14:28:37:521
-0.09675268083810806,-0.2096986472606659,9.84449291229248,0.0016622183661939237,-0.0012248205546924172,0.0002778355485848519,173.67535671174593,-178.34971706923952,0,1.013120174407959,2019-08-06 14:28:37:524
-0.07759468257427216,-0.26477789878845215,9.889992713928223,0.0016622183661939237,-0.0017575828098708665,0.003208027984575613,173.79320421687726,-178.35237758452226,0,1.0166165828704834,2019-08-06 14:28:37:527
-0.07759468257427216,-0.259988397359848,9.743913650512695,0.004059648644534107,-0.00255672619263854,0.0016097412190402653,173.90870565837938,-178.35554098972773,0,1.0200347900390625,2019-08-06 14:28:37:531
-0.06562092900276184,-0.21209339797496796,9.9139404296875,-0.0018007365525403206,-0.004687775213352337,0.006138220648131409,174.0237592160589,-178.36360673377595,0,1.0231213569641113,2019-08-06 14:28:37:534
-0.05843668058514595,-0.2216724008321762,9.846887588500977,0.000863074918407669,-0.0028231073202277645,0.003208027984575613,174.13703496794835,-178.3707107407463,0,1.026599407196045,2019-08-06 14:28:37:537
-0.06322617828845978,-0.21688289940357208,9.875624656677246,0.002727743006587985,-0.004155012958173888,0.006670982903309857,174.2477480723848,-178.37865333928258,0,1.0299861431121826,2019-08-06 14:28:37:541
-0.07280518114566803,-0.21927765011787415,9.827729225158691,0.0016622183661939237,-0.0006920582344953867,0.0026752657293971638,174.3544254673436,-178.38580803802265,0,1.0331077575683594,2019-08-06 14:28:37:544
-0.024910185486078262,-0.17856690287590027,9.892387390136719,-0.0007352119771648412,-0.00255672619263854,0.0018761223466294901,174.4649537352553,-178.3972648213525,0,1.036606788635254,2019-08-06 14:28:37:547
-0.08238417655229568,-0.2096986472606659,9.806177139282227,0.0021949807514095357,-0.005220537468530785,0.004539933882596061,174.56701765692105,-178.40523481129492,0,1.0399837493896484,2019-08-06 14:28:37:551
-0.08238417655229568,-0.259988397359848,9.784624099731445,-0.0010015931047540657,-0.0033558695754062136,0.004539933882596061,174.66661898196318,-178.40651299313328,0,1.0431137084960938,2019-08-06 14:28:37:554
0.01819530874490738,-0.22406715154647827,9.870835304260254,0.002727743006587985,-0.00255672619263854,0.002408884601807939,167.57590280710116,-178.41291260967864,0,1.046623706817627,2019-08-06 14:28:37:557
-0.07759468257427216,-0.18096165359020233,9.751097679138184,0.0005966937908184444,-0.004155012958173888,0.0018761223466294901,167.81605258117904,-178.42350372376734,0,1.0499939918518066,2019-08-06 14:28:37:561
-0.0680156797170639,-0.2025144100189209,9.84449291229248,0.004592411159786882,0.0006398475334878987,0.0021425034742187147,168.05170245849308,-178.43226822794574,0,1.0531129837036133,2019-08-06 14:28:37:564
-0.05125243216753006,-0.23843564093112946,9.933098793029785,0.0016622183661939237,-0.004155012958173888,0.003208027984575613,168.28558199064088,-178.43645192439678,0,1.0566542148590088,2019-08-06 14:28:37:567
-0.06562092900276184,-0.2288566529750824,9.894782066345215,-0.003132642320523606,-0.0030894884478169893,0.005871839520542184,168.5128495161581,-178.44063699950578,0,1.0599896907806396,2019-08-06 14:28:37:571
-0.16141091287136078,-0.24083039164543152,9.933098793029785,-0.00020244967322245603,-0.004954156340941561,0.00507269613777451,168.72484453423013,-178.44401109556316,0,1.0631217956542969,2019-08-06 14:28:37:574
-0.03927868604660034,-0.24322514235973358,9.889992713928223,6.393147468507523e-05,-0.0028231073202277645,0.004007171627417612,168.94637801047688,-178.446968153725,0,1.0667896270751953,2019-08-06 14:28:37:578
-0.08477892726659775,-0.21448814868927002,9.882808685302734,0.005125173414965331,-0.0022903450650493154,0.0042735527550068365,169.15803124843347,-178.45408176037637,0,1.0699832439422607,2019-08-06 14:28:37:581
-0.07041043043136597,-0.16180366277694702,9.911545753479004,-0.0004688308170663259,-0.0014912016822816417,0.003474409372239163,169.36699186854767,-178.46621275076163,0,1.0731070041656494,2019-08-06 14:28:37:584
-0.056041933596134186,-0.2096986472606659,9.84449291229248,-0.0007352119771648412,-0.006019680851298459,0.004007171627417612,169.5743093181464,-178.47233871879564,0,1.0765998363494873,2019-08-06 14:28:37:587
-0.09196317940950394,-0.25040939450263977,9.870835304260254,0.0013958372386046994,-0.004421394085763112,0.00507269613777451,169.77298588314977,-178.47409261880222,0,1.0799775123596191,2019-08-06 14:28:37:591
-0.09675268083810806,-0.21927765011787415,9.889992713928223,-0.0010015931047540657,-0.0012248205546924172,0.005339077265363735,169.9665304676471,-178.47903281754606,0,1.0830936431884766,2019-08-06 14:28:37:594
-0.05364718288183212,-0.21688289940357208,9.842098236083984,0.002727743006587985,-0.007884349264571683,0.002408884601807939,170.16250334492318,-178.4847406719332,0,1.0865938663482666,2019-08-06 14:28:37:597
-0.02969968505203724,-0.15940891206264496,9.731939315795898,0.003260505261766434,-0.004155012958173888,0.006138220648131409,170.35654696171594,-178.49689798278914,0,1.0899832248687744,2019-08-06 14:28:37:601
-0.09196317940950394,-0.18814590573310852,9.825334548950195,0.000863074918407669,-0.0017575828098708665,0.005339077265363735,170.53899984762182,-178.50517126351434,0,1.0931148529052734,2019-08-06 14:28:37:604
-0.0680156797170639,-0.21927765011787415,9.935493469238281,0.0019285994937831485,-0.0006920582344953867,0.006404601775720633,170.72051063991321,-178.51015846264207,0,1.0965964794158936,2019-08-06 14:28:37:607
-0.04646293446421623,-0.19054065644741058,9.959440231323242,0.0019285994937831485,-0.0054869185961200105,0.003474409372239163,170.90179610498373,-178.51840080262946,0,1.0999772548675537,2019-08-06 14:28:37:611
-0.10154217481613159,-0.1761721521615982,9.899572372436523,0.0019285994937831485,-0.0014912016822816417,0.0026752657293971638,171.0722703081452,-178.52798325788947,0,1.103125810623169,2019-08-06 14:28:37:614
-0.041673433035612106,-0.23843564093112946,9.880414009094238,0.000863074918407669,-0.003888631830584663,0.004539933882596061,171.24675924829862,-178.52994590521544,0,1.1066410541534424,2019-08-06 14:28:37:617
-0.07998942583799362,-0.27196213603019714,9.906756401062012,-0.001534355424951096,-0.005753299723709235,0.004007171627417612,171.41365316828208,-178.5276086255687,0,1.1099882125854492,2019-08-06 14:28:37:621
-0.04646293446421623,-0.1953301578760147,9.889992713928223,-0.0036654045757020556,-0.003622250702995438,0.003208027984575613,171.5806330186283,-178.53378329986955,0,1.113116979598999,2019-08-06 14:28:37:624
-0.03927868604660034,-0.2025144100189209,9.798992156982422,6.393147468507523e-05,-0.0017575828098708665,0.0013433600914510408,171.74477179514483,-178.53944106648018,0,1.1166102886199951,2019-08-06 14:28:37:627
-0.07280518114566803,-0.23125140368938446,9.889992713928223,0.0011294561110154748,-0.0030894884478169893,0.0069373640308990825,171.9020275800264,-178.54207740736672,0,1.1199924945831299,2019-08-06 14:28:37:631
-0.12309492379426956,-0.19293540716171265,9.870835304260254,0.0011294561110154748,-0.0033558695754062136,0.004539933882596061,172.0502836501071,-178.54903789621915,0,1.1231029033660889,2019-08-06 14:28:37:634
-0.08956842869520187,-0.20490914583206177,9.875624656677246,0.000863074918407669,-0.0054869185961200105,0.0021425034742187147,172.19995918782385,-178.55445290195104,0,1.1265888214111328,2019-08-06 14:28:37:637
-0.10633167624473572,-0.17138265073299408,9.889992713928223,-0.0010015931047540657,-0.006286061978887684,0.006670982903309857,172.3448380624278,-178.56331752309,0,1.1299824714660645,2019-08-06 14:28:37:641
-0.07519993185997009,-0.19054065644741058,9.95465087890625,0.0011294561110154748,-0.00255672619263854,0.002408884601807939,172.48973409704237,-178.57031845454165,0,1.1331112384796143,2019-08-06 14:28:37:644
-0.12548966705799103,-0.2025144100189209,9.897176742553711,0.0011294561110154748,-0.0017575828098708665,0.0037407904998283874,172.62575565298715,-178.57568946716736,0,1.136606216430664,2019-08-06 14:28:37:647
-0.05364718288183212,-0.19293540716171265,9.904361724853516,0.0005966937908184444,-0.004421394085763112,0.0016097412190402653,172.76787226894388,-178.5819694119698,0,1.139983892440796,2019-08-06 14:28:37:651
-0.08477892726659775,-0.21209339797496796,9.854071617126465,0.002994124134177209,-0.0009584393620846114,0.003474409372239163,172.90282493563757,-178.58619676916413,0,1.1431183815002441,2019-08-06 14:28:37:654
-0.08477892726659775,-0.20490914583206177,9.897176742553711,-0.002333498937755932,-0.0033558695754062136,0.0005442166761740764,173.03560201731094,-178.5902999840686,0,1.1465637683868408,2019-08-06 14:28:37:657
-0.14225292205810547,-0.17856690287590027,9.880414009094238,0.0016622183661939237,-0.002023963937460091,0.0018761223466294901,173.15878116404892,-178.59810523872397,0,1.1499807834625244,2019-08-06 14:28:37:661
-0.06322617828845978,-0.20011965930461884,9.83491325378418,0.00033031263071992917,-0.0054869185961200105,0.004806315010185286,173.28920094440028,-178.60288731410674,0,1.1531035900115967,2019-08-06 14:28:37:664
-0.048857681453228,-0.17856690287590027,9.904361724853516,0.0037932675169448835,-0.004954156340941561,0.0005442166761740764,173.41874208523456,-178.61092067570584,0,1.1566188335418701,2019-08-06 14:28:37:667
-0.10872642695903778,-0.2216724008321762,9.808571815490723,-0.001534355424951096,-0.0009584393620846114,0.0018761223466294901,173.53784672313702,-178.61251897444154,0,1.1599867343902588,2019-08-06 14:28:37:671
-0.1207001730799675,-0.24561989307403564,9.827729225158691,0.0021949807514095357,-0.004954156340941561,0.003474409372239163,173.65388677449573,-178.61202065467063,0,1.163114070892334,2019-08-06 14:28:37:674
-0.06322617828845978,-0.252804160118103,9.92591381072998,-0.0018007365525403206,-0.0022903450650493154,-0.0010540701868891429,173.7739657145821,-178.61024270774433,0,1.166658639907837,2019-08-06 14:28:37:677
-0.10393692553043365,-0.22646190226078033,9.751097679138184,0.0011294561110154748,-0.00255672619263854,0.0016097412190402653,173.8867502965245,-178.61164065796055,0,1.1699864864349365,2019-08-06 14:28:37:681
-0.06562092900276184,-0.2791464030742645,9.911545753479004,-0.001534355424951096,-0.0009584393620846114,1.1454389502251989e-05,174.0015966699112,-178.60687416271378,0,1.1731078624725342,2019-08-06 14:28:37:684
-0.04646293446421623,-0.2096986472606659,9.940282821655273,6.393147468507523e-05,-0.004155012958173888,-0.0013204513144783674,174.1170238084669,-178.61057875340833,0,1.1766023635864258,2019-08-06 14:28:37:687
-0.08956842869520187,-0.18096165359020233,9.827729225158691,0.0013958372386046994,-0.00042567707439687154,0.0002778355485848519,174.22432069894455,-178.61753426869586,0,1.1799819469451904,2019-08-06 14:28:37:691
-0.09914742410182953,-0.2551988959312439,9.830123901367188,0.0013958372386046994,-0.00042567707439687154,0.004007171627417612,174.32835167388947,-178.61568651793885,0,1.1831111907958984,2019-08-06 14:28:37:694
-0.09675268083810806,-0.2216724008321762,9.866044998168945,0.0037932675169448835,-0.003888631830584663,0.0008105978362725917,174.43130996951362,-178.61837428499646,0,1.1866035461425781,2019-08-06 14:28:37:697
-0.07519993185997009,-0.2863306403160095,9.79420280456543,0.003260505261766434,0.0011726098536849292,-0.0005213078992014032,174.53366329974529,-178.61313394551433,0,1.1899797916412354,2019-08-06 14:28:37:701
-0.05125243216753006,-0.20011965930461884,9.906756401062012,6.393147468507523e-05,-0.003888631830584663,0.0005442166761740764,174.6377428882681,-178.61773775054547,0,1.1930994987487793,2019-08-06 14:28:37:704
-0.09675268083810806,-0.2096986472606659,9.777440071105957,0.002994124134177209,0.0009062286610771233,0.0016097412190402653,174.73348272339146,-178.62135942506703,0,1.1963670253753662,2019-08-06 14:28:37:707
-0.07519993185997009,-0.20730389654636383,9.870835304260254,-0.00020244967322245603,-0.0033558695754062136,0.0016097412190402653,174.83078322979006,-178.62482741704756,0,1.2000820636749268,2019-08-06 14:28:37:711
-0.08717367798089981,-0.23843564093112946,9.849282264709473,-0.0033990234481128304,-0.006019680851298459,0.0018761223466294901,174.925098771332,-178.62398950330288,0,1.2032570838928223,2019-08-06 14:28:37:714
-0.10633167624473572,-0.2096986472606659,9.928308486938477,-0.0012679742973618717,-0.0033558695754062136,0.0021425034742187147,175.0149467423542,-178.62707501888644,0,1.2065589427947998,2019-08-06 14:28:37:717
-0.07759468257427216,-0.21209339797496796,9.882808685302734,0.003260505261766434,-0.00894987325477993,1.1454389502251989e-05,175.10738407995692,-178.63057640482768,0,1.210007905960083,2019-08-06 14:28:37:721
-0.03927868604660034,-0.21927765011787415,9.9139404296875,0.0011294561110154748,-0.002023963937460091,0.0021425034742187147,175.2010555449449,-178.63282396741164,0,1.2131686210632324,2019-08-06 14:28:37:724
-0.07759468257427216,-0.20490914583206177,9.909151077270508,0.0021949807514095357,-0.0014912016822816417,1.1454389502251989e-05,175.28832445317133,-178.6368619301032,0,1.2163102626800537,2019-08-06 14:28:37:727
-0.04406818374991417,-0.21448814868927002,9.861255645751953,0.0035268863893556587,-0.004421394085763112,-0.00025492675535753324,175.37836301534838,-178.63994286304563,0,1.2200398445129395,2019-08-06 14:28:37:731
-0.06562092900276184,-0.17377740144729614,9.801386833190918,-0.002599880065345157,-0.0017575828098708665,0.0018761223466294901,175.46343237900217,-178.64637286076567,0,1.22316575050354,2019-08-06 14:28:37:734
-0.027304936200380325,-0.24561989307403564,9.904361724853516,-0.0010015931047540657,-0.004954156340941561,0.004539933882596061,175.55193484514967,-178.64484541051007,0,1.2265098094940186,2019-08-06 14:28:37:737
-0.020120687782764435,-0.20730389654636383,9.837308883666992,6.393147468507523e-05,-0.0030894884478169893,-0.0010540701868891429,175.6391622464395,-178.64781655088748,0,1.2300255298614502,2019-08-06 14:28:37:741
-0.012936437502503395,-0.2815411388874054,9.846887588500977,0.0005966937908184444,-0.004687775213352337,0.004539933882596061,175.72569866193092,-178.64221027646926,0,1.2331602573394775,2019-08-06 14:28:37:744
-0.056041933596134186,-0.22646190226078033,9.904361724853516,0.002727743006587985,-0.00042567707439687154,0.005339077265363735,175.8047759160297,-178.64365068366507,0,1.236302375793457,2019-08-06 14:28:37:747
-0.06322617828845978,-0.259988397359848,9.928308486938477,0.002727743006587985,-0.004155012958173888,0.0026752657293971638,175.88225450787468,-178.64134906605344,0,1.2400379180908203,2019-08-06 14:28:37:751
-0.06562092900276184,-0.21927765011787415,9.875624656677246,0.002727743006587985,-0.0009584393620846114,0.0037407904998283874,175.95716326687952,-178.6435606986623,0,1.2431604862213135,2019-08-06 14:28:37:754
-0.03209443390369415,-0.23125140368938446,9.90196704864502,0.002727743006587985,-0.004421394085763112,-0.0005213078992014032,176.0350937890191,-178.6444186468178,0,1.2463343143463135,2019-08-06 14:28:37:757
-0.07759468257427216,-0.25759363174438477,9.849282264709473,-0.00020244967322245603,-0.006019680851298459,0.0005442166761740764,176.1066239069275,-178.64152499020173,0,1.250060796737671,2019-08-06 14:28:37:761
-0.04646293446421623,-0.259988397359848,9.858860969543457,0.005391554542554556,-0.0012248205546924172,0.002941646856986388,176.17930644182343,-178.63943092343942,0,1.2531936168670654,2019-08-06 14:28:37:764
-0.04406818374991417,-0.17138265073299408,9.887598037719727,0.00033031263071992917,-0.0014912016822816417,0.0002778355485848519,176.25089196120044,-178.64684380312036,0,1.2565240859985352,2019-08-06 14:28:37:767
-0.048857681453228,-0.24561989307403564,9.882808685302734,-0.0007352119771648412,-0.0014912016822816417,0.0016097412190402653,176.32050399358405,-178.64528767254677,0,1.2600460052490234,2019-08-06 14:28:37:771
-0.024910185486078262,-0.21448814868927002,9.878019332885742,-0.00020244967322245603,-0.003888631830584663,0.0010769789638618162,176.39188482898174,-178.6474683480628,0,1.2631633281707764,2019-08-06 14:28:37:774
-0.05364718288183212,-0.21688289940357208,9.858860969543457,0.0013958372386046994,-0.004954156340941561,0.003208027984575613,176.4586877211782,-178.64956113064056,0,1.266312599182129,2019-08-06 14:28:37:777
-0.06083143129944801,-0.2623831331729889,9.889992713928223,0.0013958372386046994,-0.00255672619263854,0.0008105978362725917,176.5230003472659,-178.6464675701081,0,1.2700364589691162,2019-08-06 14:28:37:781
-0.08717367798089981,-0.1953301578760147,9.894782066345215,6.393147468507523e-05,-0.0022903450650493154,0.0018761223466294901,176.58284682567034,-178.65093116961145,0,1.2731609344482422,2019-08-06 14:28:37:784
-0.10872642695903778,-0.21688289940357208,9.88520336151123,0.0024613618789987605,-0.00042567707439687154,0.004007171627417612,176.63866195453912,-178.6532108514275,0,1.2763144969940186,2019-08-06 14:28:37:787
-0.08717367798089981,-0.21209339797496796,9.839703559875488,-0.00020244967322245603,-0.0022903450650493154,0.003208027984575613,176.6962174630769,-178.65540793244622,0,1.2800514698028564,2019-08-06 14:28:37:791
-0.11830542236566544,-0.23364615440368652,9.791808128356934,-0.0010015931047540657,0.00010708522141819095,0.0008105978362725917,176.74842996231706,-178.65478617109704,0,1.283174753189087,2019-08-06 14:28:37:794
-0.08717367798089981,-0.2480146437883377,9.918729782104492,0.0005966937908184444,-0.0009584393620846114,0.002941646856986388,176.80355927175142,-178.6531482974313,0,1.2863125801086426,2019-08-06 14:28:37:797
-0.0680156797170639,-0.19293540716171265,9.851676940917969,0.003260505261766434,-0.005220537468530785,0.0026752657293971638,176.86066801030657,-178.65832806055255,0,1.2900350093841553,2019-08-06 14:28:37:801
-0.07041043043136597,-0.16659316420555115,9.854071617126465,0.0011294561110154748,-0.004421394085763112,0.0018761223466294901,176.91604355399113,-178.6659888766023,0,1.293163537979126,2019-08-06 14:28:37:804
-0.05364718288183212,-0.23364615440368652,9.887598037719727,0.000863074918407669,-0.0009584393620846114,0.004539933882596061,176.97167576338182,-178.66574935755955,0,1.296330213546753,2019-08-06 14:28:37:807
-0.06562092900276184,-0.19293540716171265,9.856466293334961,-0.0028662611929343817,-0.0017575828098708665,0.004539933882596061,177.0249815767802,-178.66940584735434,0,1.3000624179840088,2019-08-06 14:28:37:811
-0.0680156797170639,-0.23364615440368652,9.856466293334961,-0.0018007365525403206,-0.003622250702995438,0.0037407904998283874,177.0772165298463,-178.66853989841792,0,1.3032188415527344,2019-08-06 14:28:37:814
-0.09196317940950394,-0.17856690287590027,9.940282821655273,0.0021949807514095357,-0.00042567707439687154,0.005339077265363735,177.12515918576548,-178.67504091077748,0,1.3069088459014893,2019-08-06 14:28:37:818
-0.08956842869520187,-0.1833564043045044,9.84449291229248,0.0016622183661939237,-0.0028231073202277645,-0.0005213078992014032,177.17273843039138,-178.68049870412,0,1.3101139068603516,2019-08-06 14:28:37:821
-0.08238417655229568,-0.20011965930461884,9.95465087890625,0.0024613618789987605,-0.0054869185961200105,0.003208027984575613,177.22076920247693,-178.6842899597187,0,1.3132586479187012,2019-08-06 14:28:37:824
-0.10154217481613159,-0.22406715154647827,9.868440628051758,-0.0007352119771648412,-0.0054869185961200105,0.002941646856986388,177.2655785223418,-178.6844540865354,0,1.316554069519043,2019-08-06 14:28:37:827
-0.07759468257427216,-0.24083039164543152,9.921124458312988,-0.0004688308170663259,-0.0006920582344953867,0.004007171627417612,177.31143885423,-178.68286308235184,0,1.320005178451538,2019-08-06 14:28:37:831
-0.056041933596134186,-0.27675163745880127,9.930704116821289,6.393147468507523e-05,-0.004155012958173888,0.0026752657293971638,177.35947174030238,-178.6772905948756,0,1.323127031326294,2019-08-06 14:28:37:834
-0.09196317940950394,-0.2695674002170563,9.887598037719727,0.002727743006587985,-0.0030894884478169893,0.002941646856986388,177.40217704963834,-178.67299896719376,0,1.3263115882873535,2019-08-06 14:28:37:837
-0.094357930123806,-0.20490914583206177,9.818150520324707,0.005924316797733005,-0.0028231073202277645,0.0026752657293971638,177.44371181884048,-178.6768666239352,0,1.3300390243530273,2019-08-06 14:28:37:841
-0.05125243216753006,-0.19293540716171265,9.760676383972168,-0.0004688308170663259,-0.004954156340941561,0.0021425034742187147,177.4896925417138,-178.68059886215713,0,1.3331737518310547,2019-08-06 14:28:37:844
-0.06083143129944801,-0.2096986472606659,9.904361724853516,0.004592411159786882,-0.006286061978887684,0.004007171627417612,177.53396797956307,-178.68353772512663,0,1.336310863494873,2019-08-06 14:28:37:847
-0.07998942583799362,-0.21927765011787415,9.937888145446777,-0.0010015931047540657,-0.004687775213352337,0.005339077265363735,177.5750456045796,-178.68437723141525,0,1.3400347232818604,2019-08-06 14:28:37:851
-0.08477892726659775,-0.21927765011787415,9.935493469238281,-0.00020244967322245603,-0.006286061978887684,0.0026752657293971638,177.6148695570282,-178.68536777164212,0,1.3431587219238281,2019-08-06 14:28:37:854
-0.07519993185997009,-0.22646190226078033,9.880414009094238,0.00033031263071992917,-0.005220537468530785,0.0018761223466294901,177.65477992300856,-178.68545909230667,0,1.3463284969329834,2019-08-06 14:28:37:857
-0.05843668058514595,-0.259988397359848,9.887598037719727,-0.0010015931047540657,-0.0022903450650493154,0.003208027984575613,177.69539217613712,-178.68141567856946,0,1.3500628471374512,2019-08-06 14:28:37:861
-0.10393692553043365,-0.22406715154647827,9.861255645751953,0.00033031263071992917,-0.0030894884478169893,-0.0005213078992014032,177.7299548013144,-178.68181296287554,0,1.3532211780548096,2019-08-06 14:28:37:864
-0.10393692553043365,-0.1761721521615982,9.889992713928223,0.0013958372386046994,-0.004954156340941561,0.0042735527550068365,177.76424215020018,-178.68802815255978,0,1.3565599918365479,2019-08-06 14:28:37:867
-0.06083143129944801,-0.24561989307403564,9.947466850280762,0.0035268863893556587,-0.0014912016822816417,0.0021425034742187147,177.80223825793993,-178.68666094064295,0,1.3600049018859863,2019-08-06 14:28:37:871
-0.09675268083810806,-0.18096165359020233,9.8229398727417,0.0005966937908184444,0.0022381343640418276,0.007470126286077531,177.83451446551402,-178.69192429278354,0,1.3631281852722168,2019-08-06 14:28:37:874
-0.10154217481613159,-0.25040939450263977,9.832518577575684,0.002994124134177209,-0.0022903450650493154,0.006138220648131409,177.86639966558542,-178.68944340589908,0,1.366309642791748,2019-08-06 14:28:37:877
-0.08717367798089981,-0.22646190226078033,9.969019889831543,0.0005966937908184444,-0.0009584393620846114,0.007736507413666756,177.89925233137427,-178.6897527673874,0,1.3700411319732666,2019-08-06 14:28:37:881
-0.008146938867866993,-0.2863306403160095,9.894782066345215,-0.00020244967322245603,-0.004687775213352337,0.003208027984575613,177.9411470838307,-178.68277143085723,0,1.3731689453125,2019-08-06 14:28:37:884
-0.05364718288183212,-0.2695674002170563,9.842098236083984,0.002994124134177209,-0.003622250702995438,0.0026752657293971638,177.9767148063699,-178.6782644398889,0,1.3762996196746826,2019-08-06 14:28:37:887
-0.094357930123806,-0.21688289940357208,9.84449291229248,6.393147468507523e-05,-0.00255672619263854,0.002941646856986388,178.00673267123804,-178.67947108271608,0,1.3800280094146729,2019-08-06 14:28:37:891
-0.06562092900276184,-0.26477789878845215,9.813361167907715,0.00033031263071992917,-0.00255672619263854,0.0037407904998283874,178.03938710863343,-178.67502913476628,0,1.3831737041473389,2019-08-06 14:28:37:894
-0.11830542236566544,-0.20490914583206177,9.9139404296875,0.000863074918407669,-0.0028231073202277645,0.0037407904998283874,178.06542606673057,-178.6780002589266,0,1.38633131980896,2019-08-06 14:28:37:897
-0.10633167624473572,-0.1570141613483429,9.918729782104492,0.004326029772123333,-0.004155012958173888,0.0018761223466294901,178.09270392451856,-178.68720813290346,0,1.3900623321533203,2019-08-06 14:28:37:901
-0.03209443390369415,-0.19054065644741058,9.808571815490723,-0.0012679742973618717,-0.006019680851298459,0.004539933882596061,178.12815770707172,-178.69098356696685,0,1.393190622329712,2019-08-06 14:28:37:904
-0.06322617828845978,-0.2025144100189209,9.878019332885742,0.000863074918407669,-0.0054869185961200105,0.0010769789638618162,178.1592874036619,-178.6938357826116,0,1.3965253829956055,2019-08-06 14:28:37:907
-0.05125243216753006,-0.2623831331729889,9.849282264709473,0.0013958372386046994,-0.004954156340941561,0.003474409372239163,178.19111991048575,-178.68971574249963,0,1.400052547454834,2019-08-06 14:28:37:911
-0.11830542236566544,-0.26477789878845215,9.928308486938477,-0.002333498937755932,-0.0028231073202277645,0.0016097412190402653,178.21413640270652,-178.6849608157763,0,1.4031622409820557,2019-08-06 14:28:37:914
-0.07759468257427216,-0.19772490859031677,9.84449291229248,0.0013958372386046994,-0.004421394085763112,0.00800288854125598,178.24160319468828,-178.68849589582828,0,1.4063100814819336,2019-08-06 14:28:37:917
-0.08238417655229568,-0.20490914583206177,9.88520336151123,-0.00020244967322245603,-0.00255672619263854,0.0037407904998283874,178.2677560927083,-178.69093348262913,0,1.4100360870361328,2019-08-06 14:28:37:921
-0.07041043043136597,-0.2096986472606659,9.90196704864502,0.002994124134177209,-0.003622250702995438,0.003208027984575613,178.2948896281379,-178.6933772506376,0,1.4131672382354736,2019-08-06 14:28:37:924
-0.09914742410182953,-0.2480146437883377,9.882808685302734,-0.0010015931047540657,-0.004155012958173888,0.004806315010185286,178.31827577343716,-178.69057038363235,0,1.4165093898773193,2019-08-06 14:28:37:927
-0.008146938867866993,-0.23843564093112946,9.906756401062012,-0.004198166830880505,-0.003622250702995438,0.003208027984575613,178.35168397764372,-178.68835449429423,0,1.420030117034912,2019-08-06 14:28:37:931
-0.08956842869520187,-0.19772490859031677,9.87322998046875,0.0011294561110154748,-0.00255672619263854,0.0037407904998283874,178.37470404104886,-178.69184030971888,0,1.4231579303741455,2019-08-06 14:28:37:934
-0.012936437502503395,-0.20490914583206177,9.851676940917969,-0.0004688308170663259,-0.003888631830584663,0.003474409372239163,178.40639307543418,-178.69408963342855,0,1.4263081550598145,2019-08-06 14:28:37:937
-0.14464767277240753,-0.23843564093112946,9.84449291229248,-0.0012679742973618717,-0.00255672619263854,0.005339077265363735,178.4219646445521,-178.6921934044219,0,1.4300379753112793,2019-08-06 14:28:37:941
-0.041673433035612106,-0.2288566529750824,9.808571815490723,0.004858792287376107,-0.007617968136982457,0.0018761223466294901,178.4499946736382,-178.6924708587435,0,1.4331657886505127,2019-08-06 14:28:37:944
-0.10154217481613159,-0.23125140368938446,9.803781509399414,-0.0004688308170663259,-0.004687775213352337,0.005871839520542184,178.4699591513452,-178.69151333829524,0,1.4363293647766113,2019-08-06 14:28:37:947
-0.034489184617996216,-0.2288566529750824,9.887598037719727,0.00033031263071992917,-0.0012248205546924172,0.004007171627417612,178.49681951453198,-178.691233848134,0,1.4400608539581299,2019-08-06 14:28:37:951
-0.09914742410182953,-0.21927765011787415,9.94267749786377,-0.001534355424951096,-0.0006920582344953867,0.005871839520542184,178.51557819768328,-178.69187131313612,0,1.4431915283203125,2019-08-06 14:28:37:954
-0.08717367798089981,-0.2025144100189209,9.892387390136719,-0.0010015931047540657,-0.003888631830584663,0.00507269613777451,178.53597695273976,-178.69437013388387,0,1.446892499923706,2019-08-06 14:28:37:958
-0.056041933596134186,-0.23125140368938446,9.825334548950195,0.0037932675169448835,-0.0006920582344953867,0.002941646856986388,178.5588499367521,-178.6942217566951,0,1.4502005577087402,2019-08-06 14:28:37:961
-0.11112117767333984,-0.28393590450286865,9.803781509399414,-0.001534355424951096,-0.00255672619263854,0.0008105978362725917,178.57514007256373,-178.6868856836365,0,1.4533698558807373,2019-08-06 14:28:37:964
-0.09675268083810806,-0.21448814868927002,9.894782066345215,0.0011294561110154748,-0.005220537468530785,0.0018761223466294901,178.59339791793516,-178.6885207933476,0,1.456662654876709,2019-08-06 14:28:37:967
-0.12309492379426956,-0.21209339797496796,9.937888145446777,0.000863074918407669,-0.00255672619263854,0.002941646856986388,178.60781576042663,-178.69045972939375,0,1.459998369216919,2019-08-06 14:28:37:971
-0.07519993185997009,-0.1761721521615982,9.868440628051758,-0.001534355424951096,-0.0033558695754062136,0.004806315010185286,178.62751436511743,-178.69592739194616,0,1.4631130695343018,2019-08-06 14:28:37:974
-0.07519993185997009,-0.2360409051179886,9.930704116821289,0.0037932675169448835,0.0017053721088633783,0.0013433600914510408,178.6459803183471,-178.69545872216418,0,1.4663140773773193,2019-08-06 14:28:37:977
-0.08956842869520187,-0.17377740144729614,9.798992156982422,-0.00020244967322245603,-0.0033558695754062136,0.006138220648131409,178.6632893119525,-178.70118738009805,0,1.4700429439544678,2019-08-06 14:28:37:981
-0.04406818374991417,-0.23125140368938446,9.758281707763672,6.393147468507523e-05,-0.002023963937460091,0.0008105978362725917,178.6852044721199,-178.7000240885059,0,1.4731740951538086,2019-08-06 14:28:37:984
-0.041673433035612106,-0.21448814868927002,9.875624656677246,0.0021949807514095357,-0.007085205881804008,0.003208027984575613,178.70799512852446,-178.70155156006166,0,1.476517915725708,2019-08-06 14:28:37:987
-0.08717367798089981,-0.1498299092054367,9.918729782104492,-0.0010015931047540657,-0.0028231073202277645,0.0018761223466294901,178.72431918937187,-178.71001504733016,0,1.4800186157226562,2019-08-06 14:28:37:991
-0.02969968505203724,-0.2288566529750824,9.906756401062012,0.003260505261766434,-0.004687775213352337,0.0026752657293971638,178.74722200178226,-178.7099210833588,0,1.4831511974334717,2019-08-06 14:28:37:994
-0.05125243216753006,-0.2025144100189209,9.861255645751953,0.004326029772123333,-0.0028231073202277645,0.004539933882596061,178.76682578656224,-178.71296517881515,0,1.4863300323486328,2019-08-06 14:28:37:997
-0.094357930123806,-0.16419841349124908,9.846887588500977,0.0019285994937831485,-0.007085205881804008,0.0016097412190402653,178.78199071066663,-178.72000268396383,0,1.4900548458099365,2019-08-06 14:28:38:001
-0.07759468257427216,-0.20730389654636383,9.940282821655273,0.0011294561110154748,-0.0009584393620846114,0.0018761223466294901,178.79758104094435,-178.72191442070013,0,1.4933080673217773,2019-08-06 14:28:38:004
-0.027304936200380325,-0.22646190226078033,9.887598037719727,-0.0004688308170663259,-0.0017575828098708665,0.0008105978362725917,178.81882143233966,-178.72113999916948,0,1.4969203472137451,2019-08-06 14:28:38:008
-0.094357930123806,-0.2025144100189209,9.882808685302734,0.0016622183661939237,0.0017053721088633783,0.0026752657293971638,178.83121014809066,-178.72352575901618,0,1.4999942779541016,2019-08-06 14:28:38:011
-0.07759468257427216,-0.21448814868927002,9.880414009094238,-0.002599880065345157,-0.005220537468530785,0.0016097412190402653,178.84650256072155,-178.7237270863397,0,1.5031182765960693,2019-08-06 14:28:38:014
-0.06083143129944801,-0.23125140368938446,9.933098793029785,0.000863074918407669,-0.003888631830584663,-0.0013204513144783674,178.86325375498228,-178.72273453957513,0,1.5063190460205078,2019-08-06 14:28:38:017
-0.14464767277240753,-0.20730389654636383,9.937888145446777,0.0024613618789987605,-0.0017575828098708665,0.0026752657293971638,178.8696787357508,-178.72489475146804,0,1.5100467205047607,2019-08-06 14:28:38:021
-0.07280518114566803,-0.2096986472606659,9.84449291229248,6.393147468507523e-05,-0.005753299723709235,-0.0010540701868891429,178.88482279472424,-178.7260025176463,0,1.5131797790527344,2019-08-06 14:28:38:024
-0.10393692553043365,-0.22406715154647827,9.839703559875488,0.0005966937908184444,-0.003888631830584663,0.0016097412190402653,178.89574924531814,-178.7255040077895,0,1.5165083408355713,2019-08-06 14:28:38:027
-0.056041933596134186,-0.2695674002170563,9.849282264709473,0.0011294561110154748,-0.004687775213352337,0.0018761223466294901,178.91223877480354,-178.71986169419978,0,1.5200212001800537,2019-08-06 14:28:38:031
-0.07519993185997009,-0.24322514235973358,9.79420280456543,0.004592411159786882,-0.004421394085763112,0.0021425034742187147,178.92597358333688,-178.71782095805244,0,1.5231540203094482,2019-08-06 14:28:38:034
-0.05125243216753006,-0.2025144100189209,9.894782066345215,0.0037932675169448835,-0.004687775213352337,1.1454389502251989e-05,178.94235596996873,-178.72069217350287,0,1.5263352394104004,2019-08-06 14:28:38:037
-0.04406818374991417,-0.1833564043045044,9.83491325378418,-0.0004688308170663259,-0.003888631830584663,0.0010769789638618162,178.95918752410336,-178.72481897207552,0,1.530059814453125,2019-08-06 14:28:38:041
-0.07759468257427216,-0.17138265073299408,9.875624656677246,-0.00020244967322245603,-0.005753299723709235,-0.0010540701868891429,178.972011095486,-178.7304026773921,0,1.533188819885254,2019-08-06 14:28:38:044
-0.10872642695903778,-0.21688289940357208,9.935493469238281,0.0013958372386046994,-0.004421394085763112,0.0021425034742187147,178.98086042574695,-178.73104602686755,0,1.5365283489227295,2019-08-06 14:28:38:047
-0.04406818374991417,-0.2695674002170563,9.866044998168945,0.0019285994937831485,-0.004155012958173888,0.0016097412190402653,178.99696893798722,-178.72551513382302,0,1.5401463508605957,2019-08-06 14:28:38:051
-0.09914742410182953,-0.21209339797496796,9.88520336151123,-0.0007352119771648412,-0.004155012958173888,0.003208027984575613,179.00624146764054,-178.72629751375894,0,1.5431678295135498,2019-08-06 14:28:38:054
-0.07280518114566803,-0.2096986472606659,9.9139404296875,0.0005966937908184444,-0.004687775213352337,-0.00025492675535753324,179.0185281314602,-178.7276421071723,0,1.5463082790374756,2019-08-06 14:28:38:057
-0.04646293446421623,-0.2551988959312439,9.949861526489258,0.0005966937908184444,-0.0028231073202277645,0.0013433600914510408,179.03339688909304,-178.7238294872512,0,1.550032615661621,2019-08-06 14:28:38:061
-0.11112117767333984,-0.22406715154647827,9.892387390136719,-0.0012679742973618717,-0.0030894884478169893,-0.0013204513144783674,179.04039935764197,-178.7231793985484,0,1.5531566143035889,2019-08-06 14:28:38:064
-0.05843668058514595,-0.2743569016456604,9.818150520324707,0.00033031263071992917,-0.0033558695754062136,0.0010769789638618162,179.05336449470173,-178.71676126034112,0,1.5563058853149414,2019-08-06 14:28:38:067
-0.07041043043136597,-0.1570141613483429,9.842098236083984,-0.0020671176801295454,-0.005220537468530785,0.0021425034742187147,179.06519523508618,-178.72371254278627,0,1.5600440502166748,2019-08-06 14:28:38:071
-0.08477892726659775,-0.2096986472606659,9.935493469238281,0.0024613618789987605,-0.0028231073202277645,0.0002778355485848519,179.0746099601699,-178.7254889808003,0,1.5631756782531738,2019-08-06 14:28:38:074
-0.08717367798089981,-0.2360409051179886,9.892387390136719,0.002994124134177209,-0.0009584393620846114,0.003208027984575613,179.0831886863282,-178.72416886234078,0,1.5663104057312012,2019-08-06 14:28:38:077
-0.05364718288183212,-0.2360409051179886,9.839703559875488,-0.0010015931047540657,-0.003622250702995438,0.002408884601807939,179.0960353344605,-178.72199222138164,0,1.5700373649597168,2019-08-06 14:28:38:081
-0.13506866991519928,-0.22646190226078033,9.837308883666992,0.0019285994937831485,-0.006286061978887684,0.0005442166761740764,179.09948380748526,-178.72151530448846,0,1.5731592178344727,2019-08-06 14:28:38:084
-0.10393692553043365,-0.24083039164543152,9.882808685302734,6.393147468507523e-05,-0.006552443626625559,0.002941646856986388,179.10660856598,-178.7191775161891,0,1.5763270854949951,2019-08-06 14:28:38:087
-0.06562092900276184,-0.21927765011787415,9.818150520324707,0.002727743006587985,-0.0012248205546924172,-0.00025492675535753324,179.11707445215225,-178.71977741088475,0,1.580061435699463,2019-08-06 14:28:38:091
-0.11112117767333984,-0.24322514235973358,9.909151077270508,0.0011294561110154748,-0.0054869185961200105,0.0010769789638618162,179.1228493538341,-178.7174593058429,0,1.5831973552703857,2019-08-06 14:28:38:094
-0.10633167624473572,-0.252804160118103,9.875624656677246,0.0005966937908184444,-0.00015929593055300162,0.0018761223466294901,179.12808307761608,-178.71388885116696,0,1.5863728523254395,2019-08-06 14:28:38:097
-0.13746342062950134,-0.1953301578760147,9.94267749786377,0.0024613618789987605,-0.003622250702995438,0.0010769789638618162,179.1304267188068,-178.7176095064615,0,1.5900468826293945,2019-08-06 14:28:38:101
-0.03688393533229828,-0.19293540716171265,9.911545753479004,0.0005966937908184444,-0.0022903450650493154,0.0002778355485848519,179.1439550378631,-178.72105856479465,0,1.5931661128997803,2019-08-06 14:28:38:104
-0.08477892726659775,-0.20730389654636383,9.796597480773926,6.393147468507523e-05,-0.007351587009393233,0.0016097412190402653,179.1524547933927,-178.722403778609,0,1.596303939819336,2019-08-06 14:28:38:107
-0.048857681453228,-0.27675163745880127,9.90196704864502,0.0016622183661939237,-0.0006920582344953867,0.0026752657293971638,179.16389721290207,-178.71628631514878,0,1.6000502109527588,2019-08-06 14:28:38:111
-0.03927868604660034,-0.19054065644741058,9.810966491699219,-0.0004688308170663259,-0.003888631830584663,0.0037407904998283874,179.17671169870223,-178.7196263403688,0,1.6031651496887207,2019-08-06 14:28:38:114
-0.11830542236566544,-0.1570141613483429,9.858860969543457,6.393147468507523e-05,-0.004421394085763112,0.002408884601807939,179.1802574416528,-178.72699728328647,0,1.6065092086791992,2019-08-06 14:28:38:117
-0.07759468257427216,-0.2288566529750824,9.88520336151123,-0.0028662611929343817,-0.0033558695754062136,0.0021425034742187147,179.18832004066218,-178.72536662547785,0,1.61002516746521,2019-08-06 14:28:38:121
-0.13746342062950134,-0.23843564093112946,9.928308486938477,-0.002333498937755932,-0.003622250702995438,0.0005442166761740764,179.18932628113456,-178.72293387653605,0,1.6131596565246582,2019-08-06 14:28:38:124
-0.08477892726659775,-0.20490914583206177,9.961835861206055,0.0005966937908184444,-0.0030894884478169893,0.003208027984575613,179.19633323103457,-178.7250130462816,0,1.6163036823272705,2019-08-06 14:28:38:127
-0.09196317940950394,-0.16898790001869202,9.777440071105957,6.393147468507523e-05,-0.003888631830584663,0.0021425034742187147,179.20244246630986,-178.73072275898113,0,1.620030164718628,2019-08-06 14:28:38:131
-0.06562092900276184,-0.21209339797496796,9.92591381072998,-0.001534355424951096,-0.0033558695754062136,0.0002778355485848519,179.2114065673658,-178.7313574088611,0,1.6231536865234375,2019-08-06 14:28:38:134
-0.05843668058514595,-0.19054065644741058,9.851676940917969,0.002994124134177209,-0.00042567707439687154,0.002941646856986388,179.22045710507103,-178.73510280454468,0,1.6263232231140137,2019-08-06 14:28:38:137
-0.08477892726659775,-0.20730389654636383,9.878019332885742,0.002994124134177209,-0.0033558695754062136,0.002408884601807939,179.22691695768546,-178.73698347237232,0,1.6300575733184814,2019-08-06 14:28:38:141
-0.11830542236566544,-0.2216724008321762,9.858860969543457,0.000863074918407669,-0.0022903450650493154,0.006404601775720633,179.2290314391165,-178.73663458574404,0,1.6331915855407715,2019-08-06 14:28:38:144
-0.11112117767333984,-0.23843564093112946,9.90196704864502,0.0021949807514095357,-0.0033558695754062136,0.0010769789638618162,179.23222680279534,-178.73472938947256,0,1.6365618705749512,2019-08-06 14:28:38:147
-0.03927868604660034,-0.23364615440368652,9.842098236083984,-0.002333498937755932,-0.00255672619263854,0.0021425034742187147,179.24350389774472,-178.73238486479116,0,1.6400086879730225,2019-08-06 14:28:38:151
-0.017725937068462372,-0.23125140368938446,9.825334548950195,0.0005966937908184444,0.0009062286610771233,0.0037407904998283874,179.256407433505,-178.7308763201821,0,1.6431341171264648,2019-08-06 14:28:38:154
-0.05364718288183212,-0.2216724008321762,9.810966491699219,0.0024613618789987605,-0.0014912016822816417,0.0042735527550068365,179.26527961147156,-178.73081141169223,0,1.6463136672973633,2019-08-06 14:28:38:157
-0.11591067165136337,-0.2096986472606659,9.856466293334961,0.0024613618789987605,-0.0012248205546924172,-0.0010540701868891429,179.26675532898668,-178.73233468347604,0,1.650043249130249,2019-08-06 14:28:38:161
-0.1207001730799675,-0.19293540716171265,9.858860969543457,-0.0012679742973618717,-0.0030894884478169893,0.0010769789638618162,179.2679359862444,-178.7350421890507,0,1.6531808376312256,2019-08-06 14:28:38:164
-0.05843668058514595,-0.17138265073299408,9.808571815490723,0.00033031263071992917,-0.005753299723709235,0.0026752657293971638,179.2768349865654,-178.74038336865573,0,1.656538486480713,2019-08-06 14:28:38:167
-0.1207001730799675,-0.27196213603019714,9.928308486938477,0.0013958372386046994,-0.004954156340941561,0.0018761223466294901,179.27833498736186,-178.73446643068152,0,1.6600151062011719,2019-08-06 14:28:38:171
-0.12548966705799103,-0.16180366277694702,9.90196704864502,0.0024613618789987605,-0.0030894884478169893,-0.00025492675535753324,179.27878931894574,-178.74148621447628,0,1.6631433963775635,2019-08-06 14:28:38:174
-0.10154217481613159,-0.24083039164543152,9.92591381072998,0.0019285994937831485,-0.0022903450650493154,1.1454389502251989e-05,179.28190039041172,-178.73920337905446,0,1.6663250923156738,2019-08-06 14:28:38:177
-0.08238417655229568,-0.2480146437883377,9.947466850280762,0.004858792287376107,-0.0028231073202277645,0.0013433600914510408,179.28736375496064,-178.73687284681466,0,1.6700568199157715,2019-08-06 14:28:38:181
-0.11112117767333984,-0.2025144100189209,9.866044998168945,0.0005966937908184444,-0.0033558695754062136,0.004806315010185286,179.2893004615127,-178.73872205094128,0,1.673187255859375,2019-08-06 14:28:38:184
-0.05843668058514595,-0.1953301578760147,9.906756401062012,0.002994124134177209,-0.0028231073202277645,0.0005442166761740764,179.29728361886768,-178.7419171549662,0,1.6765210628509521,2019-08-06 14:28:38:187
-0.08717367798089981,-0.23125140368938446,9.904361724853516,0.002727743006587985,-0.003622250702995438,0.004539933882596061,179.30196491701935,-178.74086490710377,0,1.6800243854522705,2019-08-06 14:28:38:191
-0.05364718288183212,-0.2025144100189209,9.846887588500977,-0.002333498937755932,-0.002023963937460091,-0.0010540701868891429,179.31004031372987,-178.74207119668856,0,1.6831722259521484,2019-08-06 14:28:38:194
-0.11830542236566544,-0.1498299092054367,9.803781509399414,0.0019285994937831485,-0.006286061978887684,-0.0007876890592999184,179.31111839625837,-178.75005769380144,0,1.6863067150115967,2019-08-06 14:28:38:197
-0.03927868604660034,-0.24083039164543152,9.904361724853516,0.0005966937908184444,-0.002023963937460091,0.004806315010185286,179.32077494550742,-178.74732322973682,0,1.6900320053100586,2019-08-06 14:28:38:201
-0.15662142634391785,-0.21448814868927002,9.916335105895996,0.0016622183661939237,-0.00255672619263854,0.002941646856986388,179.31671068537185,-178.74788641153094,0,1.6931571960449219,2019-08-06 14:28:38:204
-0.07998942583799362,-0.252804160118103,9.894782066345215,0.0013958372386046994,-0.00255672619263854,0.003474409372239163,179.32156581583413,-178.74390494278313,0,1.6963107585906982,2019-08-06 14:28:38:207
-0.12548966705799103,-0.27675163745880127,9.875624656677246,0.0005966937908184444,-0.004155012958173888,0.0026752657293971638,179.32144552514293,-178.73704758127144,0,1.7000458240509033,2019-08-06 14:28:38:211
-0.094357930123806,-0.2551988959312439,9.849282264709473,0.0021949807514095357,-0.007085205881804008,-0.0021195946972460415,179.32528388140304,-178.73300783592327,0,1.7031753063201904,2019-08-06 14:28:38:214
-0.10154217481613159,-0.2216724008321762,9.878019332885742,0.0005966937908184444,-0.0033558695754062136,0.0021425034742187147,179.32762756377005,-178.73274828238982,0,1.7065107822418213,2019-08-06 14:28:38:217
-0.017725937068462372,-0.2623831331729889,9.894782066345215,-0.0020671176801295454,-0.0030894884478169893,0.0013433600914510408,179.3396316047156,-178.72730606252176,0,1.7100238800048828,2019-08-06 14:28:38:221
-0.07041043043136597,-0.2480146437883377,9.84449291229248,-0.0018007365525403206,-0.006019680851298459,1.1454389502251989e-05,179.34570027249356,-178.72358051512316,0,1.713151216506958,2019-08-06 14:28:38:224
-0.12548966705799103,-0.22646190226078033,9.928308486938477,0.00033031263071992917,-0.004421394085763112,0.0037407904998283874,179.34509173227076,-178.72303434033566,0,1.7163276672363281,2019-08-06 14:28:38:227
-0.08956842869520187,-0.23125140368938446,9.851676940917969,-0.0010015931047540657,-0.0009584393620846114,-0.0018532135696568165,179.34797262173248,-178.7214703783086,0,1.7200579643249512,2019-08-06 14:28:38:231
-0.09196317940950394,-0.19772490859031677,9.894782066345215,0.003260505261766434,-0.0014912016822816417,0.003474409372239163,179.35062504629695,-178.7247179781601,0,1.7231850624084473,2019-08-06 14:28:38:234
-0.13506866991519928,-0.16180366277694702,9.827729225158691,0.0011294561110154748,-0.00255672619263854,0.0026752657293971638,179.34834224254826,-178.73157002505485,0,1.7265129089355469,2019-08-06 14:28:38:237
-0.04646293446421623,-0.21927765011787415,9.887598037719727,0.000863074918407669,-0.0012248205546924172,0.003474409372239163,179.35623321025602,-178.73170069474554,0,1.7300398349761963,2019-08-06 14:28:38:241
-0.000962689402513206,-0.21927765011787415,9.827729225158691,0.004059648644534107,-0.0022903450650493154,-0.0013204513144783674,179.36939734526143,-178.73221395719102,0,1.7331583499908447,2019-08-06 14:28:38:244
-0.056041933596134186,-0.24561989307403564,9.83491325378418,0.0016622183661939237,-0.006286061978887684,0.004806315010185286,179.37659055342837,-178.7292509387897,0,1.7363054752349854,2019-08-06 14:28:38:247
-0.08238417655229568,-0.21927765011787415,9.789413452148438,0.000863074918407669,-0.004954156340941561,0.0013433600914510408,179.3804529007823,-178.72918306517488,0,1.7400352954864502,2019-08-06 14:28:38:251
-0.048857681453228,-0.20011965930461884,9.868440628051758,0.002727743006587985,-0.0012248205546924172,0.003208027984575613,179.3873850774563,-178.73184256272066,0,1.7431542873382568,2019-08-06 14:28:38:254
-0.06083143129944801,-0.20730389654636383,9.870835304260254,-0.0010015931047540657,-0.003622250702995438,0.0005442166761740764,179.3932173168429,-178.7329656478475,0,1.7463099956512451,2019-08-06 14:28:38:257
-0.03927868604660034,-0.13546140491962433,9.899572372436523,0.0016622183661939237,0.00010708522141819095,0.004806315010185286,179.40078388058654,-178.74297553536255,0,1.7500431537628174,2019-08-06 14:28:38:261
-0.08717367798089981,-0.22646190226078033,9.882808685302734,0.0005966937908184444,-0.00015929593055300162,0.00507269613777451,179.4026886489522,-178.74196717864686,0,1.7531743049621582,2019-08-06 14:28:38:264
-0.09914742410182953,-0.23364615440368652,9.892387390136719,0.000863074918407669,-0.00042567707439687154,0.0005442166761740764,179.40322990976202,-178.74022933016124,0,1.7565088272094727,2019-08-06 14:28:38:267
-0.07759468257427216,-0.267172634601593,9.84449291229248,0.0037932675169448835,-0.004155012958173888,0.002408884601807939,179.4069517961857,-178.73508022331131,0,1.760016918182373,2019-08-06 14:28:38:271
-0.07998942583799362,-0.19054065644741058,9.868440628051758,0.0011294561110154748,-0.004954156340941561,0.002408884601807939,179.4103940048128,-178.738454131897,0,1.7631421089172363,2019-08-06 14:28:38:274
-0.08238417655229568,-0.2025144100189209,9.813361167907715,-0.0012679742973618717,-0.003622250702995438,0.0002778355485848519,179.41321460531992,-178.73981365333128,0,1.7663297653198242,2019-08-06 14:28:38:277
-0.094357930123806,-0.20490914583206177,9.842098236083984,0.0019285994937831485,-0.007351587009393233,0.003208027984575613,179.4155031072854,-178.74156687314445,0,1.770056962966919,2019-08-06 14:28:38:281
0.020590057596564293,-0.2288566529750824,9.858860969543457,0.0013958372386046994,-0.004155012958173888,0.002408884601807939,172.23031666321089,-178.74038520483109,0,1.7731876373291016,2019-08-06 14:28:38:284
-0.05364718288183212,-0.23364615440368652,9.980993270874023,0.00033031263071992917,-0.0022903450650493154,0.0010769789638618162,172.37999851576959,-178.73882205290116,0,1.7766661643981934,2019-08-06 14:28:38:287
-0.03209443390369415,-0.2096986472606659,9.84449291229248,-0.0007352119771648412,-0.006552443626625559,0.003208027984575613,172.5298910371165,-178.73950220293057,0,1.7800047397613525,2019-08-06 14:28:38:291
-0.024910185486078262,-0.25040939450263977,9.957045555114746,0.0005966937908184444,-0.0022903450650493154,0.0018761223466294901,172.67682798140322,-178.73600426001403,0,1.7831273078918457,2019-08-06 14:28:38:294
-0.07998942583799362,-0.18575115501880646,9.86365032196045,-0.00020244967322245603,-0.004421394085763112,-0.00025492675535753324,172.81478792567648,-178.73967083883,0,1.7863059043884277,2019-08-06 14:28:38:297
-0.11112117767333984,-0.2025144100189209,9.933098793029785,-0.0007352119771648412,-0.0033558695754062136,0.0069373640308990825,172.94637647578622,-178.74136388304296,0,1.7900371551513672,2019-08-06 14:28:38:301
-0.08238417655229568,-0.259988397359848,9.866044998168945,0.004326029772123333,-0.0009584393620846114,0.0005442166761740764,173.07804927451153,-178.73710857811284,0,1.7931740283966064,2019-08-06 14:28:38:304
-0.09914742410182953,-0.22406715154647827,9.935493469238281,0.002994124134177209,-0.004687775213352337,-0.0007876890592999184,173.2058776211969,-178.73705428668816,0,1.7963051795959473,2019-08-06 14:28:38:307
-0.07759468257427216,-0.15940891206264496,9.916335105895996,-0.0033990234481128304,0.0006398475334878987,0.005339077265363735,173.33265954219738,-178.74318194409577,0,1.800034761428833,2019-08-06 14:28:38:311
-0.015331187285482883,-0.22406715154647827,9.83491325378418,-0.0004688308170663259,-0.0009584393620846114,0.004806315010185286,173.4643881346638,-178.7421333953232,0,1.8031582832336426,2019-08-06 14:28:38:314
-0.11830542236566544,-0.26477789878845215,9.820545196533203,0.0021949807514095357,-0.0028231073202277645,-0.0005213078992014032,173.5818675287369,-178.73684643083308,0,1.806760549545288,2019-08-06 14:28:38:317
-0.07998942583799362,-0.19293540716171265,9.83491325378418,0.0011294561110154748,-0.004687775213352337,0.0016097412190402653,173.70177054462027,-178.73983974088972,0,1.810028314590454,2019-08-06 14:28:38:321
-0.09675268083810806,-0.24561989307403564,9.904361724853516,-0.0007352119771648412,-0.0022903450650493154,0.0018761223466294901,173.8169807663897,-178.7364899789129,0,1.8134448528289795,2019-08-06 14:28:38:324
-0.04406818374991417,-0.25759363174438477,9.858860969543457,0.003260505261766434,-0.004687775213352337,0.004539933882596061,173.93637548175394,-178.7324220318465,0,1.8166985511779785,2019-08-06 14:28:38:327
-0.08477892726659775,-0.259988397359848,9.933098793029785,-0.0004688308170663259,-0.004687775213352337,-0.0005213078992014032,174.04873216725593,-178.72770086038653,0,1.8199822902679443,2019-08-06 14:28:38:331
-0.12309492379426956,-0.16659316420555115,9.904361724853516,-0.0007352119771648412,-0.0028231073202277645,0.002941646856986388,174.15406660795028,-178.7337308663115,0,1.8234531879425049,2019-08-06 14:28:38:334
-0.10393692553043365,-0.259988397359848,9.868440628051758,0.0013958372386046994,-0.00255672619263854,0.0016097412190402653,174.25941041117343,-178.729143150599,0,1.826892614364624,2019-08-06 14:28:38:338
-0.11112117767333984,-0.24561989307403564,9.88520336151123,-0.0007352119771648412,-0.003622250702995438,0.002408884601807939,174.36196618599064,-178.725966490772,0,1.8299648761749268,2019-08-06 14:28:38:341
-0.06562092900276184,-0.15222465991973877,9.880414009094238,0.0024613618789987605,-0.004421394085763112,0.0021425034742187147,174.4679630104481,-178.73426509642354,0,1.8333752155303955,2019-08-06 14:28:38:344
-0.10872642695903778,-0.20730389654636383,9.846887588500977,0.0019285994937831485,-0.0028231073202277645,0.0021425034742187147,174.56646482622804,-178.73580944679227,0,1.8366141319274902,2019-08-06 14:28:38:347
-0.10393692553043365,-0.27196213603019714,9.806177139282227,0.002994124134177209,-0.004421394085763112,0.0021425034742187147,174.66383343955945,-178.72989183765958,0,1.840010404586792,2019-08-06 14:28:38:351
-0.06562092900276184,-0.22646190226078033,9.969019889831543,0.000863074918407669,-0.003888631830584663,0.0016097412190402653,174.76376062371017,-178.7294329421321,0,1.8434302806854248,2019-08-06 14:28:38:354
-0.08717367798089981,-0.21209339797496796,9.83491325378418,-0.0012679742973618717,-0.004687775213352337,0.0026752657293971638,174.85918004146325,-178.72990574211516,0,1.8466649055480957,2019-08-06 14:28:38:357
-0.06322617828845978,-0.18814590573310852,9.887598037719727,0.0011294561110154748,-0.0022903450650493154,0.002941646856986388,174.9550964394241,-178.73371602402884,0,1.8499886989593506,2019-08-06 14:28:38:361
-0.08717367798089981,-0.17377740144729614,9.945072174072266,0.004326029772123333,-0.00042567707439687154,0.0018761223466294901,175.04603174637774,-178.73984878326345,0,1.8533992767333984,2019-08-06 14:28:38:364
-0.09196317940950394,-0.21688289940357208,9.84449291229248,-0.002333498937755932,-0.0022903450650493154,0.0008105978362725917,175.1348287748339,-178.73938038236892,0,1.8566808700561523,2019-08-06 14:28:38:367
-0.08717367798089981,-0.2480146437883377,9.858860969543457,0.0016622183661939237,-0.003888631830584663,0.007470126286077531,175.22272639848714,-178.73608206932738,0,1.8600072860717773,2019-08-06 14:28:38:371
-0.07759468257427216,-0.21688289940357208,9.868440628051758,-0.0004688308170663259,-0.0030894884478169893,0.0005442166761740764,175.30985508328396,-178.73609018171248,0,1.8634271621704102,2019-08-06 14:28:38:374
-0.08477892726659775,-0.2216724008321762,9.909151077270508,0.00033031263071992917,-0.0033558695754062136,-0.0010540701868891429,175.39446829094095,-178.7357984223816,0,1.8666861057281494,2019-08-06 14:28:38:377
-0.10872642695903778,-0.2791464030742645,9.9139404296875,0.00033031263071992917,0.00010708522141819095,0.0037407904998283874,175.47399215210928,-178.72888714826033,0,1.8700110912322998,2019-08-06 14:28:38:381
-0.11830542236566544,-0.23843564093112946,9.889992713928223,-0.0004688308170663259,-0.00015929593055300162,0.0016097412190402653,175.55083587008468,-178.7265983546536,0,1.8734214305877686,2019-08-06 14:28:38:384
-0.09914742410182953,-0.24322514235973358,9.808571815490723,0.0013958372386046994,-0.003622250702995438,1.1454389502251989e-05,175.62889690809394,-178.7239112535553,0,1.87666916847229,2019-08-06 14:28:38:387
-0.06083143129944801,-0.21209339797496796,9.880414009094238,-0.00020244967322245603,-0.003888631830584663,0.00507269613777451,175.70998965844345,-178.7248007483373,0,1.879992961883545,2019-08-06 14:28:38:391
-0.03688393533229828,-0.28393590450286865,9.928308486938477,6.393147468507523e-05,-0.0028231073202277645,0.0018761223466294901,175.7920725807737,-178.7175542851452,0,1.8833982944488525,2019-08-06 14:28:38:394
-0.10393692553043365,-0.19293540716171265,9.904361724853516,0.0011294561110154748,-0.0030894884478169893,0.0013433600914510408,175.86477053609266,-178.72109005218817,0,1.8866510391235352,2019-08-06 14:28:38:397
-0.06562092900276184,-0.22406715154647827,9.870835304260254,0.0016622183661939237,-0.0028231073202277645,0.0013433600914510408,175.94038777936842,-178.72097290699736,0,1.889997959136963,2019-08-06 14:28:38:401
-0.07280518114566803,-0.18575115501880646,9.923519134521484,0.002727743006587985,-0.0033558695754062136,0.0018761223466294901,176.01381841789066,-178.7256309906922,0,1.893423080444336,2019-08-06 14:28:38:404
-0.10393692553043365,-0.2025144100189209,9.796597480773926,-0.00020244967322245603,-0.005753299723709235,0.002408884601807939,176.082428241448,-178.7273967641864,0,1.8966526985168457,2019-08-06 14:28:38:407
-0.10154217481613159,-0.16898790001869202,9.894782066345215,-0.0010015931047540657,0.0006398475334878987,0.0016097412190402653,176.14890056920814,-178.73309252203148,0,1.8999903202056885,2019-08-06 14:28:38:411
-0.094357930123806,-0.1833564043045044,9.856466293334961,0.0021949807514095357,-0.004155012958173888,0.0005442166761740764,176.2157507929953,-178.73753761327595,0,1.9034106731414795,2019-08-06 14:28:38:414
-0.10393692553043365,-0.22646190226078033,9.830123901367188,-0.0036654045757020556,0.00010708522141819095,0.0042735527550068365,176.27930026980204,-178.73571332960933,0,1.9067103862762451,2019-08-06 14:28:38:417
