ACCELEROMETER X (m/s²),ACCELEROMETER Y (m/s²),ACCELEROMETER Z (m/s²),GYROSCOPE X (rad/s),GYROSCOPE Y (rad/s),GYROSCOPE Z (rad/s),Time since start in ms ,YYYY-MO-DD HH-MI-SS_SSS,Pitch (Deg),Roll (Deg),Heading (Deg),MagX,MagY,MagZ
-0.019725553691387177,-0.10661425441503525,9.726048469543457,-0.002970149702657017,0.011975696548084513,0.0031395680998037635,0.0,2019-08-06 15:40:33:617,3.597675953540579,-3.5874392931841244,0,-46.78095245361328,56.377044677734375,-20.69157600402832
-0.0005675556603819132,-0.10661425441503525,9.63265323638916,0.0015583297264341264,0.014639508864274061,0.0012749002066791914,0.010014533996582031,2019-08-06 15:40:33:627,7.117422905810277,-7.103884297410108,0,-46.78095245361328,56.377044677734375,-20.69157600402832
-0.017330802977085114,-0.08027201145887375,9.63265323638916,-0.003236530830246241,0.013041222098738713,-0.0027208169672335025,0.020002365112304688,2019-08-06 15:40:33:637,10.565699032678305,-10.550442451477236,0,-46.78095245361328,56.377044677734375,-20.69157600402832
-0.024515053257346153,-0.1161932572722435,9.663784980773926,-0.004302055340603139,0.010377409782549165,-0.0003233867214026093,0.03000497817993164,2019-08-06 15:40:33:647,13.94564967983667,-13.923240033227499,0,-46.78095245361328,56.377044677734375,-20.69157600402832
0.00901144277304411,-0.12577225267887115,9.637442588806152,-0.0013718629371216693,0.014639508864274061,0.00047575672638364575,0.040009498596191406,2019-08-06 15:40:33:657,10.059584388485085,-17.22905080438279,0,-46.78095245361328,56.377044677734375,-20.69157600402832
0.04014318808913231,-0.09943000972270966,9.637442588806152,0.0010255674062370958,0.013307602706179285,0.0028731869722145387,0.05000138282775879,2019-08-06 15:40:33:667,6.255699660207828,-20.473223122764548,0,-46.78095245361328,56.377044677734375,-20.69157600402832
-0.019725553691387177,-0.09464050829410553,9.630258560180664,0.0034229976195586987,0.01756970178790418,-0.0027208169672335025,0.0600130558013916,2019-08-06 15:40:33:677,9.718361624408358,-23.654421891479302,0,-46.78095245361328,56.377044677734375,-20.69157600402832
0.037748441100120544,-0.08506150543689728,9.694916725158691,0.0012919485988449018,0.009311885272192268,0.0007421378864821609,0.0699927806854248,2019-08-06 15:40:33:687,5.923238133511429,-26.772003605019922,0,-46.78095245361328,56.377044677734375,-20.69157600402832
0.00422194367274642,-0.11858800798654556,9.635047912597656,-3.9957173202045016e-05,0.015172271119452508,-0.005118247115536523,0.08001112937927246,2019-08-06 15:40:33:697,2.1967406538210326,-29.82243785812217,0,-46.78095245361328,56.377044677734375,-20.69157600402832
0.006616693455725908,-0.10900900512933731,9.635047912597656,-0.0008391006169246387,0.010910172037727614,0.0007421378864821609,0.08998775482177734,2019-08-06 15:40:33:707,-1.4525189501333573,-32.81255494171999,0,-46.78095245361328,56.377044677734375,-20.69157600402832
0.025774691253900528,-0.10661425441503525,9.64462661743164,-0.0005727194893354142,0.011975696548084513,-0.0003233867214026093,0.10000991821289062,2019-08-06 15:40:33:717,-5.027145427859155,-35.74331481074429,0,-46.78095245361328,56.377044677734375,-20.69157600402832
0.00422194367274642,-0.0898510068655014,9.618284225463867,-0.0008391006169246387,0.020233512023499125,0.006602523018538008,0.10998702049255371,2019-08-06 15:40:33:727,-8.53743459510968,-38.61727396537956,0,-46.78095245361328,56.377044677734375,-20.69157600402832
-0.017330802977085114,-0.09224575757980347,9.64462661743164,-0.0019046251923001184,0.015971413982071532,0.00020937558253977584,0.12000465393066406,2019-08-06 15:40:33:737,-4.777728781837837,-41.432897412864335,0,-46.78095245361328,56.377044677734375,-20.69157600402832
0.0018271940061822534,-0.08027201145887375,9.649415969848633,0.0031566164919694735,0.016504176237249982,0.0007421378864821609,0.13006138801574707,2019-08-06 15:40:33:747,-8.291276866318332,-44.196489480074376,0,-46.78095245361328,56.377044677734375,-20.69157600402832
0.044932689517736435,-0.1161932572722435,9.630258560180664,-0.004568436468192365,0.010910172037727614,0.0010085190140713856,0.13999032974243164,2019-08-06 15:40:33:757,-11.72618729128279,-46.89618744821815,0,-46.78095245361328,56.377044677734375,-20.69157600402832
-0.005357054993510246,-0.09943000972270966,9.675758361816406,0.0015583297264341264,0.01410674660909561,0.0026068058446253144,0.15001392364501953,2019-08-06 15:40:33:767,-7.900237597576215,-49.54736552260413,0,-46.78095245361328,56.377044677734375,-20.69157600402832
0.025774691253900528,-0.10421950370073318,9.704495429992676,-0.0016382440647108938,0.012508459843560263,0.0020740435894468653,0.1599876880645752,2019-08-06 15:40:33:777,-11.346194410610558,-52.14319489357103,0,-46.78095245361328,56.377044677734375,-20.69157600402832
0.011406192556023598,-0.09464050829410553,9.630258560180664,-0.002970149702657017,0.014905889471714633,0.0010085190140713856,0.17000722885131836,2019-08-06 15:40:33:787,-14.726299278588503,-54.68739898090695,0,-46.78095245361328,56.377044677734375,-20.69157600402832
-0.02930455282330513,-0.09943000972270966,9.639837265014648,-0.0005727194893354142,0.017836082395344753,0.001541281334268416,0.1799917221069336,2019-08-06 15:40:33:797,-10.845256206096584,-57.18151080242148,0,-46.78095245361328,56.377044677734375,-20.69157600402832
0.00901144277304411,-0.09703525900840759,9.670969009399414,-0.004834817595781589,0.011176553685465489,0.0023404247170360896,0.19000911712646484,2019-08-06 15:40:33:807,-14.233569850264127,-59.6236637737432,0,-46.78095245361328,56.377044677734375,-20.69157600402832
0.02098519168794155,-0.08745625615119934,9.649415969848633,0.0023574731092018,0.013840364961357736,0.006602523018538008,0.19999408721923828,2019-08-06 15:40:33:817,-17.554166028326797,-62.02212665062341,0,-46.78095245361328,56.377044677734375,-20.69157600402832
-0.007751804776489735,-0.09224575757980347,9.618284225463867,0.0015583297264341264,0.014373127216536186,0.0026068058446253144,0.21001410484313965,2019-08-06 15:40:33:827,-13.61209289868674,-64.37157111170009,0,-46.78095245361328,56.377044677734375,-20.69157600402832
0.00422194367274642,-0.08027201145887375,9.59194278717041,-0.004568436468192365,0.012508459843560263,0.00020937558253977584,0.2200016975402832,2019-08-06 15:40:33:837,-16.94636142895134,-66.6719881109301,0,-47.83052444458008,55.02759552001953,-20.841514587402344
0.006616693455725908,-0.07308775931596756,9.668574333190918,0.002890235364380249,0.011709315940643939,-5.7005565367755386e-05,0.2300117015838623,2019-08-06 15:40:33:847,-20.213231335004565,-68.93151066823859,0,-47.83052444458008,55.02759552001953,-20.841514587402344
-0.0005675556603819132,-0.12098275125026703,9.685338020324707,-0.005101198723370813,0.008512742409573244,0.00020937558253977584,0.23999309539794922,2019-08-06 15:40:33:857,-16.21380485806972,-71.13570820301096,0,-47.83052444458008,55.02759552001953,-20.841514587402344
0.00422194367274642,-0.11140375584363937,9.625469207763672,-0.0011054818095324445,0.010377409782549165,0.0023404247170360896,0.250014066696167,2019-08-06 15:40:33:867,-19.494865258259907,-73.29910994540018,0,-47.83052444458008,55.02759552001953,-20.841514587402344
0.02098519168794155,-0.10421950370073318,9.596732139587402,-3.9957173202045016e-05,0.014373127216536186,0.0031395680998037635,0.2599985599517822,2019-08-06 15:40:33:877,-22.710520158044456,-75.42066131154701,0,-47.83052444458008,55.02759552001953,-20.841514587402344
0.023379940539598465,-0.11140375584363937,9.668574333190918,0.003689378747147923,0.010377409782549165,0.004471473997824211,0.2700047492980957,2019-08-06 15:40:33:887,-25.85936928695947,-77.50111800399878,0,-47.83052444458008,55.02759552001953,-20.841514587402344
-0.012541304342448711,-0.09703525900840759,9.709284782409668,-0.0003063383292368989,0.011442934292906064,-0.003786341477590401,0.2800099849700928,2019-08-06 15:40:33:897,-21.75009061451533,-79.53947156745794,0,-47.83052444458008,55.02759552001953,-20.841514587402344
-0.007751804776489735,-0.09224575757980347,9.651811599731445,-0.0013718629371216693,0.00824636128198402,0.003405949227392988,0.29001522064208984,2019-08-06 15:40:33:907,-17.72064188339151,-81.53695984881031,0,-47.83052444458008,55.02759552001953,-20.841514587402344
0.03295893967151642,-0.10900900512933731,9.623074531555176,0.0004928051185493561,0.014373127216536186,0.00047575672638364575,0.3000028133392334,2019-08-06 15:40:33:917,-20.970364789032445,-83.49351678219293,0,-47.83052444458008,55.02759552001953,-20.841514587402344
0.00901144277304411,-0.11379850655794144,9.658995628356934,-0.0016382440647108938,0.012774840451000838,-5.7005565367755386e-05,0.3100094795227051,2019-08-06 15:40:33:927,-24.15706623900872,-85.40922585709889,0,-47.83052444458008,55.02759552001953,-20.841514587402344
-0.0005675556603819132,-0.12816700339317322,9.60391616821289,0.0002264239747054862,0.013840364961357736,0.0007421378864821609,0.3201146125793457,2019-08-06 15:40:33:937,-20.081845682199166,-87.28587815035696,0,-47.83052444458008,55.02759552001953,-20.841514587402344
0.023379940539598465,-0.022798016667366028,9.589548110961914,0.0002264239747054862,0.013041222098738713,0.001541281334268416,0.33000755310058594,2019-08-06 15:40:33:947,-23.284659190309434,-89.13756208930548,0,-47.83052444458008,55.02759552001953,-20.841514587402344
-0.012541304342448711,-0.0898510068655014,9.649415969848633,0.0012919485988449018,0.014639508864274061,0.0028731869722145387,0.3400263786315918,2019-08-06 15:40:33:957,-19.228690886231668,-90.94486770008594,0,-47.83052444458008,55.02759552001953,-20.841514587402344
0.03295893967151642,-0.11379850655794144,9.642231941223145,-0.002171006319889343,0.01410674660909561,-0.0005897678815011245,0.35054683685302734,2019-08-06 15:40:33:967,-22.448533301206147,-92.71116431112134,0,-47.83052444458008,55.02759552001953,-20.841514587402344
-0.0029623054433614016,-0.07787726074457169,9.64462661743164,-0.004568436468192365,0.01357398435391716,0.00047575672638364575,0.35997581481933594,2019-08-06 15:40:33:977,-18.407101151868495,-94.44526963187221,0,-47.83052444458008,55.02759552001953,-20.841514587402344
0.03535369038581848,-0.08506150543689728,9.615889549255371,-0.0005727194893354142,0.011442934292906064,0.0010085190140713856,0.37012720108032227,2019-08-06 15:40:33:987,-21.64126854579063,-96.14590136267846,0,-47.83052444458008,55.02759552001953,-20.841514587402344
-0.017330802977085114,-0.08745625615119934,9.658995628356934,-0.0037692930854246903,0.014373127216536186,0.003672330354982212,0.37999439239501953,2019-08-06 15:40:33:997,-17.61846255775882,-97.81051971447556,0,-47.83052444458008,55.02759552001953,-20.841514587402344
0.011406192556023598,-0.11858800798654556,9.637442588806152,-0.0016382440647108938,0.012242078195822388,-0.0005897678815011245,0.3900322914123535,2019-08-06 15:40:34:007,-20.871637044624688,-99.43928626837403,0,-47.83052444458008,55.02759552001953,-20.841514587402344
0.030564190819859505,-0.09464050829410553,9.658995628356934,-0.0008391006169246387,0.016237795629809405,0.001541281334268416,0.3999905586242676,2019-08-06 15:40:34:017,-24.059657718012765,-101.0388038357216,0,-47.83052444458008,55.02759552001953,-20.841514587402344
0.0018271940061822534,-0.0898510068655014,9.670969009399414,-0.0011054818095324445,0.014639508864274061,-0.000856149009090349,0.41001057624816895,2019-08-06 15:40:34:027,-27.186484577892013,-102.60675962746954,0,-47.83052444458008,55.02759552001953,-20.841514587402344
-0.010146554559469223,-0.10421950370073318,9.685338020324707,-3.9957173202045016e-05,0.013307602706179285,0.00047575672638364575,0.41999244689941406,2019-08-06 15:40:34:037,-23.051414024270983,-104.14227184071719,0,-47.83052444458008,55.02759552001953,-20.841514587402344
0.016195692121982574,-0.09943000972270966,9.685338020324707,-0.0003063383292368989,0.013840364961357736,-0.001122530201698155,0.43000054359436035,2019-08-06 15:40:34:047,-26.19624719923019,-105.64749066088015,0,-47.83052444458008,55.02759552001953,-20.841514587402344
0.04253793880343437,-0.10900900512933731,9.66139030456543,0.0012919485988449018,0.012774840451000838,-0.002987198094822727,0.4399874210357666,2019-08-06 15:40:34:057,-29.274440602054657,-107.12233656086343,0,-47.83052444458008,55.02759552001953,-20.841514587402344
0.037748441100120544,-0.09943000972270966,9.663784980773926,0.0007591862786478714,0.011975696548084513,-5.7005565367755386e-05,0.4499948024749756,2019-08-06 15:40:34:067,-32.29120496610474,-108.56852659679332,0,-47.83052444458008,55.02759552001953,-20.841514587402344
0.03295893967151642,-0.07308775931596756,9.654206275939941,-0.002171006319889343,0.015438651726893083,0.001541281334268416,0.4599883556365967,2019-08-06 15:40:34:077,-35.25013198125621,-109.98726277528326,0,-47.83052444458008,55.02759552001953,-20.841514587402344
0.037748441100120544,-0.1353512555360794,9.630258560180664,-0.0024373874474785677,0.010910172037727614,0.00047575672638364575,0.46999192237854004,2019-08-06 15:40:34:087,-38.14676586578039,-111.3700439000166,0,-47.230770111083984,56.82686233520508,-21.14139175415039
0.013800942339003086,-0.0898510068655014,9.589548110961914,-0.0024373874474785677,0.0074472173790676955,-0.0013889113292873795,0.4799954891204834,2019-08-06 15:40:34:097,-40.986364481847296,-112.73053739477436,0,-47.230770111083984,56.82686233520508,-21.14139175415039
0.0736696869134903,-0.11140375584363937,9.64462661743164,0.0026238542367910244,0.013307602706179285,0.00553699850818111,0.4900202751159668,2019-08-06 15:40:34:107,-43.76537510188406,-114.06416786437586,0,-47.230770111083984,56.82686233520508,-21.14139175415039
-0.0149360541254282,-0.11858800798654556,9.623074531555176,0.0020910919816125757,0.01064379143028704,-0.002987198094822727,0.499983549118042,2019-08-06 15:40:34:117,-39.29780070875514,-115.36993359655386,0,-47.230770111083984,56.82686233520508,-21.14139175415039
0.030564190819859505,-0.0898510068655014,9.647021293640137,0.0023574731092018,0.010111029175108591,0.0012749002066791914,0.509995698928833,2019-08-06 15:40:34:127,-42.11389838477542,-116.65318766194679,0,-47.230770111083984,56.82686233520508,-21.14139175415039
0.016195692121982574,-0.1425355076789856,9.59194278717041,0.0020910919816125757,0.011975696548084513,0.0018076624618576407,0.5199878215789795,2019-08-06 15:40:34:137,-44.876404616995345,-117.9042701676818,0,-47.230770111083984,56.82686233520508,-21.14139175415039
0.016195692121982574,-0.11858800798654556,9.668574333190918,0.0002264239747054862,0.014639508864274061,0.0020740435894468653,0.5300006866455078,2019-08-06 15:40:34:147,-47.58518765892598,-119.13225776576992,0,-47.230770111083984,56.82686233520508,-21.14139175415039
0.011406192556023598,-0.12577225267887115,9.608705520629883,0.0012919485988449018,0.016770557884987856,-0.0019216735844658289,0.5399925708770752,2019-08-06 15:40:34:157,-50.241532629077554,-120.33533895063543,0,-47.230770111083984,56.82686233520508,-21.14139175415039
0.011406192556023598,-0.07308775931596756,9.687732696533203,0.0023574731092018,0.0183688436102259,0.004737855125413436,0.5499939918518066,2019-08-06 15:40:34:167,-52.84566833942331,-121.52131104001072,0,-47.230770111083984,56.82686233520508,-21.14139175415039
0.018590440973639488,-0.08266676217317581,9.589548110961914,-0.0013718629371216693,0.010910172037727614,0.0028731869722145387,0.5599851608276367,2019-08-06 15:40:34:177,-55.392654123192095,-122.68023707214167,0,-47.230770111083984,56.82686233520508,-21.14139175415039
0.0018271940061822534,-0.10421950370073318,9.599126815795898,-0.0005727194893354142,0.012774840451000838,-5.7005565367755386e-05,0.5700047016143799,2019-08-06 15:40:34:187,-57.89176998791684,-123.81386919139823,0,-47.230770111083984,56.82686233520508,-21.14139175415039
-0.03409405052661896,-0.0898510068655014,9.642231941223145,0.0012919485988449018,0.009578266919930143,0.0023404247170360896,0.579986572265625,2019-08-06 15:40:34:197,-53.14335485756972,-124.92763803005687,0,-47.230770111083984,56.82686233520508,-21.14139175415039
-0.012541304342448711,-0.08506150543689728,9.615889549255371,0.0023574731092018,0.010910172037727614,0.003405949227392988,0.589993953704834,2019-08-06 15:40:34:207,-48.48811286246685,-126.0202735374483,0,-47.230770111083984,56.82686233520508,-21.14139175415039
-0.005357054993510246,-0.14014075696468353,9.601521492004395,-0.0013718629371216693,0.011709315940643939,0.001541281334268416,0.5999898910522461,2019-08-06 15:40:34:217,-43.92556204902673,-127.08237384815618,0,-47.230770111083984,56.82686233520508,-21.14139175415039
-0.0029623054433614016,-0.11140375584363937,9.670969009399414,0.004222141002326372,0.015971413982071532,-0.001655292456876604,0.6099965572357178,2019-08-06 15:40:34:227,-39.456375717766804,-128.12989900231034,0,-47.230770111083984,56.82686233520508,-21.14139175415039
-0.05804154649376869,-0.10182476043701172,9.67336368560791,0.0023574731092018,0.012508459843560263,0.003405949227392988,0.6199917793273926,2019-08-06 15:40:34:237,-35.081143903493924,-129.15656229812777,0,-47.230770111083984,56.82686233520508,-21.14139175415039
-0.017330802977085114,-0.09703525900840759,9.682943344116211,0.0020910919816125757,0.01570503337463096,-0.0019216735844658289,0.6299917697906494,2019-08-06 15:40:34:247,-30.7903903614852,-130.16312206667027,0,-47.230770111083984,56.82686233520508,-21.14139175415039
0.02098519168794155,-0.08745625615119934,9.675758361816406,-0.0016382440647108938,0.011975696548084513,0.001541281334268416,0.6399838924407959,2019-08-06 15:40:34:257,-33.778816288543915,-131.14858317542593,0,-47.230770111083984,56.82686233520508,-21.14139175415039
-0.005357054993510246,-0.06111401319503784,9.601521492004395,0.006885952538292944,0.014639508864274061,-0.0003233867214026093,0.6499958038330078,2019-08-06 15:40:34:267,-29.512109168261134,-132.12218887689312,0,-47.230770111083984,56.82686233520508,-21.14139175415039
0.0018271940061822534,-0.07787726074457169,9.649415969848633,0.0004928051185493561,0.015438651726893083,0.0007421378864821609,0.6599843502044678,2019-08-06 15:40:34:277,-32.53030884966175,-133.07077338499957,0,-47.230770111083984,56.82686233520508,-21.14139175415039
-0.012541304342448711,-0.08506150543689728,9.649415969848633,0.0002264239747054862,0.011442934292906064,0.00020937558253977584,0.6700012683868408,2019-08-06 15:40:34:287,-28.28762807567444,-133.99938405878993,0,-47.230770111083984,56.82686233520508,-21.14139175415039
-0.024515053257346153,-0.0898510068655014,9.675758361816406,-0.0005727194893354142,0.016770557884987856,-0.0021880547120550534,0.6799883842468262,2019-08-06 15:40:34:297,-24.134183377940605,-134.90843431765572,0,-47.230770111083984,56.82686233520508,-21.14139175415039
-0.017330802977085114,-0.14493025839328766,9.658995628356934,-3.9957173202045016e-05,0.012242078195822388,-0.0024544358396442778,0.6899962425231934,2019-08-06 15:40:34:307,-20.06043509698409,-135.79305035700474,0,-47.230770111083984,56.82686233520508,-21.14139175415039
0.013800942339003086,-0.07548251003026962,9.668574333190918,-0.0037692930854246903,0.017036938492428433,-5.7005565367755386e-05,0.6999835968017578,2019-08-06 15:40:34:317,-23.267144834557676,-136.66612959796853,0,-47.230770111083984,56.82686233520508,-21.14139175415039
0.013800942339003086,-0.1497197449207306,9.627863883972168,-0.0013718629371216693,0.012242078195822388,-0.0027208169672335025,0.7100005149841309,2019-08-06 15:40:34:327,-26.407044880124484,-137.51421708334928,0,-47.230770111083984,56.82686233520508,-21.14139175415039
0.013800942339003086,-0.08506150543689728,9.642231941223145,-0.0005727194893354142,0.01410674660909561,-0.0021880547120550534,0.7199833393096924,2019-08-06 15:40:34:337,-29.48517114709682,-138.35350297684604,0,-46.18119812011719,56.976802825927734,-19.492063522338867
0.023379940539598465,-0.08027201145887375,9.656600952148438,-0.004302055340603139,0.012774840451000838,-0.001655292456876604,0.7299933433532715,2019-08-06 15:40:34:347,-32.499873544007755,-139.17448951866484,0,-46.18119812011719,56.976802825927734,-19.492063522338867
-0.012541304342448711,-0.09464050829410553,9.637442588806152,0.0034229976195586987,0.016504176237249982,-0.002987198094822727,0.7399857044219971,2019-08-06 15:40:34:357,-28.26062725761539,-139.9816676414481,0,-46.18119812011719,56.976802825927734,-19.492063522338867
0.00901144277304411,-0.11379850655794144,9.670969009399414,0.0010255674062370958,0.014373127216536186,0.0007421378864821609,0.7499966621398926,2019-08-06 15:40:34:367,-31.30242627940452,-140.76912738248654,0,-46.18119812011719,56.976802825927734,-19.492063522338867
0.03535369038581848,-0.11140375584363937,9.687732696533203,-0.0011054818095324445,0.012508459843560263,-0.0013889113292873795,0.7599897384643555,2019-08-06 15:40:34:377,-34.27921457369534,-141.53994770114673,0,-46.18119812011719,56.976802825927734,-19.492063522338867
0.023379940539598465,-0.10661425441503525,9.656600952148438,-0.0019046251923001184,0.010910172037727614,0.003938711482571438,0.7699944972991943,2019-08-06 15:40:34:387,-37.1969848326261,-142.29542776121923,0,-46.18119812011719,56.976802825927734,-19.492063522338867
0.00901144277304411,-0.13774600625038147,9.66139030456543,-0.0019046251923001184,0.011709315940643939,-0.000856149009090349,0.7799859046936035,2019-08-06 15:40:34:397,-40.05854542502653,-143.0321140459737,0,-46.18119812011719,56.976802825927734,-19.492063522338867
0.030564190819859505,-0.0898510068655014,9.63265323638916,-3.9957173202045016e-05,0.012242078195822388,-0.0021880547120550534,0.7899947166442871,2019-08-06 15:40:34:407,-42.860618531985786,-143.7607608021726,0,-46.18119812011719,56.976802825927734,-19.492063522338867
0.03535369038581848,-0.1353512555360794,9.680547714233398,0.0034229976195586987,0.011975696548084513,-0.002987198094822727,0.7999899387359619,2019-08-06 15:40:34:417,-45.605942381625496,-144.47144578444824,0,-46.18119812011719,56.976802825927734,-19.492063522338867
0.00422194367274642,-0.09943000972270966,9.658995628356934,0.004488522389989922,0.013041222098738713,-0.0021880547120550534,0.8099963665008545,2019-08-06 15:40:34:427,-48.300649989989566,-145.17274311288952,0,-46.18119812011719,56.976802825927734,-19.492063522338867
-0.02212030254304409,-0.08266676217317581,9.651811599731445,0.0020910919816125757,0.012242078195822388,0.00047575672638364575,0.8199882507324219,2019-08-06 15:40:34:437,-43.74413155981181,-145.86064703519764,0,-46.18119812011719,56.976802825927734,-19.492063522338867
-0.0029623054433614016,-0.08745625615119934,9.627863883972168,0.003689378747147923,0.012774840451000838,0.004471473997824211,0.829993724822998,2019-08-06 15:40:34:447,-39.276778486548245,-146.53509798663404,0,-46.18119812011719,56.976802825927734,-19.492063522338867
-0.038883551955223083,-0.07548251003026962,9.666179656982422,-0.0019046251923001184,0.013041222098738713,-0.001655292456876604,0.8399856090545654,2019-08-06 15:40:34:457,-34.90316918236593,-147.19437925885433,0,-46.18119812011719,56.976802825927734,-19.492063522338867
-0.03648880124092102,-0.11379850655794144,9.611100196838379,-0.0005727194893354142,0.009311885272192268,0.001541281334268416,0.8500027656555176,2019-08-06 15:40:34:467,-30.614693858704253,-147.83660216689424,0,-46.18119812011719,56.976802825927734,-19.492063522338867
-0.04846255108714104,-0.08506150543689728,9.647021293640137,0.001824710854023351,0.011442934292906064,-0.003786341477590401,0.8599896430969238,2019-08-06 15:40:34:477,-26.414573288466975,-148.47078963407137,0,-46.18119812011719,56.976802825927734,-19.492063522338867
0.011406192556023598,-0.09224575757980347,9.64462661743164,-0.0037692930854246903,0.01410674660909561,-0.0019216735844658289,0.8699946403503418,2019-08-06 15:40:34:487,-29.492851486549334,-149.08829658785078,0,-46.18119812011719,56.976802825927734,-19.492063522338867
0.013800942339003086,-0.12577225267887115,9.615889549255371,-0.0008391006169246387,0.012242078195822388,0.008200809784073356,0.8799936771392822,2019-08-06 15:40:34:497,-32.50822306210003,-149.6910722532581,0,-46.18119812011719,56.976802825927734,-19.492063522338867
0.00422194367274642,-0.11858800798654556,9.596732139587402,0.0010255674062370958,0.013307602706179285,0.0018076624618576407,0.8899879455566406,2019-08-06 15:40:34:507,-35.4650223899375,-150.28366683260614,0,-46.18119812011719,56.976802825927734,-19.492063522338867
0.018590440973639488,-0.12577225267887115,9.615889549255371,-0.0024373874474785677,0.009844647527370716,-0.0003233867214026093,0.8999996185302734,2019-08-06 15:40:34:517,-38.35904075004346,-150.86163601430468,0,-46.18119812011719,56.976802825927734,-19.492063522338867
0.03295893967151642,-0.10900900512933731,9.678153038024902,-3.9957173202045016e-05,0.004517024975586225,0.003405949227392988,0.9099884033203125,2019-08-06 15:40:34:527,-41.19049099468866,-151.4314745120007,0,-46.18119812011719,56.976802825927734,-19.492063522338867
0.006616693455725908,-0.13056175410747528,9.642231941223145,-0.002171006319889343,0.008512742409573244,0.005004236253002661,0.919996976852417,2019-08-06 15:40:34:537,-43.97067881593275,-151.98610950547152,0,-46.18119812011719,56.976802825927734,-19.492063522338867
0.011406192556023598,-0.0898510068655014,9.67336368560791,-0.003236530830246241,0.01064379143028704,0.0010085190140713856,0.9299888610839844,2019-08-06 15:40:34:547,-46.69588567617884,-152.53392795547552,0,-46.18119812011719,56.976802825927734,-19.492063522338867
0.006616693455725908,-0.1353512555360794,9.647021293640137,0.0023574731092018,0.012242078195822388,-5.7005565367755386e-05,0.9399971961975098,2019-08-06 15:40:34:557,-49.36806164257837,-153.0684976554501,0,-46.18119812011719,56.976802825927734,-19.492063522338867
-0.026909802109003067,-0.09464050829410553,9.67336368560791,-0.0003063383292368989,0.009045504664751694,0.00047575672638364575,0.9499936103820801,2019-08-06 15:40:34:567,-44.78896537880907,-153.59574491119244,0,-46.18119812011719,56.976802825927734,-19.492063522338867
0.016195692121982574,-0.0898510068655014,9.658995628356934,0.0010255674062370958,0.013840364961357736,-0.0013889113292873795,0.9600222110748291,2019-08-06 15:40:34:577,-47.49905823516448,-154.11374815587567,0,-46.18119812011719,56.976802825927734,-19.492063522338867
-0.0005675556603819132,-0.1161932572722435,9.666179656982422,-0.0013718629371216693,0.013840364961357736,0.00020937558253977584,0.9700043201446533,2019-08-06 15:40:34:587,-42.95690179602821,-154.6169303447706,0,-48.28034210205078,56.67692184448242,-19.19218635559082
0.016195692121982574,-0.09224575757980347,9.630258560180664,0.0004928051185493561,0.012774840451000838,0.006069760763359559,0.9800081253051758,2019-08-06 15:40:34:597,-45.703012402803154,-155.1138924590066,0,-48.28034210205078,56.67692184448242,-19.19218635559082
-0.04127829894423485,-0.10661425441503525,9.651811599731445,0.0015583297264341264,0.009844647527370716,0.004737855125413436,0.9899966716766357,2019-08-06 15:40:34:607,-41.1993743340247,-155.59983129804115,0,-48.28034210205078,56.67692184448242,-19.19218635559082
0.02098519168794155,-0.10421950370073318,9.625469207763672,0.0002264239747054862,0.014373127216536186,-0.000856149009090349,1.000011920928955,2019-08-06 15:40:34:617,-43.98097135491212,-156.075555117923,0,-48.28034210205078,56.67692184448242,-19.19218635559082
0.018590440973639488,-0.10421950370073318,9.666179656982422,-0.0008391006169246387,0.019167987513142228,0.005004236253002661,1.00999116897583,2019-08-06 15:40:34:627,-46.70988851699726,-156.54121920391037,0,-48.28034210205078,56.67692184448242,-19.19218635559082
-0.007751804776489735,-0.11379850655794144,9.639837265014648,-0.0024373874474785677,0.01410674660909561,-0.0005897678815011245,1.0199995040893555,2019-08-06 15:40:34:637,-42.18453974731755,-156.9954981570996,0,-48.28034210205078,56.67692184448242,-19.19218635559082
0.00422194367274642,-0.12577225267887115,9.733232498168945,-0.004568436468192365,0.015438651726893083,0.003938711482571438,1.030000925064087,2019-08-06 15:40:34:647,-44.94902190712348,-157.43821602942845,0,-48.28034210205078,56.67692184448242,-19.19218635559082
0.037748441100120544,-0.11379850655794144,9.656600952148438,0.0012919485988449018,0.011709315940643939,0.0023404247170360896,1.0400028228759766,2019-08-06 15:40:34:657,-47.652138026982335,-157.87667382196767,0,-48.28034210205078,56.67692184448242,-19.19218635559082
0.030564190819859505,-0.10661425441503525,9.642231941223145,0.0007591862786478714,0.016237795629809405,0.00020937558253977584,1.0499939918518066,2019-08-06 15:40:34:667,-50.30457237483481,-158.3068963673809,0,-48.28034210205078,56.67692184448242,-19.19218635559082
-0.024515053257346153,-0.10661425441503525,9.656600952148438,-0.0024373874474785677,0.01357398435391716,-0.001122530201698155,1.0600030422210693,2019-08-06 15:40:34:677,-45.70901870979098,-158.72673757915408,0,-48.28034210205078,56.67692184448242,-19.19218635559082
0.011406192556023598,-0.09464050829410553,9.726048469543457,-0.002703768575067792,0.012242078195822388,0.0010085190140713856,1.070009708404541,2019-08-06 15:40:34:687,-48.400372959853,-159.1395335327807,0,-48.28034210205078,56.67692184448242,-19.19218635559082
-0.04367304965853691,-0.0898510068655014,9.627863883972168,-0.0008391006169246387,0.015172271119452508,0.004471473997824211,1.0800089836120605,2019-08-06 15:40:34:697,-43.84608205629622,-159.54557791854882,0,-48.28034210205078,56.67692184448242,-19.19218635559082
0.013800942339003086,-0.10661425441503525,9.668574333190918,-0.0019046251923001184,0.017303320140166306,-0.0005897678815011245,1.0900118350982666,2019-08-06 15:40:34:707,-46.577243295233124,-159.94096124378433,0,-48.28034210205078,56.67692184448242,-19.19218635559082
-0.024515053257346153,-0.08506150543689728,9.635047912597656,-3.9957173202045016e-05,0.010377409782549165,0.0023404247170360896,1.100008249282837,2019-08-06 15:40:34:717,-42.05443885958607,-160.3320033182699,0,-48.28034210205078,56.67692184448242,-19.19218635559082
0.05690643563866615,-0.09943000972270966,9.635047912597656,-0.006965867136644035,0.011176553685465489,-0.002987198094822727,1.110008716583252,2019-08-06 15:40:34:727,-44.81285807740639,-160.70962675330495,0,-48.28034210205078,56.67692184448242,-19.19218635559082
0.030564190819859505,-0.08745625615119934,9.599126815795898,-0.002171006319889343,0.015172271119452508,-0.005118247115536523,1.120006799697876,2019-08-06 15:40:34:737,-47.521469841332994,-161.08377545246037,0,-48.28034210205078,56.67692184448242,-19.19218635559082
0.016195692121982574,-0.07308775931596756,9.675758361816406,-0.002171006319889343,0.017303320140166306,-0.001122530201698155,1.130007028579712,2019-08-06 15:40:34:747,-50.17883837757875,-161.45222516241492,0,-48.28034210205078,56.67692184448242,-19.19218635559082
0.03535369038581848,-0.13295650482177734,9.639837265014648,0.0004928051185493561,0.009578266919930143,-0.001655292456876604,1.1400103569030762,2019-08-06 15:40:34:757,-52.776439006385715,-161.80765353497435,0,-48.28034210205078,56.67692184448242,-19.19218635559082
-0.010146554559469223,-0.10421950370073318,9.680547714233398,-0.004302055340603139,0.014373127216536186,-0.0021880547120550534,1.1500084400177002,2019-08-06 15:40:34:767,-48.130180248395135,-162.15674902913452,0,-48.28034210205078,56.67692184448242,-19.19218635559082
0.013800942339003086,-0.10900900512933731,9.601521492004395,0.005287665772757595,0.010910172037727614,0.00047575672638364575,1.160005807876587,2019-08-06 15:40:34:777,-50.772053973755725,-162.5035729135617,0,-48.28034210205078,56.67692184448242,-19.19218635559082
0.018590440973639488,-0.11379850655794144,9.635047912597656,0.0004928051185493561,0.007979980154394795,-0.0019216735844658289,1.170011043548584,2019-08-06 15:40:34:787,-53.358884992530115,-162.84024465401728,0,-48.28034210205078,56.67692184448242,-19.19218635559082
0.011406192556023598,-0.1161932572722435,9.66139030456543,-0.002703768575067792,0.013307602706179285,0.0010085190140713856,1.1800048351287842,2019-08-06 15:40:34:797,-55.89782199243524,-163.16814178678382,0,-48.28034210205078,56.67692184448242,-19.19218635559082
0.00422194367274642,-0.09703525900840759,9.627863883972168,0.0026238542367910244,0.017036938492428433,0.00047575672638364575,1.1900086402893066,2019-08-06 15:40:34:807,-58.38893291159155,-163.49470398386333,0,-48.28034210205078,56.67692184448242,-19.19218635559082
0.018590440973639488,-0.08745625615119934,9.663784980773926,-0.0013718629371216693,0.015172271119452508,-0.000856149009090349,1.2000198364257812,2019-08-06 15:40:34:817,-60.827478580241845,-163.81366860791726,0,-48.28034210205078,56.67692184448242,-19.19218635559082
-0.0029623054433614016,-0.12098275125026703,9.718864440917969,0.0031566164919694735,0.013307602706179285,0.0028731869722145387,1.210010051727295,2019-08-06 15:40:34:827,-56.01874317266252,-164.12490204249056,0,-48.28034210205078,56.67692184448242,-19.19218635559082
0.025774691253900528,-0.12098275125026703,9.630258560180664,-0.0011054818095324445,0.008512742409573244,0.0018076624618576407,1.2200071811676025,2019-08-06 15:40:34:837,-58.50007987742919,-164.42738833323344,0,-46.481075286865234,56.377044677734375,-19.492063522338867
-0.04367304965853691,-0.09224575757980347,9.656600952148438,-0.0005727194893354142,0.011709315940643939,-0.0013889113292873795,1.2300093173980713,2019-08-06 15:40:34:847,-53.74183694448481,-164.7275727631258,0,-46.481075286865234,56.377044677734375,-19.492063522338867
-0.0005675556603819132,-0.08027201145887375,9.666179656982422,-0.0011054818095324445,0.011709315940643939,-0.0032535792224119516,1.2400085926055908,2019-08-06 15:40:34:857,-49.073641777163886,-165.02288468122072,0,-46.481075286865234,56.377044677734375,-19.492063522338867
0.006616693455725908,-0.07308775931596756,9.62067985534668,-0.0024373874474785677,0.0074472173790676955,-0.0013889113292873795,1.2500054836273193,2019-08-06 15:40:34:867,-51.69556113222784,-165.31235353506176,0,-46.481075286865234,56.377044677734375,-19.492063522338867
0.018590440973639488,-0.08506150543689728,9.668574333190918,-3.9957173202045016e-05,0.01357398435391716,0.0010085190140713856,1.2600064277648926,2019-08-06 15:40:34:877,-54.26706907396115,-165.5960028305899,0,-46.481075286865234,56.377044677734375,-19.492063522338867
0.0018271940061822534,-0.09943000972270966,9.675758361816406,0.003955759874737148,0.013307602706179285,-0.001655292456876604,1.2700085639953613,2019-08-06 15:40:34:887,-56.78898509201132,-165.87452916111747,0,-46.481075286865234,56.377044677734375,-19.492063522338867
0.011406192556023598,-0.07787726074457169,9.6901273727417,-0.0005727194893354142,0.012774840451000838,-5.7005565367755386e-05,1.2800121307373047,2019-08-06 15:40:34:897,-59.259032154192774,-166.14750762780812,0,-46.481075286865234,56.377044677734375,-19.492063522338867
0.02816944010555744,-0.05871926248073578,9.639837265014648,0.0023574731092018,0.010111029175108591,-0.0003233867214026093,1.2900092601776123,2019-08-06 15:40:34:907,-61.67617863649217,-166.41890076943466,0,-46.481075286865234,56.377044677734375,-19.492063522338867
0.011406192556023598,-0.13295650482177734,9.670969009399414,-0.0011054818095324445,0.017036938492428433,0.001541281334268416,1.2999863624572754,2019-08-06 15:40:34:917,-64.05084785503928,-166.6741503910228,0,-46.481075286865234,56.377044677734375,-19.492063522338867
-0.0029623054433614016,-0.1353512555360794,9.637442588806152,-0.0016382440647108938,0.011709315940643939,-0.001655292456876604,1.3100087642669678,2019-08-06 15:40:34:927,-59.1767726169494,-166.92365291203734,0,-46.481075286865234,56.377044677734375,-19.492063522338867
-0.012541304342448711,-0.09464050829410553,9.639837265014648,0.0010255674062370958,0.013041222098738713,-0.001122530201698155,1.3200056552886963,2019-08-06 15:40:34:937,-54.40204833709224,-167.17450569746492,0,-46.481075286865234,56.377044677734375,-19.492063522338867
0.0018271940061822534,-0.10182476043701172,9.668574333190918,-0.003236530830246241,0.010377409782549165,0.0007421378864821609,1.3300085067749023,2019-08-06 15:40:34:947,-56.91961937504953,-167.41712997363112,0,-46.481075286865234,56.377044677734375,-19.492063522338867
0.03535369038581848,-0.11858800798654556,9.67336368560791,-0.0013718629371216693,0.016504176237249982,0.0010085190140713856,1.3400087356567383,2019-08-06 15:40:34:957,-59.38630626000748,-167.65396971616903,0,-47.53064727783203,56.52698516845703,-19.64200210571289
-0.0005675556603819132,-0.1161932572722435,9.637442588806152,0.0023574731092018,0.013041222098738713,0.0012749002066791914,1.350008487701416,2019-08-06 15:40:34:967,-54.60597006546285,-167.88839901268966,0,-47.53064727783203,56.52698516845703,-19.64200210571289
-0.010146554559469223,-0.10900900512933731,9.714075088500977,-3.9957173202045016e-05,0.01810246300278533,-0.001122530201698155,1.360008955001831,2019-08-06 15:40:34:977,-49.92521257984503,-168.11774994715833,0,-47.53064727783203,56.52698516845703,-19.64200210571289
0.011406192556023598,-0.07787726074457169,9.608705520629883,-0.005900342106138487,0.013307602706179285,-0.0013889113292873795,1.370009183883667,2019-08-06 15:40:34:987,-52.532820420314096,-168.342794550554,0,-47.53064727783203,56.52698516845703,-19.64200210571289
0.00901144277304411,-0.0898510068655014,9.551231384277344,0.003955759874737148,0.012242078195822388,-0.004585484860358075,1.3800082206726074,2019-08-06 15:40:34:997,-55.08795610629591,-168.56737998068206,0,-47.53064727783203,56.52698516845703,-19.64200210571289
-0.0029623054433614016,-0.10182476043701172,9.623074531555176,-0.0011054818095324445,0.010111029175108591,-0.001655292456876604,1.3899950981140137,2019-08-06 15:40:35:007,-50.39221961446719,-168.7832876304404,0,-47.53064727783203,56.52698516845703,-19.64200210571289
-0.03169930353760719,-0.12337750196456909,9.675758361816406,-0.004035674213013915,0.017836082395344753,-0.001655292456876604,1.400007724761963,2019-08-06 15:40:35:017,-45.79815698963604,-168.9907419873185,0,-47.53064727783203,56.52698516845703,-19.64200210571289
-0.024515053257346153,-0.09703525900840759,9.575179100036621,-3.9957173202045016e-05,0.011975696548084513,0.0031395680998037635,1.410003900527954,2019-08-06 15:40:35:027,-41.29184946364525,-169.199292362023,0,-47.53064727783203,56.52698516845703,-19.64200210571289
0.018590440973639488,-0.11379850655794144,9.663784980773926,0.0012919485988449018,0.01410674660909561,0.001541281334268416,1.4200115203857422,2019-08-06 15:40:35:037,-44.07173500809617,-169.40253908050042,0,-47.53064727783203,56.52698516845703,-19.64200210571289
-0.012541304342448711,-0.07787726074457169,9.670969009399414,-0.0019046251923001184,0.01410674660909561,-5.7005565367755386e-05,1.4300000667572021,2019-08-06 15:40:35:047,-39.599698176157425,-169.6041925822552,0,-47.53064727783203,56.52698516845703,-19.64200210571289
-0.024515053257346153,-0.08506150543689728,9.668574333190918,-0.0016382440647108938,0.012508459843560263,0.00020937558253977584,1.4400014877319336,2019-08-06 15:40:35:057,-35.21763420198436,-169.80110753233157,0,-47.53064727783203,56.52698516845703,-19.64200210571289
0.0018271940061822534,-0.12337750196456909,9.704495429992676,-0.004302055340603139,0.013041222098738713,0.003405949227392988,1.4500062465667725,2019-08-06 15:40:35:067,-38.120391874408014,-169.9881008918295,0,-47.53064727783203,56.52698516845703,-19.64200210571289
-0.010146554559469223,-0.10661425441503525,9.678153038024902,0.005820428027936045,0.011176553685465489,0.001541281334268416,1.4599909782409668,2019-08-06 15:40:35:077,-33.76545144975299,-170.17897918400396,0,-47.53064727783203,56.52698516845703,-19.64200210571289
0.0018271940061822534,-0.12816700339317322,9.670969009399414,-0.0008391006169246387,0.011709315940643939,0.001541281334268416,1.4700133800506592,2019-08-06 15:40:35:087,-36.696515409705924,-170.35974173900732,0,-46.93089294433594,57.126739501953125,-20.241758346557617
-0.026909802109003067,-0.08745625615119934,9.613494873046875,-0.0011054818095324445,0.012774840451000838,-0.001122530201698155,1.4799938201904297,2019-08-06 15:40:35:097,-32.37295173029358,-170.5415030119127,0,-46.93089294433594,57.126739501953125,-20.241758346557617
-0.019725553691387177,-0.08266676217317581,9.70210075378418,-0.003236530830246241,0.01064379143028704,0.0023404247170360896,1.4900047779083252,2019-08-06 15:40:35:107,-28.13380550183651,-170.7190901136457,0,-46.93089294433594,57.126739501953125,-20.241758346557617
-0.02212030254304409,-0.06829825788736343,9.67336368560791,0.0010255674062370958,0.011709315940643939,-0.001655292456876604,1.5000097751617432,2019-08-06 15:40:35:117,-23.980327829231253,-170.8971939136153,0,-46.93089294433594,57.126739501953125,-20.241758346557617
0.011406192556023598,-0.0898510068655014,9.654206275939941,-0.0019046251923001184,0.011975696548084513,-0.0021880547120550534,1.5099992752075195,2019-08-06 15:40:35:127,-27.106084680729104,-171.0675170673278,0,-46.93089294433594,57.126739501953125,-20.241758346557617
-0.019725553691387177,-0.08745625615119934,9.654206275939941,0.003955759874737148,0.01064379143028704,0.0028731869722145387,1.5200142860412598,2019-08-06 15:40:35:137,-22.972289773608942,-171.23801079077447,0,-46.93089294433594,57.126739501953125,-20.241758346557617
0.0018271940061822534,-0.10421950370073318,9.668574333190918,0.0007591862786478714,0.015438651726893083,0.0020740435894468653,1.5299944877624512,2019-08-06 15:40:35:147,-26.12127903907137,-171.40132443723314,0,-46.93089294433594,57.126739501953125,-20.241758346557617
0.0018271940061822534,-0.0898510068655014,9.699706077575684,0.0010255674062370958,0.010910172037727614,0.0020740435894468653,1.5400118827819824,2019-08-06 15:40:35:157,-29.204774298063644,-171.56326018173618,0,-46.93089294433594,57.126739501953125,-20.241758346557617
0.018590440973639488,-0.08745625615119934,9.70210075378418,-0.0016382440647108938,0.013307602706179285,0.004737855125413436,1.5499908924102783,2019-08-06 15:40:35:167,-32.22593961328883,-171.72074785424067,0,-46.93089294433594,57.126739501953125,-20.241758346557617
0.025774691253900528,-0.0898510068655014,9.67336368560791,0.0026238542367910244,0.010910172037727614,0.005004236253002661,1.5600111484527588,2019-08-06 15:40:35:177,-35.18450599023319,-171.87716564492865,0,-46.93089294433594,57.126739501953125,-20.241758346557617
0.030564190819859505,-0.10182476043701172,9.63265323638916,-0.0005727194893354142,0.01410674660909561,0.0028731869722145387,1.570000410079956,2019-08-06 15:40:35:187,-38.085092331631024,-172.0271883135278,0,-46.93089294433594,57.126739501953125,-20.241758346557617
-0.0029623054433614016,-0.11379850655794144,9.649415969848633,-0.0016382440647108938,0.015438651726893083,-0.0021880547120550534,1.580000877380371,2019-08-06 15:40:35:197,-33.732411460352395,-172.1722111267572,0,-46.93089294433594,57.126739501953125,-20.241758346557617
-0.0005675556603819132,-0.07787726074457169,9.70210075378418,0.0020910919816125757,0.012774840451000838,-0.0024544358396442778,1.5900044441223145,2019-08-06 15:40:35:207,-29.46500587914522,-172.3207435788079,0,-47.08082962036133,56.67692184448242,-19.492063522338867
0.02816944010555744,-0.0706930086016655,9.649415969848633,-0.006699486009054812,0.012774840451000838,0.0007421378864821609,1.5999901294708252,2019-08-06 15:40:35:217,-32.47952329910106,-172.46217734761046,0,-47.08082962036133,56.67692184448242,-19.492063522338867
0.04014318808913231,-0.12577225267887115,9.623074531555176,-0.0005727194893354142,0.011709315940643939,-5.7005565367755386e-05,1.6100170612335205,2019-08-06 15:40:35:227,-35.43174508249875,-172.5976352478606,0,-47.08082962036133,56.67692184448242,-19.492063522338867
0.04014318808913231,-0.12577225267887115,9.697311401367188,0.0007591862786478714,0.015172271119452508,-0.001122530201698155,1.6199889183044434,2019-08-06 15:40:35:237,-38.326861786428864,-172.73124615505904,0,-47.08082962036133,56.67692184448242,-19.492063522338867
0.00422194367274642,-0.11379850655794144,9.630258560180664,-0.003502911957835466,0.011709315940643939,-0.003786341477590401,1.629995346069336,2019-08-06 15:40:35:247,-41.16640116784927,-172.86111270186663,0,-47.08082962036133,56.67692184448242,-19.492063522338867
-0.0005675556603819132,-0.07308775931596756,9.651811599731445,0.0012919485988449018,0.012774840451000838,0.003938711482571438,1.6400113105773926,2019-08-06 15:40:35:257,-36.75032503474824,-172.99593982270298,0,-47.08082962036133,56.67692184448242,-19.492063522338867
-0.0149360541254282,-0.11858800798654556,9.694916725158691,-0.0005727194893354142,0.013307602706179285,0.0020740435894468653,1.649986743927002,2019-08-06 15:40:35:267,-32.42453778206366,-173.12168411978357,0,-47.08082962036133,56.67692184448242,-19.492063522338867
0.03295893967151642,-0.08266676217317581,9.675758361816406,-3.9957173202045016e-05,0.012774840451000838,-0.001655292456876604,1.6600141525268555,2019-08-06 15:40:35:277,-35.379336377272764,-173.2494378208942,0,-47.08082962036133,56.67692184448242,-19.492063522338867
0.030564190819859505,-0.11140375584363937,9.64462661743164,-0.0011054818095324445,0.011442934292906064,-0.000856149009090349,1.6699903011322021,2019-08-06 15:40:35:287,-38.27452807858295,-173.37059409368004,0,-47.08082962036133,56.67692184448242,-19.492063522338867
-0.0005675556603819132,-0.11858800798654556,9.714075088500977,0.0012919485988449018,0.012774840451000838,0.0010085190140713856,1.6800081729888916,2019-08-06 15:40:35:297,-33.91629034351797,-173.4899204606066,0,-47.08082962036133,56.67692184448242,-19.492063522338867
0.006616693455725908,-0.11140375584363937,9.666179656982422,-0.0013718629371216693,0.015438651726893083,0.00020937558253977584,1.6899917125701904,2019-08-06 15:40:35:307,-36.84583464736982,-173.6061468049537,0,-47.08082962036133,56.67692184448242,-19.492063522338867
0.00901144277304411,-0.09464050829410553,9.647021293640137,-0.0037692930854246903,0.012774840451000838,-0.000856149009090349,1.7000117301940918,2019-08-06 15:40:35:317,-39.71503495023608,-173.72066172436382,0,-47.08082962036133,56.67692184448242,-19.492063522338867
0.0018271940061822534,-0.07548251003026962,9.608705520629883,0.0012919485988449018,0.013307602706179285,-0.003786341477590401,1.7100043296813965,2019-08-06 15:40:35:327,-42.527983014618734,-173.83797166777396,0,-47.08082962036133,56.67692184448242,-19.492063522338867
0.013800942339003086,-0.0898510068655014,9.572784423828125,0.001824710854023351,0.013041222098738713,-0.0019216735844658289,1.7200031280517578,2019-08-06 15:40:35:337,-45.2830930543923,-173.95148133405002,0,-47.68058776855469,55.77729034423828,-20.69157600402832
0.044932689517736435,-0.11858800798654556,9.623074531555176,0.0007591862786478714,0.011709315940643939,-5.7005565367755386e-05,1.7300031185150146,2019-08-06 15:40:35:347,-47.97865540680096,-174.058757245354,0,-47.68058776855469,55.77729034423828,-20.69157600402832
0.02098519168794155,-0.09464050829410553,9.654206275939941,-0.005633960978549262,0.00824636128198402,0.004471473997824211,1.7400093078613281,2019-08-06 15:40:35:357,-50.62122463094883,-174.16318359186113,0,-47.68058776855469,55.77729034423828,-20.69157600402832
0.00422194367274642,-0.10661425441503525,9.666179656982422,-0.0019046251923001184,0.011975696548084513,-5.7005565367755386e-05,1.7499947547912598,2019-08-06 15:40:35:367,-53.215014182650904,-174.2662135349492,0,-47.68058776855469,55.77729034423828,-20.69157600402832
-0.007751804776489735,-0.12337750196456909,9.639837265014648,-0.002171006319889343,0.016770557884987856,-0.00431910373276885,1.7600047588348389,2019-08-06 15:40:35:377,-48.561061444341895,-174.36500358463363,0,-47.68058776855469,55.77729034423828,-20.69157600402832
-0.0005675556603819132,-0.12577225267887115,9.699706077575684,0.0031566164919694735,0.017303320140166306,-0.0005897678815011245,1.7699987888336182,2019-08-06 15:40:35:387,-43.999617256415576,-174.46461708904528,0,-47.68058776855469,55.77729034423828,-20.69157600402832
-0.012541304342448711,-0.09464050829410553,9.637442588806152,0.004222141002326372,0.010377409782549165,-0.0027208169672335025,1.7800123691558838,2019-08-06 15:40:35:397,-39.52695091692084,-174.5664460660749,0,-47.68058776855469,55.77729034423828,-20.69157600402832
-0.012541304342448711,-0.10421950370073318,9.60391616821289,-3.9957173202045016e-05,0.011176553685465489,0.0023404247170360896,1.7899887561798096,2019-08-06 15:40:35:407,-35.14416909631423,-174.66266003578946,0,-47.68058776855469,55.77729034423828,-20.69157600402832
-0.0005675556603819132,-0.11858800798654556,9.692522048950195,-3.9957173202045016e-05,0.012242078195822388,0.004471473997824211,1.800015926361084,2019-08-06 15:40:35:417,-30.848245401448313,-174.75536476041157,0,-47.68058776855469,55.77729034423828,-20.69157600402832
0.030564190819859505,-0.08745625615119934,9.623074531555176,0.0004928051185493561,0.012774840451000838,-0.0005897678815011245,1.8099796772003174,2019-08-06 15:40:35:427,-33.83478797601712,-174.85011916842032,0,-47.68058776855469,55.77729034423828,-20.69157600402832
-0.026909802109003067,-0.1497197449207306,9.608705520629883,0.0012919485988449018,0.01064379143028704,0.003405949227392988,1.8199880123138428,2019-08-06 15:40:35:437,-29.567282874794927,-174.93598897540332,0,-47.68058776855469,55.77729034423828,-20.69157600402832
0.023379940539598465,-0.07787726074457169,9.658995628356934,-0.0003063383292368989,0.011709315940643939,0.0012749002066791914,1.8300180435180664,2019-08-06 15:40:35:447,-32.57975800327882,-175.02785773569835,0,-47.68058776855469,55.77729034423828,-20.69157600402832
-0.005357054993510246,-0.10900900512933731,9.656600952148438,0.0015583297264341264,0.013840364961357736,-0.001122530201698155,1.8400018215179443,2019-08-06 15:40:35:457,-28.3365572858359,-175.11523898765634,0,-48.130401611328125,56.52698516845703,-19.342124938964844
0.00422194367274642,-0.11858800798654556,9.656600952148438,0.001824710854023351,0.012774840451000838,-5.7005565367755386e-05,1.8500123023986816,2019-08-06 15:40:35:467,-31.376505710153875,-175.19988813112337,0,-48.130401611328125,56.52698516845703,-19.342124938964844
-0.005357054993510246,-0.10182476043701172,9.66139030456543,-0.002970149702657017,0.010377409782549165,0.0031395680998037635,1.860034465789795,2019-08-06 15:40:35:477,-27.155450799888943,-175.28214218047978,0,-48.130401611328125,56.52698516845703,-19.342124938964844
-0.0029623054433614016,-0.0898510068655014,9.630258560180664,-3.9957173202045016e-05,0.010377409782549165,0.0018076624618576407,1.8702077865600586,2019-08-06 15:40:35:487,-23.01862216580334,-175.36578534723034,0,-48.130401611328125,56.52698516845703,-19.342124938964844
0.011406192556023598,-0.08027201145887375,9.666179656982422,-0.0011054818095324445,0.01357398435391716,0.001541281334268416,1.8800594806671143,2019-08-06 15:40:35:497,-26.16440626914454,-175.44834217439362,0,-48.130401611328125,56.52698516845703,-19.342124938964844
-0.0005675556603819132,-0.13056175410747528,9.668574333190918,-0.0005727194893354142,0.012242078195822388,0.003938711482571438,1.8900024890899658,2019-08-06 15:40:35:507,-22.048020144982697,-175.52358239565638,0,-48.130401611328125,56.52698516845703,-19.342124938964844
-0.024515053257346153,-0.13774600625038147,9.625469207763672,-0.004834817595781589,0.012508459843560263,-0.004851865987947299,1.9000489711761475,2019-08-06 15:40:35:517,-18.01703439152483,-175.59398579299514,0,-48.130401611328125,56.52698516845703,-19.342124938964844
-0.005357054993510246,-0.12098275125026703,9.656600952148438,-0.0016382440647108938,0.01570503337463096,-0.004052722605179625,1.9099979400634766,2019-08-06 15:40:35:527,-14.066102760725292,-175.6668350440293,0,-48.130401611328125,56.52698516845703,-19.342124938964844
-0.0005675556603819132,-0.08027201145887375,9.608705520629883,0.003689378747147923,0.010910172037727614,0.005004236253002661,1.9200360774993896,2019-08-06 15:40:35:537,-10.190997801022812,-175.74600496302065,0,-48.130401611328125,56.52698516845703,-19.342124938964844
0.016195692121982574,-0.11858800798654556,9.630258560180664,0.0010255674062370958,0.011975696548084513,0.004205092610160662,1.9300017356872559,2019-08-06 15:40:35:547,-13.591951947428171,-175.8175485300011,0,-48.130401611328125,56.52698516845703,-19.342124938964844
0.006616693455725908,-0.0898510068655014,9.589548110961914,0.005021284645168371,0.016770557884987856,0.003672330354982212,1.9399855136871338,2019-08-06 15:40:35:557,-16.928723607918172,-175.89327588082736,0,-48.130401611328125,56.52698516845703,-19.342124938964844
-0.05564679950475693,-0.07548251003026962,9.709284782409668,-0.0019046251923001184,0.011176553685465489,-0.0003233867214026093,1.9500055313110352,2019-08-06 15:40:35:567,-13.003004828982592,-175.96543031104224,0,-48.130401611328125,56.52698516845703,-19.342124938964844
-0.0029623054433614016,-0.10182476043701172,9.623074531555176,-0.004302055340603139,0.013840364961357736,0.0031395680998037635,1.9600191116333008,2019-08-06 15:40:35:577,-9.151079383516185,-176.03157798749325,0,-48.130401611328125,56.52698516845703,-19.342124938964844
-0.0149360541254282,-0.16648299992084503,9.608705520629883,-0.0019046251923001184,0.011975696548084513,0.0010085190140713856,1.970062255859375,2019-08-06 15:40:35:587,-5.376592388215489,-176.09001991588113,0,-48.58021926879883,56.377044677734375,-19.791940689086914
0.016195692121982574,-0.0898510068655014,9.63265323638916,0.0010255674062370958,0.010111029175108591,0.004205092610160662,1.9799983501434326,2019-08-06 15:40:35:597,-8.872774924985507,-176.15810318501298,0,-48.58021926879883,56.377044677734375,-19.791940689086914
-0.017330802977085114,-0.07787726074457169,9.625469207763672,-0.003236530830246241,0.014373127216536186,0.0023404247170360896,1.9899916648864746,2019-08-06 15:40:35:607,-5.105447758661056,-176.2238539148093,0,-48.58021926879883,56.377044677734375,-19.791940689086914
0.016195692121982574,-0.12337750196456909,9.70210075378418,-0.004568436468192365,0.015172271119452508,0.0012749002066791914,2.0000159740448,2019-08-06 15:40:35:617,-8.609965850352166,-176.28223409261773,0,-48.58021926879883,56.377044677734375,-19.791940689086914
-0.010146554559469223,-0.09703525900840759,9.663784980773926,-0.003502911957835466,0.013840364961357736,-0.0019216735844658289,2.0099852085113525,2019-08-06 15:40:35:627,-4.846717131640368,-176.34312268833386,0,-48.58021926879883,56.377044677734375,-19.791940689086914
0.00422194367274642,-0.0706930086016655,9.680547714233398,-0.002970149702657017,0.013840364961357736,0.003672330354982212,2.0200157165527344,2019-08-06 15:40:35:637,-8.357078079797464,-176.4062194160126,0,-48.58021926879883,56.377044677734375,-19.791940689086914
-0.017330802977085114,-0.14493025839328766,9.66139030456543,-0.0019046251923001184,0.014373127216536186,-0.0027208169672335025,2.0300042629241943,2019-08-06 15:40:35:647,-4.600053330960973,-176.45983824815227,0,-48.58021926879883,56.377044677734375,-19.791940689086914
0.00901144277304411,-0.05871926248073578,9.666179656982422,0.0020910919816125757,0.01570503337463096,0.001541281334268416,2.04002046585083,2019-08-06 15:40:35:657,-8.11581661062527,-176.52485650880416,0,-48.58021926879883,56.377044677734375,-19.791940689086914
0.05690643563866615,-0.08266676217317581,9.658995628356934,-3.9957173202045016e-05,0.011709315940643939,-0.001122530201698155,2.049988031387329,2019-08-06 15:40:35:667,-11.553302579976537,-176.5845299069345,0,-48.58021926879883,56.377044677734375,-19.791940689086914
0.02816944010555744,-0.0706930086016655,9.67336368560791,-0.0024373874474785677,0.01570503337463096,0.003938711482571438,2.0600099563598633,2019-08-06 15:40:35:677,-14.927737249023338,-176.6430935084645,0,-48.58021926879883,56.377044677734375,-19.791940689086914
0.011406192556023598,-0.10421950370073318,9.606310844421387,0.004754903517579147,0.016237795629809405,-0.001122530201698155,2.0700199604034424,2019-08-06 15:40:35:687,-18.236948506517557,-176.70047255456277,0,-48.58021926879883,56.377044677734375,-19.791940689086914
-0.0005675556603819132,-0.10182476043701172,9.647021293640137,-0.003236530830246241,0.013840364961357736,0.0023404247170360896,2.080018997192383,2019-08-06 15:40:35:697,-14.280047550690583,-176.75255122741146,0,-48.58021926879883,56.377044677734375,-19.791940689086914
0.030564190819859505,-0.12098275125026703,9.594337463378906,-0.002171006319889343,0.013041222098738713,-0.0027208169672335025,2.090047597885132,2019-08-06 15:40:35:707,-17.598139698945012,-176.80182868976294,0,-48.130401611328125,56.52698516845703,-20.241758346557617
0.023379940539598465,-0.09943000972270966,9.642231941223145,0.0002264239747054862,0.01064379143028704,0.0007421378864821609,2.1000213623046875,2019-08-06 15:40:35:717,-20.849359153653047,-176.8541027379532,0,-48.130401611328125,56.52698516845703,-20.241758346557617
-0.005357054993510246,-0.09943000972270966,9.668574333190918,0.0007591862786478714,0.010111029175108591,0.0020740435894468653,2.110020637512207,2019-08-06 15:40:35:727,-16.838683804179855,-176.90566294449687,0,-48.130401611328125,56.52698516845703,-20.241758346557617
0.03295893967151642,-0.13056175410747528,9.66139030456543,-0.003502911957835466,0.012242078195822388,0.0012749002066791914,2.1200249195098877,2019-08-06 15:40:35:737,-20.104877811838186,-176.95009727214264,0,-48.130401611328125,56.52698516845703,-20.241758346557617
-0.005357054993510246,-0.13295650482177734,9.658995628356934,0.0004928051185493561,0.013041222098738713,-0.0003233867214026093,2.130023956298828,2019-08-06 15:40:35:747,-16.11073772434353,-176.99559942646405,0,-48.130401611328125,56.52698516845703,-20.241758346557617
0.00901144277304411,-0.09703525900840759,9.654206275939941,0.0031566164919694735,0.013840364961357736,-0.0005897678815011245,2.1400046348571777,2019-08-06 15:40:35:757,-19.39520967875982,-177.04593914070972,0,-48.130401611328125,56.52698516845703,-20.241758346557617
0.02098519168794155,-0.13774600625038147,9.656600952148438,0.005820428027936045,0.016504176237249982,0.00020937558253977584,2.1500167846679688,2019-08-06 15:40:35:767,-22.614093580469262,-177.09194775524165,0,-48.130401611328125,56.52698516845703,-20.241758346557617
-0.04127829894423485,-0.1353512555360794,9.630258560180664,0.0004928051185493561,0.013041222098738713,-0.0005897678815011245,2.1600210666656494,2019-08-06 15:40:35:777,-18.57404919526309,-177.13428108614187,0,-48.130401611328125,56.52698516845703,-20.241758346557617
0.016195692121982574,-0.09943000972270966,9.642231941223145,0.0007591862786478714,0.011975696548084513,0.0007421378864821609,2.170024871826172,2019-08-06 15:40:35:787,-21.807370358147143,-177.18020572747108,0,-48.130401611328125,56.52698516845703,-20.241758346557617
-0.024515053257346153,-0.06829825788736343,9.642231941223145,-0.0013718629371216693,0.011709315940643939,0.00047575672638364575,2.1800220012664795,2019-08-06 15:40:35:797,-17.780709274533653,-177.22771487369255,0,-48.130401611328125,56.52698516845703,-20.241758346557617
0.03295893967151642,-0.11140375584363937,9.656600952148438,-0.0019046251923001184,0.011975696548084513,-0.001655292456876604,2.189986228942871,2019-08-06 15:40:35:807,-21.027884263125355,-177.2688756436791,0,-48.130401611328125,56.52698516845703,-20.241758346557617
0.018590440973639488,-0.09224575757980347,9.608705520629883,-0.0024373874474785677,0.014373127216536186,-5.7005565367755386e-05,2.200007677078247,2019-08-06 15:40:35:817,-24.213197321756,-177.3111258934548,0,-48.130401611328125,56.52698516845703,-20.241758346557617
-0.017330802977085114,-0.06829825788736343,9.670969009399414,-0.0008391006169246387,0.013840364961357736,-0.0005897678815011245,2.2100212574005127,2019-08-06 15:40:35:827,-20.138768804228583,-177.35633903838743,0,-48.130401611328125,56.52698516845703,-20.241758346557617
-0.0005675556603819132,-0.12098275125026703,9.625469207763672,0.003689378747147923,0.0183688436102259,-0.0021880547120550534,2.2200210094451904,2019-08-06 15:40:35:837,-16.146374820798776,-177.3968815055037,0,-47.08082962036133,57.57655715942383,-20.091819763183594
-0.03648880124092102,-0.11140375584363937,9.639837265014648,0.0007591862786478714,0.013307602706179285,-0.001655292456876604,2.2301313877105713,2019-08-06 15:40:35:847,-12.235339511633265,-177.43613256259061,0,-47.08082962036133,57.57655715942383,-20.091819763183594
0.016195692121982574,-0.0898510068655014,9.675758361816406,-0.004035674213013915,0.010377409782549165,0.005004236253002661,2.2400338649749756,2019-08-06 15:40:35:857,-15.594484717317844,-177.47452509158694,0,-47.08082962036133,57.57655715942383,-20.091819763183594
-0.038883551955223083,-0.0635087639093399,9.654206275939941,-0.0008391006169246387,0.019167987513142228,-0.001655292456876604,2.2505242824554443,2019-08-06 15:40:35:867,-11.698500945162294,-177.51700220269873,0,-47.08082962036133,57.57655715942383,-20.091819763183594
0.03535369038581848,-0.11140375584363937,9.606310844421387,0.001824710854023351,0.013041222098738713,-0.001655292456876604,2.2605044841766357,2019-08-06 15:40:35:877,-15.067621812624253,-177.55439619069904,0,-47.08082962036133,57.57655715942383,-20.091819763183594
0.02098519168794155,-0.08027201145887375,9.651811599731445,-0.0003063383292368989,0.017303320140166306,-0.004851865987947299,2.270514965057373,2019-08-06 15:40:35:887,-18.373503877873734,-177.5936059678008,0,-47.08082962036133,57.57655715942383,-20.091819763183594
0.02816944010555744,-0.11379850655794144,9.663784980773926,-0.002171006319889343,0.01357398435391716,-0.0032535792224119516,2.2800099849700928,2019-08-06 15:40:35:897,-21.609930413650492,-177.62708297485864,0,-47.08082962036133,57.57655715942383,-20.091819763183594
0.0018271940061822534,-0.06829825788736343,9.596732139587402,-0.0005727194893354142,0.014373127216536186,0.00020937558253977584,2.290038585662842,2019-08-06 15:40:35:907,-24.785607199430757,-177.66606367199975,0,-47.08082962036133,57.57655715942383,-20.091819763183594
0.00901144277304411,-0.08266676217317581,9.685338020324707,-0.004035674213013915,0.011176553685465489,0.00020937558253977584,2.300035238265991,2019-08-06 15:40:35:917,-27.895102390702164,-177.70069669523363,0,-47.08082962036133,57.57655715942383,-20.091819763183594
-0.005357054993510246,-0.10661425441503525,9.675758361816406,0.0023574731092018,0.011709315940643939,0.003938711482571438,2.3105239868164062,2019-08-06 15:40:35:927,-23.744730893094726,-177.73544518951573,0,-47.08082962036133,57.57655715942383,-20.091819763183594
-0.0029623054433614016,-0.1161932572722435,9.73083782196045,0.002890235364380249,0.01810246300278533,-0.001122530201698155,2.320012092590332,2019-08-06 15:40:35:937,-19.679829313032815,-177.7685936629794,0,-47.08082962036133,57.57655715942383,-20.091819763183594
-0.0149360541254282,-0.12098275125026703,9.668574333190918,0.0015583297264341264,0.013041222098738713,0.0010085190140713856,2.330002546310425,2019-08-06 15:40:35:947,-15.695318578643565,-177.79975787510557,0,-47.08082962036133,57.57655715942383,-20.091819763183594
-0.012541304342448711,-0.09224575757980347,9.682943344116211,0.004488522389989922,0.01064379143028704,0.00047575672638364575,2.340040922164917,2019-08-06 15:40:35:957,-11.788895800556272,-177.83537631229325,0,-47.380706787109375,56.07716751098633,-19.492063522338867
-0.017330802977085114,-0.11379850655794144,9.639837265014648,0.004488522389989922,0.014639508864274061,0.0020740435894468653,2.350036859512329,2019-08-06 15:40:35:967,-7.963394770236336,-177.86766112908904,0,-47.380706787109375,56.07716751098633,-19.492063522338867
-0.019725553691387177,-0.06829825788736343,9.627863883972168,0.0034229976195586987,0.016237795629809405,0.001541281334268416,2.360050678253174,2019-08-06 15:40:35:977,-4.2156047211488215,-177.90410379738952,0,-47.380706787109375,56.07716751098633,-19.492063522338867
-0.012541304342448711,-0.09224575757980347,9.618284225463867,-0.0016382440647108938,0.011176553685465489,0.004471473997824211,2.370004177093506,2019-08-06 15:40:35:987,-0.5390332253482022,-177.93411636966542,0,-47.380706787109375,56.07716751098633,-19.492063522338867
0.00901144277304411,-0.08745625615119934,9.625469207763672,-0.0019046251923001184,0.008779123017013819,0.00047575672638364575,2.380039930343628,2019-08-06 15:40:35:997,-4.132126835702959,-177.96394936177813,0,-47.380706787109375,56.07716751098633,-19.492063522338867
-0.026909802109003067,-0.12577225267887115,9.611100196838379,-0.0024373874474785677,0.01410674660909561,0.00047575672638364575,2.390033006668091,2019-08-06 15:40:36:007,-0.4606081366688892,-177.9883079704749,0,-47.380706787109375,56.07716751098633,-19.492063522338867
0.00422194367274642,-0.09224575757980347,9.64462661743164,-0.004035674213013915,0.013307602706179285,-0.001122530201698155,2.4000461101531982,2019-08-06 15:40:36:017,-4.058376340421447,-178.0153130732475,0,-47.380706787109375,56.07716751098633,-19.492063522338867
-0.010146554559469223,-0.07548251003026962,9.675758361816406,-0.0024373874474785677,0.010377409782549165,-0.000856149009090349,2.410041570663452,2019-08-06 15:40:36:027,-0.3842347422676693,-178.0446995098641,0,-47.380706787109375,56.07716751098633,-19.492063522338867
0.00422194367274642,-0.12577225267887115,9.627863883972168,0.0007591862786478714,0.01570503337463096,0.00047575672638364575,2.4200258255004883,2019-08-06 15:40:36:037,-3.984852018773242,-178.06926247400406,0,-47.380706787109375,56.07716751098633,-19.492063522338867
0.052116937935352325,-0.11858800798654556,9.663784980773926,0.0012919485988449018,0.011709315940643939,-0.000856149009090349,2.430046796798706,2019-08-06 15:40:36:047,-7.505563651377635,-178.09454290976208,0,-47.380706787109375,56.07716751098633,-19.492063522338867
-0.007751804776489735,-0.0898510068655014,9.654206275939941,0.0010255674062370958,0.012774840451000838,0.0012749002066791914,2.4400367736816406,2019-08-06 15:40:36:057,-3.7635383522016337,-178.1225626826107,0,-47.380706787109375,56.07716751098633,-19.492063522338867
-0.005357054993510246,-0.10900900512933731,9.63265323638916,-0.002171006319889343,0.010910172037727614,0.00020937558253977584,2.450047016143799,2019-08-06 15:40:36:067,-0.09503719011876566,-178.14592383400404,0,-47.380706787109375,56.07716751098633,-19.492063522338867
-0.005357054993510246,-0.10900900512933731,9.697311401367188,0.0002264239747054862,0.013041222098738713,0.001541281334268416,2.460005044937134,2019-08-06 15:40:36:077,3.49893862472438,-178.17025108533704,0,-47.380706787109375,56.07716751098633,-19.492063522338867
0.025774691253900528,-0.056324511766433716,9.67336368560791,-0.002970149702657017,0.01357398435391716,-0.0013889113292873795,2.4700326919555664,2019-08-06 15:40:36:087,-0.175629706956538,-178.19850153957702,0,-47.83052444458008,55.92722702026367,-19.342124938964844
-0.02930455282330513,-0.1161932572722435,9.630258560180664,-0.0003063383292368989,0.01064379143028704,0.0012749002066791914,2.480020046234131,2019-08-06 15:40:36:097,3.4184269986330214,-178.22053441869204,0,-47.83052444458008,55.92722702026367,-19.342124938964844
-0.0029623054433614016,-0.11858800798654556,9.642231941223145,-0.0016382440647108938,0.01410674660909561,0.0026068058446253144,2.4900424480438232,2019-08-06 15:40:36:107,6.941767744915145,-178.24110910674383,0,-47.83052444458008,55.92722702026367,-19.342124938964844
0.023379940539598465,-0.09943000972270966,9.687732696533203,0.0004928051185493561,0.017303320140166306,0.0023404247170360896,2.500040054321289,2019-08-06 15:40:36:117,3.1959844210286747,-178.26480288017535,0,-47.83052444458008,55.92722702026367,-19.342124938964844
0.006616693455725908,-0.14493025839328766,9.66139030456543,-0.0008391006169246387,0.011709315940643939,-0.000856149009090349,2.510042428970337,2019-08-06 15:40:36:127,-0.4737268027545629,-178.28184699684647,0,-47.83052444458008,55.92722702026367,-19.342124938964844
-0.007751804776489735,-0.07548251003026962,9.663784980773926,-0.002970149702657017,0.016504176237249982,-0.0003233867214026093,2.520005702972412,2019-08-06 15:40:36:137,3.1255954990977006,-178.3055980380241,0,-47.83052444458008,55.92722702026367,-19.342124938964844
0.013800942339003086,-0.09943000972270966,9.627863883972168,-3.9957173202045016e-05,0.010111029175108591,-0.0021880547120550534,2.530022382736206,2019-08-06 15:40:36:147,-0.5409606122611144,-178.3276297902047,0,-47.83052444458008,55.92722702026367,-19.342124938964844
0.05451168864965439,-0.11140375584363937,9.625469207763672,-0.0008391006169246387,0.015172271119452508,-5.7005565367755386e-05,2.5400400161743164,2019-08-06 15:40:36:157,-4.132186065029633,-178.3473431444651,0,-47.83052444458008,55.92722702026367,-19.342124938964844
0.0018271940061822534,-0.10421950370073318,9.625469207763672,-0.002703768575067792,0.009844647527370716,0.00047575672638364575,2.5500268936157227,2019-08-06 15:40:36:167,-7.654845317984261,-178.3664732266325,0,-47.83052444458008,55.92722702026367,-19.342124938964844
0.018590440973639488,-0.06829825788736343,9.728443145751953,-0.0013718629371216693,0.013041222098738713,0.0010085190140713856,2.5600223541259766,2019-08-06 15:40:36:177,-11.106877946268485,-178.39032907702133,0,-47.83052444458008,55.92722702026367,-19.342124938964844
0.025774691253900528,-0.10900900512933731,9.627863883972168,-0.004834817595781589,0.011176553685465489,0.004471473997824211,2.570044994354248,2019-08-06 15:40:36:187,-14.487962499393033,-178.4068278264438,0,-47.83052444458008,55.92722702026367,-19.342124938964844
-0.017330802977085114,-0.09943000972270966,9.70210075378418,0.0026238542367910244,0.013307602706179285,-0.0024544358396442778,2.580033540725708,2019-08-06 15:40:36:197,-10.607713831637273,-178.4284196008897,0,-47.83052444458008,55.92722702026367,-19.342124938964844
0.02816944010555744,-0.09224575757980347,9.618284225463867,0.0004928051185493561,0.015172271119452508,0.00020937558253977584,2.590053081512451,2019-08-06 15:40:36:207,-14.000739334192328,-178.44913870151345,0,-46.631011962890625,57.126739501953125,-20.841514587402344
-0.005357054993510246,-0.06590351462364197,9.64462661743164,0.0023574731092018,0.009578266919930143,-0.000856149009090349,2.600005865097046,2019-08-06 15:40:36:217,-10.12671382996246,-178.47364326434266,0,-46.631011962890625,57.126739501953125,-20.841514587402344
0.025774691253900528,-0.09943000972270966,9.642231941223145,0.0034229976195586987,0.01357398435391716,-0.001122530201698155,2.6100423336029053,2019-08-06 15:40:36:227,-13.528765978029691,-178.4942832356216,0,-46.631011962890625,57.126739501953125,-20.841514587402344
0.030564190819859505,-0.06829825788736343,9.608705520629883,0.0023574731092018,0.011176553685465489,-0.0032535792224119516,2.6200342178344727,2019-08-06 15:40:36:237,-16.860816171163684,-178.51757523390754,0,-46.631011962890625,57.126739501953125,-20.841514587402344
0.023379940539598465,-0.08506150543689728,9.687732696533203,-0.0011054818095324445,0.009844647527370716,0.00047575672638364575,2.6300432682037354,2019-08-06 15:40:36:247,-20.12636711072023,-178.53654118060953,0,-46.631011962890625,57.126739501953125,-20.841514587402344
0.0018271940061822534,-0.09943000972270966,9.663784980773926,-0.0005727194893354142,0.012774840451000838,0.00047575672638364575,2.6400465965270996,2019-08-06 15:40:36:257,-23.330798545829,-178.55369883917805,0,-46.631011962890625,57.126739501953125,-20.841514587402344
0.00901144277304411,-0.09703525900840759,9.697311401367188,-0.002703768575067792,0.011975696548084513,0.003405949227392988,2.6500437259674072,2019-08-06 15:40:36:267,-26.4698401146686,-178.56964101902403,0,-46.631011962890625,57.126739501953125,-20.841514587402344
-0.005357054993510246,-0.07308775931596756,9.663784980773926,0.0004928051185493561,0.01357398435391716,0.0031395680998037635,2.660003900527954,2019-08-06 15:40:36:277,-22.348669962698388,-178.58985734603417,0,-46.631011962890625,57.126739501953125,-20.841514587402344
0.025774691253900528,-0.10900900512933731,9.678153038024902,-0.0011054818095324445,0.013840364961357736,0.0026068058446253144,2.6700451374053955,2019-08-06 15:40:36:287,-25.506448180601183,-178.6045305416175,0,-46.631011962890625,57.126739501953125,-20.841514587402344
0.03295893967151642,-0.11140375584363937,9.64462661743164,-3.9957173202045016e-05,0.014639508864274061,-5.7005565367755386e-05,2.68003511428833,2019-08-06 15:40:36:297,-28.60061507769367,-178.61918179259064,0,-46.631011962890625,57.126739501953125,-20.841514587402344
0.00901144277304411,-0.07308775931596756,9.666179656982422,0.005820428027936045,0.01357398435391716,-0.0024544358396442778,2.6900441646575928,2019-08-06 15:40:36:307,-31.63516315096904,-178.6414049638846,0,-46.631011962890625,57.126739501953125,-20.841514587402344
-0.017330802977085114,-0.0706930086016655,9.66139030456543,0.0007591862786478714,0.011442934292906064,-0.0013889113292873795,2.7000107765197754,2019-08-06 15:40:36:317,-27.41091919249114,-178.6606171356202,0,-46.631011962890625,57.126739501953125,-20.841514587402344
0.00422194367274642,-0.12577225267887115,9.642231941223145,-0.003502911957835466,0.010910172037727614,0.00020937558253977584,2.710041046142578,2019-08-06 15:40:36:327,-30.468343648614383,-178.6704856049241,0,-46.631011962890625,57.126739501953125,-20.841514587402344
-0.007751804776489735,-0.09943000972270966,9.627863883972168,-0.004035674213013915,0.01357398435391716,0.0012749002066791914,2.720041513442993,2019-08-06 15:40:36:337,-26.267521530978474,-178.6829759476172,0,-46.18119812011719,56.07716751098633,-20.091819763183594
-0.010146554559469223,-0.13056175410747528,9.6901273727417,-0.0008391006169246387,0.014905889471714633,-0.0024544358396442778,2.730039596557617,2019-08-06 15:40:36:347,-22.151739023050176,-178.69340659005275,0,-46.18119812011719,56.07716751098633,-20.091819763183594
-0.03409405052661896,-0.06111401319503784,9.623074531555176,0.0007591862786478714,0.012774840451000838,-0.003786341477590401,2.7400357723236084,2019-08-06 15:40:36:357,-18.11993445708125,-178.71268721923283,0,-46.18119812011719,56.07716751098633,-20.091819763183594
-0.02930455282330513,-0.11379850655794144,9.699706077575684,-0.0005727194893354142,0.009578266919930143,0.00020937558253977584,2.7500345706939697,2019-08-06 15:40:36:367,-14.166375311640195,-178.72466848366088,0,-46.18119812011719,56.07716751098633,-20.091819763183594
-0.0149360541254282,-0.09943000972270966,9.647021293640137,-0.0019046251923001184,0.013041222098738713,-0.0003233867214026093,2.760047435760498,2019-08-06 15:40:36:377,-10.292154023218924,-178.73729397830527,0,-46.18119812011719,56.07716751098633,-20.091819763183594
0.04014318808913231,-0.11379850655794144,9.623074531555176,0.0004928051185493561,0.012774840451000838,-0.0032535792224119516,2.770005702972412,2019-08-06 15:40:36:387,-13.688673840535262,-178.7492731603044,0,-46.18119812011719,56.07716751098633,-20.091819763183594
0.030564190819859505,-0.0898510068655014,9.656600952148438,-0.004568436468192365,0.016237795629809405,0.004205092610160662,2.7800447940826416,2019-08-06 15:40:36:397,-17.0204265700051,-178.76105049672913,0,-46.18119812011719,56.07716751098633,-20.091819763183594
0.03295893967151642,-0.0898510068655014,9.680547714233398,0.0010255674062370958,0.012774840451000838,0.0023404247170360896,2.7900338172912598,2019-08-06 15:40:36:407,-20.283281786536264,-178.77576908049076,0,-46.18119812011719,56.07716751098633,-20.091819763183594
-0.0029623054433614016,-0.10421950370073318,9.570389747619629,0.0004928051185493561,0.01863522629826108,0.0028731869722145387,2.800041675567627,2019-08-06 15:40:36:417,-16.28844272081285,-178.7880523425311,0,-46.18119812011719,56.07716751098633,-20.091819763183594
0.013800942339003086,-0.09224575757980347,9.66139030456543,-0.0003063383292368989,0.015172271119452508,-0.0021880547120550534,2.8100435733795166,2019-08-06 15:40:36:427,-19.569557795415438,-178.80117852685606,0,-46.18119812011719,56.07716751098633,-20.091819763183594
0.030564190819859505,-0.10421950370073318,9.675758361816406,-0.0016382440647108938,0.010377409782549165,-0.0021880547120550534,2.82004451751709,2019-08-06 15:40:36:437,-22.780374336990395,-178.8118925918864,0,-46.18119812011719,56.07716751098633,-20.091819763183594
0.00901144277304411,-0.08027201145887375,9.6901273727417,-0.002171006319889343,0.01570503337463096,0.0018076624618576407,2.8300435543060303,2019-08-06 15:40:36:447,-25.932518698960884,-178.82494341144363,0,-46.18119812011719,56.07716751098633,-20.091819763183594
0.013800942339003086,-0.13295650482177734,9.66139030456543,-0.0003063383292368989,0.013041222098738713,-0.001122530201698155,2.8400537967681885,2019-08-06 15:40:36:457,-29.019561556264023,-178.83250368439977,0,-47.230770111083984,55.627349853515625,-20.841514587402344
0.00901144277304411,-0.10661425441503525,9.647021293640137,0.0004928051185493561,0.013307602706179285,-0.0013889113292873795,2.850036382675171,2019-08-06 15:40:36:467,-32.04555909532094,-178.84346624405987,0,-47.230770111083984,55.627349853515625,-20.841514587402344
0.0018271940061822534,-0.11379850655794144,9.606310844421387,-0.0008391006169246387,0.017303320140166306,0.0023404247170360896,2.8600363731384277,2019-08-06 15:40:36:477,-35.014145732929464,-178.8525516283686,0,-47.230770111083984,55.627349853515625,-20.841514587402344
0.00901144277304411,-0.08506150543689728,9.656600952148438,-0.003236530830246241,0.01570503337463096,0.0007421378864821609,2.8700437545776367,2019-08-06 15:40:36:487,-37.92161832577499,-178.86358825175853,0,-47.230770111083984,55.627349853515625,-20.841514587402344
-0.005357054993510246,-0.12577225267887115,9.637442588806152,0.0004928051185493561,0.011442934292906064,-0.001122530201698155,2.8800384998321533,2019-08-06 15:40:36:497,-33.57024474194718,-178.8716392699226,0,-47.230770111083984,55.627349853515625,-20.841514587402344
-0.03648880124092102,-0.0898510068655014,9.647021293640137,-3.9957173202045016e-05,0.011442934292906064,0.0020740435894468653,2.8900349140167236,2019-08-06 15:40:36:507,-29.309597014706405,-178.88351146775977,0,-47.230770111083984,55.627349853515625,-20.841514587402344
-0.03648880124092102,-0.1425355076789856,9.67336368560791,0.0023574731092018,0.015438651726893083,0.0023404247170360896,2.900038242340088,2019-08-06 15:40:36:517,-25.136399218170904,-178.89028173096216,0,-47.230770111083984,55.627349853515625,-20.841514587402344
0.02098519168794155,-0.12816700339317322,9.615889549255371,0.0010255674062370958,0.011176553685465489,0.003672330354982212,2.9100050926208496,2019-08-06 15:40:36:527,-28.237425270418857,-178.89777741752897,0,-47.230770111083984,55.627349853515625,-20.841514587402344
-0.026909802109003067,-0.12577225267887115,9.608705520629883,-0.0003063383292368989,0.017036938492428433,-0.0024544358396442778,2.9200472831726074,2019-08-06 15:40:36:537,-24.085492545625783,-178.90465063645055,0,-47.230770111083984,55.627349853515625,-20.841514587402344
-0.019725553691387177,-0.11140375584363937,9.675758361816406,-0.003236530830246241,0.010111029175108591,-0.001655292456876604,2.9300358295440674,2019-08-06 15:40:36:547,-20.011789646976855,-178.91154925492145,0,-47.230770111083984,55.627349853515625,-20.841514587402344
-0.010146554559469223,-0.12098275125026703,9.589548110961914,0.0007591862786478714,0.016237795629809405,-0.001122530201698155,2.9400219917297363,2019-08-06 15:40:36:557,-16.021871212911755,-178.91928773690134,0,-47.230770111083984,55.627349853515625,-20.841514587402344
-0.007751804776489735,-0.08506150543689728,9.699706077575684,0.0007591862786478714,0.009844647527370716,-0.003519960350001176,2.9500482082366943,2019-08-06 15:40:36:567,-12.107891828568718,-178.93128054052954,0,-47.230770111083984,55.627349853515625,-20.841514587402344
-0.005357054993510246,-0.07548251003026962,9.706890106201172,-0.006965867136644035,0.01410674660909561,0.003672330354982212,2.960036039352417,2019-08-06 15:40:36:577,-8.274277681925028,-178.93983769988782,0,-47.230770111083984,55.627349853515625,-20.841514587402344
-0.02212030254304409,-0.09703525900840759,9.630258560180664,-3.9957173202045016e-05,0.016237795629809405,0.003672330354982212,2.97004771232605,2019-08-06 15:40:36:587,-4.520552386992978,-178.94947253697742,0,-46.481075286865234,55.77729034423828,-19.19218635559082
0.013800942339003086,-0.05871926248073578,9.666179656982422,-0.0019046251923001184,0.016770557884987856,0.003938711482571438,2.9800331592559814,2019-08-06 15:40:36:597,-8.03790819426107,-178.96245417600792,0,-46.481075286865234,55.77729034423828,-19.19218635559082
0.03295893967151642,-0.10900900512933731,9.694916725158691,0.0007591862786478714,0.013840364961357736,-0.0005897678815011245,2.990029811859131,2019-08-06 15:40:36:607,-11.481023123546153,-178.97074717537404,0,-46.481075286865234,55.77729034423828,-19.19218635559082
-0.0149360541254282,-0.06111401319503784,9.656600952148438,-0.004035674213013915,0.013041222098738713,-0.001655292456876604,3.000051498413086,2019-08-06 15:40:36:617,-7.660513578504652,-178.98180919933122,0,-46.481075286865234,55.77729034423828,-19.19218635559082
-0.02930455282330513,-0.08266676217317581,9.66139030456543,-0.0003063383292368989,0.012508459843560263,-0.002987198094822727,3.0100061893463135,2019-08-06 15:40:36:627,-3.9177707032521396,-178.99219710825483,0,-46.481075286865234,55.77729034423828,-19.19218635559082
0.0018271940061822534,-0.08506150543689728,9.651811599731445,-0.0008391006169246387,0.014905889471714633,-0.004052722605179625,3.020051956176758,2019-08-06 15:40:36:637,-7.447606296604226,-179.00178115260087,0,-46.481075286865234,55.77729034423828,-19.19218635559082
0.013800942339003086,-0.10421950370073318,9.658995628356934,-0.0011054818095324445,0.017036938492428433,-0.0013889113292873795,3.0300071239471436,2019-08-06 15:40:36:647,-10.906540197788505,-179.00876376209672,0,-46.481075286865234,55.77729034423828,-19.19218635559082
0.023379940539598465,-0.08506150543689728,9.59194278717041,0.0004928051185493561,0.01064379143028704,-0.0003233867214026093,3.0400447845458984,2019-08-06 15:40:36:657,-14.29161526245414,-179.01870450654872,0,-46.481075286865234,55.77729034423828,-19.19218635559082
-0.019725553691387177,-0.09224575757980347,9.709284782409668,-0.0005727194893354142,0.009578266919930143,0.003938711482571438,3.050034761428833,2019-08-06 15:40:36:667,-10.413483809490023,-179.02712239565233,0,-46.481075286865234,55.77729034423828,-19.19218635559082
0.04253793880343437,-0.12098275125026703,9.611100196838379,-0.0013718629371216693,0.013041222098738713,-0.0024544358396442778,3.060051918029785,2019-08-06 15:40:36:677,-13.807477629887376,-179.0313845153367,0,-46.481075286865234,55.77729034423828,-19.19218635559082
0.00901144277304411,-0.1161932572722435,9.706890106201172,-0.0011054818095324445,0.012774840451000838,-0.001655292456876604,3.0700364112854004,2019-08-06 15:40:36:687,-17.137426193251642,-179.03642089605978,0,-46.481075286865234,55.77729034423828,-19.19218635559082
-0.0029623054433614016,-0.09943000972270966,9.642231941223145,-0.0019046251923001184,0.014639508864274061,-0.0032535792224119516,3.0800225734710693,2019-08-06 15:40:36:697,-13.203238409348716,-179.04280833234472,0,-46.481075286865234,55.77729034423828,-19.19218635559082
0.04972218722105026,-0.12337750196456909,9.630258560180664,-0.0037692930854246903,0.013041222098738713,-0.0021880547120550534,3.090050220489502,2019-08-06 15:40:36:707,-16.54060006658834,-179.04514983304668,0,-48.130401611328125,55.627349853515625,-19.64200210571289
0.04972218722105026,-0.12337750196456909,9.596732139587402,0.0004928051185493561,0.009311885272192268,-0.0053846282431257485,3.100039482116699,2019-08-06 15:40:36:717,-19.809073944680527,-179.04979194089583,0,-48.130401611328125,55.627349853515625,-19.64200210571289
0.02816944010555744,-0.09224575757980347,9.635047912597656,-0.003236530830246241,0.01410674660909561,0.003672330354982212,3.1100454330444336,2019-08-06 15:40:36:727,-23.017467859978204,-179.05600707501057,0,-48.130401611328125,55.627349853515625,-19.64200210571289
-0.010146554559469223,-0.09224575757980347,9.601521492004395,0.0007591862786478714,0.012242078195822388,-0.000856149009090349,3.1200344562530518,2019-08-06 15:40:36:737,-18.965195831039235,-179.0643038049842,0,-48.130401611328125,55.627349853515625,-19.64200210571289
-0.010146554559469223,-0.11140375584363937,9.711679458618164,-0.0024373874474785677,0.011975696548084513,-0.0003233867214026093,3.1300199031829834,2019-08-06 15:40:36:747,-14.993803693372836,-179.0685067821264,0,-48.130401611328125,55.627349853515625,-19.64200210571289
-0.012541304342448711,-0.12098275125026703,9.637442588806152,0.001824710854023351,0.012774840451000838,0.0007421378864821609,3.14003586769104,2019-08-06 15:40:36:757,-11.102603317507235,-179.07377846417793,0,-48.130401611328125,55.627349853515625,-19.64200210571289
0.023379940539598465,-0.10661425441503525,9.66139030456543,0.0020910919816125757,0.009578266919930143,0.0023404247170360896,3.1500353813171387,2019-08-06 15:40:36:767,-14.4831561371135,-179.08083222144043,0,-48.130401611328125,55.627349853515625,-19.64200210571289
0.013800942339003086,-0.07308775931596756,9.656600952148438,0.001824710854023351,0.015971413982071532,-0.0005897678815011245,3.1600446701049805,2019-08-06 15:40:36:777,-17.800831562506133,-179.09156819420434,0,-48.130401611328125,55.627349853515625,-19.64200210571289
0.05451168864965439,-0.1497197449207306,9.670969009399414,-0.002171006319889343,0.011442934292906064,0.0031395680998037635,3.1700053215026855,2019-08-06 15:40:36:787,-21.044755805537985,-179.09078369612286,0,-48.130401611328125,55.627349853515625,-19.64200210571289
0.02098519168794155,-0.08745625615119934,9.709284782409668,-3.9957173202045016e-05,0.014373127216536186,-0.001122530201698155,3.1800425052642822,2019-08-06 15:40:36:797,-24.22948446569367,-179.09862396227,0,-48.130401611328125,55.627349853515625,-19.64200210571289
-0.017330802977085114,-0.12577225267887115,9.678153038024902,0.0023574731092018,0.012774840451000838,0.0010085190140713856,3.190037965774536,2019-08-06 15:40:36:807,-20.154116580467516,-179.10308371416562,0,-48.130401611328125,55.627349853515625,-19.64200210571289
-0.017330802977085114,-0.0706930086016655,9.670969009399414,-0.0011054818095324445,0.01410674660909561,0.00020937558253977584,3.200040578842163,2019-08-06 15:40:36:817,-16.16101076674986,-179.11202486767797,0,-48.130401611328125,55.627349853515625,-19.64200210571289
-0.012541304342448711,-0.08027201145887375,9.666179656982422,-0.0016382440647108938,0.011442934292906064,0.0028731869722145387,3.2100393772125244,2019-08-06 15:40:36:827,-12.245701729189646,-179.11934866394526,0,-48.130401611328125,55.627349853515625,-19.64200210571289
0.011406192556023598,-0.11379850655794144,9.668574333190918,0.003689378747147923,0.011442934292906064,0.0023404247170360896,3.2200422286987305,2019-08-06 15:40:36:837,-15.605862861989921,-179.12554713147247,0,-47.230770111083984,56.52698516845703,-19.94188117980957
0.013800942339003086,-0.08745625615119934,9.635047912597656,-0.0011054818095324445,0.012508459843560263,0.0012749002066791914,3.2300326824188232,2019-08-06 15:40:36:847,-18.899121010462732,-179.13201499240606,0,-47.230770111083984,56.52698516845703,-19.94188117980957
-0.0029623054433614016,-0.12098275125026703,9.618284225463867,0.0020910919816125757,0.012242078195822388,0.004471473997824211,3.240042209625244,2019-08-06 15:40:36:857,-14.928371976385344,-179.13613691704043,0,-47.230770111083984,56.52698516845703,-19.94188117980957
0.0018271940061822534,-0.09943000972270966,9.663784980773926,-0.0003063383292368989,0.011176553685465489,-0.002987198094822727,3.2500452995300293,2019-08-06 15:40:36:867,-18.235865430018766,-179.14145228742288,0,-47.230770111083984,56.52698516845703,-19.94188117980957
0.018590440973639488,-0.08745625615119934,9.668574333190918,-0.002703768575067792,0.015172271119452508,0.00047575672638364575,3.260044813156128,2019-08-06 15:40:36:877,-21.47746358768779,-179.14674015507111,0,-47.230770111083984,56.52698516845703,-19.94188117980957
0.030564190819859505,-0.11379850655794144,9.680547714233398,-0.0016382440647108938,0.016237795629809405,-0.0021880547120550534,3.2700045108795166,2019-08-06 15:40:36:887,-24.653377107179516,-179.1494191359206,0,-47.230770111083984,56.52698516845703,-19.94188117980957
0.011406192556023598,-0.08266676217317581,9.687732696533203,0.004222141002326372,0.014639508864274061,0.004737855125413436,3.2800302505493164,2019-08-06 15:40:36:897,-27.767201604147452,-179.15902956299925,0,-47.230770111083984,56.52698516845703,-19.94188117980957
-0.010146554559469223,-0.07308775931596756,9.572784423828125,-3.9957173202045016e-05,0.015172271119452508,0.004737855125413436,3.2900400161743164,2019-08-06 15:40:36:907,-23.62159969980769,-179.1670776722326,0,-47.230770111083984,56.52698516845703,-19.94188117980957
0.044932689517736435,-0.1161932572722435,9.709284782409668,0.003955759874737148,0.013307602706179285,0.00020937558253977584,3.3000497817993164,2019-08-06 15:40:36:917,-26.751344166135596,-179.17224665928816,0,-47.230770111083984,56.52698516845703,-19.94188117980957
-0.005357054993510246,-0.1161932572722435,9.658995628356934,-3.9957173202045016e-05,0.012242078195822388,-0.001655292456876604,3.310009717941284,2019-08-06 15:40:36:927,-22.6237991991282,-179.1749952095537,0,-47.230770111083984,56.52698516845703,-19.94188117980957
0.00901144277304411,-0.12337750196456909,9.639837265014648,-0.0005727194893354142,0.01570503337463096,0.0007421378864821609,3.3200504779815674,2019-08-06 15:40:36:937,-25.779106297473547,-179.1765069703702,0,-47.230770111083984,56.52698516845703,-19.94188117980957
0.04014318808913231,-0.0635087639093399,9.6901273727417,0.0002264239747054862,0.012508459843560263,0.0010085190140713856,3.3300344944000244,2019-08-06 15:40:36:947,-28.86578928343466,-179.1855935803885,0,-47.230770111083984,56.52698516845703,-19.94188117980957
0.02816944010555744,-0.11379850655794144,9.625469207763672,0.00555404690034682,0.011709315940643939,-0.001122530201698155,3.340043544769287,2019-08-06 15:40:36:957,-31.89170064067999,-179.19145599879434,0,-47.980464935302734,57.876434326171875,-20.091819763183594
0.013800942339003086,-0.09943000972270966,9.567995071411133,0.0010255674062370958,0.015172271119452508,-5.7005565367755386e-05,3.3500380516052246,2019-08-06 15:40:36:967,-34.860728282277044,-179.19629456228878,0,-47.980464935302734,57.876434326171875,-20.091819763183594
0.04972218722105026,-0.08027201145887375,9.647021293640137,0.0010255674062370958,0.017036938492428433,-0.001655292456876604,3.360041618347168,2019-08-06 15:40:36:977,-37.76717717879467,-179.20340988885485,0,-47.980464935302734,57.876434326171875,-20.091819763183594
0.037748441100120544,-0.08266676217317581,9.670969009399414,0.0002264239747054862,0.01064379143028704,0.0020740435894468653,3.370028257369995,2019-08-06 15:40:36:987,-40.61332932474823,-179.2096736907397,0,-47.980464935302734,57.876434326171875,-20.091819763183594
0.07127493619918823,-0.09224575757980347,9.594337463378906,-3.9957173202045016e-05,0.01357398435391716,0.00047575672638364575,3.380042791366577,2019-08-06 15:40:36:997,-43.40018290598793,-179.21444056300447,0,-47.980464935302734,57.876434326171875,-20.091819763183594
0.02098519168794155,-0.09943000972270966,9.635047912597656,0.001824710854023351,0.010377409782549165,-0.001122530201698155,3.390010118484497,2019-08-06 15:40:37:007,-46.135491304145305,-179.2193479859268,0,-47.980464935302734,57.876434326171875,-20.091819763183594
0.023379940539598465,-0.07548251003026962,9.687732696533203,0.0012919485988449018,0.012774840451000838,-0.001122530201698155,3.400017499923706,2019-08-06 15:40:37:017,-48.81719433230538,-179.2267587044478,0,-47.980464935302734,57.876434326171875,-20.091819763183594
-0.012541304342448711,-0.12098275125026703,9.663784980773926,0.0012919485988449018,0.015438651726893083,-0.004052722605179625,3.410017251968384,2019-08-06 15:40:37:027,-44.25100613887571,-179.22860375523499,0,-47.980464935302734,57.876434326171875,-20.091819763183594
0.025774691253900528,-0.07308775931596756,9.706890106201172,0.001824710854023351,0.011709315940643939,-0.0005897678815011245,3.420024871826172,2019-08-06 15:40:37:037,-46.969523050084845,-179.23642905695388,0,-47.980464935302734,57.876434326171875,-20.091819763183594
0.011406192556023598,-0.10900900512933731,9.625469207763672,-3.9957173202045016e-05,0.013041222098738713,-0.0027208169672335025,3.4300191402435303,2019-08-06 15:40:37:047,-49.63609310980718,-179.23870104606985,0,-47.980464935302734,57.876434326171875,-20.091819763183594
0.016195692121982574,-0.12816700339317322,9.685338020324707,0.0031566164919694735,0.012508459843560263,0.005004236253002661,3.4400229454040527,2019-08-06 15:40:37:057,-52.248481220470666,-179.24053701001762,0,-47.980464935302734,57.876434326171875,-20.091819763183594
-0.02212030254304409,-0.08027201145887375,9.601521492004395,0.0007591862786478714,0.01810246300278533,-0.0021880547120550534,3.4500138759613037,2019-08-06 15:40:37:067,-47.61630687929993,-179.24657214126077,0,-47.980464935302734,57.876434326171875,-20.091819763183594
0.0018271940061822534,-0.12098275125026703,9.611100196838379,-3.9957173202045016e-05,0.014639508864274061,0.004205092610160662,3.460007429122925,2019-08-06 15:40:37:077,-50.27197765335902,-179.2471944653426,0,-47.980464935302734,57.876434326171875,-20.091819763183594
-0.04367304965853691,-0.0706930086016655,9.647021293640137,-0.0005727194893354142,0.017036938492428433,0.00047575672638364575,3.4700186252593994,2019-08-06 15:40:37:087,-45.681302669892595,-179.25353155880325,0,-47.83052444458008,55.627349853515625,-19.64200210571289
-0.0029623054433614016,-0.12577225267887115,9.699706077575684,-3.9957173202045016e-05,0.012242078195822388,-0.0005897678815011245,3.480001211166382,2019-08-06 15:40:37:097,-41.17488852085873,-179.25358072918283,0,-47.83052444458008,55.627349853515625,-19.64200210571289
-0.02930455282330513,-0.1161932572722435,9.651811599731445,0.001824710854023351,0.011442934292906064,0.003405949227392988,3.490006923675537,2019-08-06 15:40:37:107,-36.761298798144104,-179.2557398431797,0,-47.83052444458008,55.627349853515625,-19.64200210571289
0.0018271940061822534,-0.07308775931596756,9.678153038024902,-0.0011054818095324445,0.015438651726893083,0.0031395680998037635,3.499998092651367,2019-08-06 15:40:37:117,-39.63451760472277,-179.26135127356565,0,-47.83052444458008,55.627349853515625,-19.64200210571289
0.016195692121982574,-0.11379850655794144,9.637442588806152,0.0010255674062370958,0.011709315940643939,0.0012749002066791914,3.5100557804107666,2019-08-06 15:40:37:127,-42.4465142401893,-179.26317313170176,0,-47.83052444458008,55.627349853515625,-19.64200210571289
0.016195692121982574,-0.08745625615119934,9.666179656982422,-0.0005727194893354142,0.013307602706179285,-0.000856149009090349,3.5200071334838867,2019-08-06 15:40:37:137,-45.203099825499905,-179.2672220865208,0,-47.83052444458008,55.627349853515625,-19.64200210571289
0.025774691253900528,-0.10421950370073318,9.699706077575684,0.0004928051185493561,0.012774840451000838,0.005270617380591885,3.530010223388672,2019-08-06 15:40:37:147,-47.90316810649063,-179.26984250388298,0,-47.83052444458008,55.627349853515625,-19.64200210571289
-0.0005675556603819132,-0.11140375584363937,9.697311401367188,0.0002264239747054862,0.006914455123889247,-0.0003233867214026093,3.540008783340454,2019-08-06 15:40:37:157,-43.34905370954489,-179.2714089498486,0,-47.83052444458008,55.627349853515625,-19.64200210571289
0.030564190819859505,-0.09224575757980347,9.697311401367188,0.0020910919816125757,0.015438651726893083,0.006602523018538008,3.5500049591064453,2019-08-06 15:40:37:167,-46.08712639315283,-179.27625426405828,0,-47.83052444458008,55.627349853515625,-19.64200210571289
-0.017330802977085114,-0.14014075696468353,9.656600952148438,-0.002171006319889343,0.013041222098738713,0.0007421378864821609,3.5600149631500244,2019-08-06 15:40:37:177,-41.574770403858054,-179.27288008834464,0,-47.83052444458008,55.627349853515625,-19.64200210571289
0.023379940539598465,-0.11140375584363937,9.685338020324707,0.0034229976195586987,0.017303320140166306,0.0023404247170360896,3.570007562637329,2019-08-06 15:40:37:187,-44.350217416517026,-179.27616297811562,0,-47.83052444458008,55.627349853515625,-19.64200210571289
-0.024515053257346153,-0.08745625615119934,9.647021293640137,-0.0011054818095324445,0.010377409782549165,0.0020740435894468653,3.5800187587738037,2019-08-06 15:40:37:197,-39.87195849304395,-179.27963014312957,0,-47.83052444458008,55.627349853515625,-19.64200210571289
-0.03409405052661896,-0.08266676217317581,9.630258560180664,-0.002171006319889343,0.01410674660909561,0.004205092610160662,3.5900344848632812,2019-08-06 15:40:37:207,-35.486509572222076,-179.28298023421047,0,-49.32991409301758,57.126739501953125,-20.241758346557617
0.030564190819859505,-0.11140375584363937,9.599126815795898,0.0007591862786478714,0.01357398435391716,0.00047575672638364575,3.600013017654419,2019-08-06 15:40:37:217,-38.380736141622364,-179.28444754006216,0,-49.32991409301758,57.126739501953125,-20.241758346557617
0.00422194367274642,-0.0635087639093399,9.651811599731445,-3.9957173202045016e-05,0.010111029175108591,0.005803379635770335,3.6100165843963623,2019-08-06 15:40:37:227,-41.21829952077656,-179.29119614816344,0,-49.32991409301758,57.126739501953125,-20.241758346557617
0.03535369038581848,-0.07308775931596756,9.668574333190918,-0.002970149702657017,0.016504176237249982,-0.000856149009090349,3.620016574859619,2019-08-06 15:40:37:237,-43.99901050735197,-179.2950423245578,0,-49.32991409301758,57.126739501953125,-20.241758346557617
-0.0149360541254282,-0.11140375584363937,9.668574333190918,-0.0016382440647108938,0.013307602706179285,0.004205092610160662,3.630009412765503,2019-08-06 15:40:37:247,-39.52826736015048,-179.29501932043772,0,-49.32991409301758,57.126739501953125,-20.241758346557617
0.006616693455725908,-0.08745625615119934,9.658995628356934,-0.003236530830246241,0.013041222098738713,0.00020937558253977584,3.6400113105773926,2019-08-06 15:40:37:257,-42.34424104565992,-179.29692600513692,0,-49.32991409301758,57.126739501953125,-20.241758346557617
-0.0029623054433614016,-0.09464050829410553,9.575179100036621,-0.0019046251923001184,0.012242078195822388,0.0010085190140713856,3.6500182151794434,2019-08-06 15:40:37:267,-37.90458939691507,-179.29859150853153,0,-49.32991409301758,57.126739501953125,-20.241758346557617
-0.02212030254304409,-0.05392976477742195,9.62067985534668,-0.004035674213013915,0.009844647527370716,-0.001122530201698155,3.6600048542022705,2019-08-06 15:40:37:277,-33.554652715889574,-179.30393319352075,0,-49.32991409301758,57.126739501953125,-20.241758346557617
-0.010146554559469223,-0.10182476043701172,9.64462661743164,-0.0011054818095324445,0.013041222098738713,-5.7005565367755386e-05,3.670011520385742,2019-08-06 15:40:37:287,-29.29209272258855,-179.3051356430871,0,-49.32991409301758,57.126739501953125,-20.241758346557617
-0.04846255108714104,-0.11379850655794144,9.635047912597656,-3.9957173202045016e-05,0.015172271119452508,0.0007421378864821609,3.680004358291626,2019-08-06 15:40:37:297,-25.120527676068793,-179.30547685484316,0,-49.32991409301758,57.126739501953125,-20.241758346557617
-0.04127829894423485,-0.11379850655794144,9.637442588806152,-0.0003063383292368989,0.011176553685465489,0.00047575672638364575,3.690009117126465,2019-08-06 15:40:37:307,-21.029303789794685,-179.3056649342629,0,-49.32991409301758,57.126739501953125,-20.241758346557617
0.0018271940061822534,-0.0898510068655014,9.627863883972168,-0.0037692930854246903,0.010910172037727614,-0.002987198094822727,3.700014591217041,2019-08-06 15:40:37:317,-24.214629640204926,-179.30674020020322,0,-49.32991409301758,57.126739501953125,-20.241758346557617
0.023379940539598465,-0.0898510068655014,9.704495429992676,0.0020910919816125757,0.01357398435391716,0.0010085190140713856,3.7100090980529785,2019-08-06 15:40:37:327,-27.335193915213114,-179.31116951158663,0,-49.32991409301758,57.126739501953125,-20.241758346557617
-0.024515053257346153,-0.09224575757980347,9.567995071411133,0.0002264239747054862,0.016504176237249982,-5.7005565367755386e-05,3.720008134841919,2019-08-06 15:40:37:337,-23.200692267662646,-179.31402573005508,0,-47.68058776855469,56.07716751098633,-20.69157600402832
0.052116937935352325,-0.08027201145887375,9.599126815795898,0.0007591862786478714,0.015438651726893083,-0.0003233867214026093,3.730036497116089,2019-08-06 15:40:37:347,-26.339150284902527,-179.31859029274517,0,-47.68058776855469,56.07716751098633,-20.69157600402832
0.04014318808913231,-0.09943000972270966,9.625469207763672,0.0002264239747054862,0.017036938492428433,-0.001122530201698155,3.740004539489746,2019-08-06 15:40:37:357,-29.417123892270812,-179.32050845973637,0,-47.68058776855469,56.07716751098633,-20.69157600402832
0.0018271940061822534,-0.10900900512933731,9.67336368560791,0.004488522389989922,0.012242078195822388,0.00047575672638364575,3.7500088214874268,2019-08-06 15:40:37:367,-32.43544181699464,-179.32370690816836,0,-47.68058776855469,56.07716751098633,-20.69157600402832
0.04014318808913231,-0.10421950370073318,9.647021293640137,-0.002703768575067792,0.01064379143028704,-0.002987198094822727,3.760009288787842,2019-08-06 15:40:37:377,-35.387941377541864,-179.3233353675457,0,-47.68058776855469,56.07716751098633,-20.69157600402832
-0.0005675556603819132,-0.09943000972270966,9.663784980773926,-0.0003063383292368989,0.014373127216536186,-0.0005897678815011245,3.7700116634368896,2019-08-06 15:40:37:387,-31.088322257631553,-179.32490678122105,0,-47.68058776855469,56.07716751098633,-20.69157600402832
0.03295893967151642,-0.14732499420642853,9.637442588806152,-0.003236530830246241,0.01570503337463096,-0.0005897678815011245,3.7799885272979736,2019-08-06 15:40:37:397,-34.07143488149388,-179.31907960320814,0,-47.68058776855469,56.07716751098633,-20.69157600402832
0.018590440973639488,-0.13056175410747528,9.716469764709473,-0.002703768575067792,0.012242078195822388,-0.00431910373276885,3.790006637573242,2019-08-06 15:40:37:407,-36.99470007483822,-179.31578017539331,0,-47.68058776855469,56.07716751098633,-20.69157600402832
0.044932689517736435,-0.1161932572722435,9.666179656982422,-0.003236530830246241,0.014905889471714633,-0.005917390498304197,3.800008535385132,2019-08-06 15:40:37:417,-39.85785061294171,-179.31387299238563,0,-47.68058776855469,56.07716751098633,-20.69157600402832
0.011406192556023598,-0.09943000972270966,9.658995628356934,0.0007591862786478714,0.01357398435391716,-0.001122530201698155,3.810011863708496,2019-08-06 15:40:37:427,-42.66696471379627,-179.31622628140778,0,-47.68058776855469,56.07716751098633,-20.69157600402832
0.02098519168794155,-0.11140375584363937,9.599126815795898,-0.004035674213013915,0.017303320140166306,0.0018076624618576407,3.8200085163116455,2019-08-06 15:40:37:437,-45.420832811361535,-179.31433803231147,0,-47.68058776855469,56.07716751098633,-20.69157600402832
0.025774691253900528,-0.1161932572722435,9.606310844421387,0.0015583297264341264,0.013307602706179285,-0.005917390498304197,3.829984426498413,2019-08-06 15:40:37:447,-48.11679575697457,-179.3150644028342,0,-47.68058776855469,56.07716751098633,-20.69157600402832
-0.012541304342448711,-0.09703525900840759,9.654206275939941,-0.002703768575067792,0.010377409782549165,-0.005118247115536523,3.840008497238159,2019-08-06 15:40:37:457,-43.56178937081129,-179.31572398958443,0,-47.230770111083984,56.52698516845703,-19.64200210571289
-0.024515053257346153,-0.08506150543689728,9.692522048950195,-0.003236530830246241,0.010910172037727614,-0.005118247115536523,3.850008487701416,2019-08-06 15:40:37:467,-39.09957795372691,-179.31753591486242,0,-47.230770111083984,56.52698516845703,-19.64200210571289
0.03295893967151642,-0.10661425441503525,9.656600952148438,0.0007591862786478714,0.011709315940643939,-0.004851865987947299,3.860010862350464,2019-08-06 15:40:37:477,-41.920251612179136,-179.31896054733468,0,-47.230770111083984,56.52698516845703,-19.64200210571289
0.07845918089151382,-0.05392976477742195,9.630258560180664,-0.005633960978549262,0.016237795629809405,-0.000856149009090349,3.8700103759765625,2019-08-06 15:40:37:487,-44.68162789462265,-179.3230009309012,0,-47.230770111083984,56.52698516845703,-19.64200210571289
0.03295893967151642,-0.06590351462364197,9.70210075378418,-0.0005727194893354142,0.017036938492428433,0.00020937558253977584,3.8800108432769775,2019-08-06 15:40:37:497,-47.39366923455249,-179.3284355684502,0,-47.230770111083984,56.52698516845703,-19.64200210571289
0.018590440973639488,-0.05392976477742195,9.647021293640137,-0.0019046251923001184,0.01410674660909561,-0.005651009370714973,3.8900108337402344,2019-08-06 15:40:37:507,-50.05150850977756,-179.3343914658839,0,-47.230770111083984,56.52698516845703,-19.64200210571289
0.02098519168794155,-0.10182476043701172,9.639837265014648,-0.003502911957835466,0.014639508864274061,-0.0061837716258934215,3.900012254714966,2019-08-06 15:40:37:517,-52.65620500489646,-179.33363272046967,0,-47.230770111083984,56.52698516845703,-19.64200210571289
0.0473274365067482,-0.10182476043701172,9.692522048950195,-0.0008391006169246387,0.011442934292906064,-0.003519960350001176,3.9100093841552734,2019-08-06 15:40:37:527,-55.20390892688659,-179.3344510776061,0,-47.230770111083984,56.52698516845703,-19.64200210571289
0.06888018548488617,-0.08266676217317581,9.64462661743164,0.002890235364380249,0.011442934292906064,-0.004052722605179625,3.9199860095977783,2019-08-06 15:40:37:537,-57.698057138249844,-179.33955940697336,0,-47.230770111083984,56.52698516845703,-19.64200210571289
0.04253793880343437,-0.13774600625038147,9.654206275939941,-0.005101198723370813,0.009578266919930143,-0.0027208169672335025,3.930006980895996,2019-08-06 15:40:37:547,-60.14443640790943,-179.33354910634512,0,-47.230770111083984,56.52698516845703,-19.64200210571289
0.030564190819859505,-0.14732499420642853,9.745206832885742,-0.002703768575067792,0.010910172037727614,-0.004052722605179625,3.940007209777832,2019-08-06 15:40:37:557,-62.54407990832139,-179.32803765254033,0,-47.230770111083984,56.52698516845703,-19.64200210571289
0.04253793880343437,-0.08506150543689728,9.613494873046875,-0.0005727194893354142,0.014373127216536186,-0.0003233867214026093,3.950010061264038,2019-08-06 15:40:37:567,-64.89620067112018,-179.33101627472814,0,-47.230770111083984,56.52698516845703,-19.64200210571289
0.006616693455725908,-0.11858800798654556,9.66139030456543,-0.002171006319889343,0.012508459843560263,-0.0005897678815011245,3.960008144378662,2019-08-06 15:40:37:577,-67.20451400367733,-179.3291124174727,0,-47.230770111083984,56.52698516845703,-19.64200210571289
0.052116937935352325,-0.06111401319503784,9.60391616821289,-0.0019046251923001184,0.011176553685465489,-0.004585484860358075,3.9699854850769043,2019-08-06 15:40:37:587,-69.46046671971938,-179.33417127305543,0,-47.83052444458008,54.727718353271484,-18.742368698120117
0.037748441100120544,-0.06590351462364197,9.623074531555176,0.001824710854023351,0.009578266919930143,0.001541281334268416,3.9800124168395996,2019-08-06 15:40:37:597,-71.6721549927437,-179.34066751263336,0,-47.83052444458008,54.727718353271484,-18.742368698120117
-0.005357054993510246,-0.0706930086016655,9.608705520629883,-0.0011054818095324445,0.014905889471714633,0.0023404247170360896,3.990004301071167,2019-08-06 15:40:37:607,-66.64771360886601,-179.34480338058364,0,-47.83052444458008,54.727718353271484,-18.742368698120117
0.00901144277304411,-0.1688777506351471,9.635047912597656,-3.9957173202045016e-05,0.012774840451000838,0.001541281334268416,4.000033855438232,2019-08-06 15:40:37:617,-68.92088184306326,-179.3378018972638,0,-47.83052444458008,54.727718353271484,-18.742368698120117
-0.06522579491138458,-0.15929874777793884,9.699706077575684,-0.003502911957835466,0.013307602706179285,-0.001122530201698155,4.010007619857788,2019-08-06 15:40:37:627,-63.957622410842895,-179.33026640310288,0,-47.83052444458008,54.727718353271484,-18.742368698120117
-0.0005675556603819132,-0.08506150543689728,9.749996185302734,-0.005633960978549262,0.009844647527370716,0.0026068058446253144,4.020008563995361,2019-08-06 15:40:37:637,-59.08406494544418,-179.33050030258735,0,-47.83052444458008,54.727718353271484,-18.742368698120117
-0.02212030254304409,-0.07787726074457169,9.66139030456543,0.0010255674062370958,0.011442934292906064,0.006069760763359559,4.030006647109985,2019-08-06 15:40:37:647,-54.31143124126128,-179.33522939564148,0,-47.83052444458008,54.727718353271484,-18.742368698120117
-0.017330802977085114,-0.09224575757980347,9.579968452453613,-0.0003063383292368989,0.011176553685465489,0.0020740435894468653,4.040006160736084,2019-08-06 15:40:37:657,-49.63355096649292,-179.33731909845147,0,-47.83052444458008,54.727718353271484,-18.742368698120117
0.00422194367274642,-0.09943000972270966,9.694916725158691,-0.002970149702657017,0.013840364961357736,-0.001122530201698155,4.050019264221191,2019-08-06 15:40:37:667,-52.24816245297931,-179.33715082272536,0,-47.83052444458008,54.727718353271484,-18.742368698120117
-0.03409405052661896,-0.09943000972270966,9.642231941223145,-0.0003063383292368989,0.01357398435391716,0.0023404247170360896,4.060003757476807,2019-08-06 15:40:37:677,-47.614860994640196,-179.3384198832276,0,-47.83052444458008,54.727718353271484,-18.742368698120117
-0.03648880124092102,-0.09943000972270966,9.685338020324707,-0.0003063383292368989,0.011176553685465489,-5.7005565367755386e-05,4.07003116607666,2019-08-06 15:40:37:687,-43.073173727615455,-179.33971541035908,0,-47.83052444458008,54.727718353271484,-18.742368698120117
-0.0508572980761528,-0.08266676217317581,9.726048469543457,-0.005900342106138487,0.015971413982071532,-0.0019216735844658289,4.0800395011901855,2019-08-06 15:40:37:697,-38.62667756849297,-179.33986580648633,0,-47.83052444458008,54.727718353271484,-18.742368698120117
-0.03648880124092102,-0.044350765645504,9.623074531555176,0.0010255674062370958,0.01410674660909561,-0.0021880547120550534,4.090023040771484,2019-08-06 15:40:37:707,-34.266396963137616,-179.34836214597428,0,-47.53064727783203,56.52698516845703,-19.342124938964844
-0.04367304965853691,-0.06829825788736343,9.579968452453613,-0.0019046251923001184,0.009844647527370716,-0.0021880547120550534,4.100144624710083,2019-08-06 15:40:37:717,-29.99188793928592,-179.35214304352547,0,-47.53064727783203,56.52698516845703,-19.342124938964844
0.04014318808913231,-0.1353512555360794,9.680547714233398,-0.0005727194893354142,0.01570503337463096,0.0020740435894468653,4.110565185546875,2019-08-06 15:40:37:727,-32.99648755799319,-179.34874418512626,0,-47.53064727783203,56.52698516845703,-19.342124938964844
-0.03169930353760719,-0.14014075696468353,9.639837265014648,0.0002264239747054862,0.009045504664751694,-0.001655292456876604,4.119988203048706,2019-08-06 15:40:37:737,-28.74511196890412,-179.34523133525698,0,-47.53064727783203,56.52698516845703,-19.342124938964844
0.00901144277304411,-0.1161932572722435,9.70210075378418,-0.0008391006169246387,0.011442934292906064,-0.0032535792224119516,4.12999963760376,2019-08-06 15:40:37:747,-31.775577926844875,-179.3441320807596,0,-47.53064727783203,56.52698516845703,-19.342124938964844
0.0473274365067482,-0.09224575757980347,9.637442588806152,-0.0013718629371216693,0.01410674660909561,0.0028731869722145387,4.140015363693237,2019-08-06 15:40:37:757,-34.7423724406549,-179.34551001642615,0,-47.53064727783203,56.52698516845703,-19.342124938964844
0.00901144277304411,-0.0706930086016655,9.642231941223145,0.002890235364380249,0.016770557884987856,-0.003519960350001176,4.149994134902954,2019-08-06 15:40:37:767,-37.65585069672276,-179.35181798748079,0,-47.53064727783203,56.52698516845703,-19.342124938964844
0.0473274365067482,-0.10421950370073318,9.625469207763672,0.0020910919816125757,0.011176553685465489,0.003405949227392988,4.160009384155273,2019-08-06 15:40:37:777,-40.50338456929697,-179.3535506787321,0,-47.53064727783203,56.52698516845703,-19.342124938964844
0.02816944010555744,-0.12337750196456909,9.630258560180664,0.0034229976195586987,0.012242078195822388,0.0007421378864821609,4.169990062713623,2019-08-06 15:40:37:787,-43.29682560211608,-179.3537179317139,0,-47.53064727783203,56.52698516845703,-19.342124938964844
0.03295893967151642,-0.13774600625038147,9.594337463378906,-0.0011054818095324445,0.012242078195822388,0.0028731869722145387,4.179996490478516,2019-08-06 15:40:37:797,-46.03383092863058,-179.34957165533118,0,-47.53064727783203,56.52698516845703,-19.342124938964844
0.04014318808913231,-0.044350765645504,9.625469207763672,0.0002264239747054862,0.014639508864274061,0.0010085190140713856,4.1899895668029785,2019-08-06 15:40:37:807,-48.71658964970597,-179.35742733362807,0,-47.53064727783203,56.52698516845703,-19.342124938964844
0.006616693455725908,-0.12816700339317322,9.623074531555176,0.0004928051185493561,0.013041222098738713,0.001541281334268416,4.199991941452026,2019-08-06 15:40:37:817,-51.34879430839482,-179.35529433931225,0,-47.53064727783203,56.52698516845703,-19.342124938964844
0.011406192556023598,-0.06829825788736343,9.651811599731445,0.0026238542367910244,0.012242078195822388,-0.001655292456876604,4.209995269775391,2019-08-06 15:40:37:827,-53.92734041572196,-179.36155362800775,0,-47.53064727783203,56.52698516845703,-19.342124938964844
0.04014318808913231,-0.08027201145887375,9.611100196838379,0.0012919485988449018,0.009311885272192268,0.0031395680998037635,4.219987154006958,2019-08-06 15:40:37:837,-56.44923179676578,-179.3654769173721,0,-47.380706787109375,56.377044677734375,-20.091819763183594
-0.0005675556603819132,-0.10421950370073318,9.682943344116211,0.0004928051185493561,0.011442934292906064,-0.0019216735844658289,4.230000734329224,2019-08-06 15:40:37:847,-51.72674824513381,-179.3661112160989,0,-47.380706787109375,56.377044677734375,-20.091819763183594
0.059301186352968216,-0.12098275125026703,9.613494873046875,-0.0008391006169246387,0.015971413982071532,-0.007515677783988195,4.239986181259155,2019-08-06 15:40:37:857,-54.29409962478399,-179.3638983044613,0,-47.380706787109375,56.377044677734375,-20.091819763183594
0.03295893967151642,-0.09464050829410553,9.709284782409668,0.0020910919816125757,0.011709315940643939,-0.0032535792224119516,4.249990224838257,2019-08-06 15:40:37:867,-56.810905169113724,-179.36662558790783,0,-47.380706787109375,56.377044677734375,-20.091819763183594
0.013800942339003086,-0.0635087639093399,9.663784980773926,-0.004302055340603139,0.01064379143028704,-0.005651009370714973,4.259989261627197,2019-08-06 15:40:37:877,-59.27902647274168,-179.36934705515586,0,-47.380706787109375,56.377044677734375,-20.091819763183594
0.044932689517736435,-0.10661425441503525,9.666179656982422,-0.003502911957835466,0.016504176237249982,-0.003519960350001176,4.2699854373931885,2019-08-06 15:40:37:887,-61.697382786386065,-179.36735548894515,0,-47.380706787109375,56.377044677734375,-20.091819763183594
0.05690643563866615,-0.04674551263451576,9.687732696533203,0.0012919485988449018,0.014373127216536186,0.00047575672638364575,4.2799975872039795,2019-08-06 15:40:37:897,-64.06478431470285,-179.3752054276077,0,-47.380706787109375,56.377044677734375,-20.091819763183594
-0.010146554559469223,-0.08266676217317581,9.678153038024902,-0.0011054818095324445,0.016504176237249982,0.0018076624618576407,4.2899932861328125,2019-08-06 15:40:37:907,-59.193953090041845,-179.37729316266334,0,-47.380706787109375,56.377044677734375,-20.091819763183594
-0.04127829894423485,-0.15929874777793884,9.601521492004395,-0.0005727194893354142,0.0183688436102259,-0.004052722605179625,4.300000429153442,2019-08-06 15:40:37:917,-54.42532189915268,-179.3704153584261,0,-47.380706787109375,56.377044677734375,-20.091819763183594
0.013800942339003086,0.07778146862983704,9.642231941223145,0.0031566164919694735,0.019167987513142228,-0.000856149009090349,4.309984445571899,2019-08-06 15:40:37:927,-56.94592090753013,-172.19402026752573,0,-47.380706787109375,56.377044677734375,-20.091819763183594
-0.11791028827428818,-0.049140263348817825,9.79310131072998,-0.012293489688428529,0.012242078195822388,0.0007421378864821609,4.319985389709473,2019-08-06 15:40:37:937,-52.22767336348207,-172.33748645429884,0,-47.380706787109375,56.377044677734375,-20.091819763183594
-0.19933177530765533,-0.2981942296028137,9.785917282104492,-0.013891776453963873,0.00824636128198402,0.005004236253002661,4.329998731613159,2019-08-06 15:40:37:947,-47.61109460597465,-172.4480188287779,0,-47.380706787109375,56.377044677734375,-20.091819763183594
-0.2017265260219574,-0.20958849787712097,9.874523162841797,-0.009896059019976856,0.01064379143028704,0.0023404247170360896,4.339998722076416,2019-08-06 15:40:37:957,-43.08825582381665,-172.56918322453885,0,-48.730159759521484,55.627349853515625,-19.042245864868164
-0.12030503898859024,-0.06829825788736343,9.766758918762207,-0.0024373874474785677,0.007979980154394795,0.004205092610160662,4.349997043609619,2019-08-06 15:40:37:967,-38.64508515505982,-172.7084180235511,0,-48.730159759521484,55.627349853515625,-19.042245864868164
-0.13946303725242615,-0.1353512555360794,9.75239086151123,-0.005633960978549262,0.008512742409573244,0.004737855125413436,4.359989166259766,2019-08-06 15:40:37:977,-34.29334550810498,-172.83518580799714,0,-48.730159759521484,55.627349853515625,-19.042245864868164
-0.18496328592300415,-0.0706930086016655,9.709284782409668,-0.0005727194893354142,0.010111029175108591,0.0020740435894468653,4.369998931884766,2019-08-06 15:40:37:987,-30.034988689666765,-172.96981696728295,0,-48.730159759521484,55.627349853515625,-19.042245864868164
-0.1298840343952179,-0.044350765645504,9.670969009399414,-0.003502911957835466,0.014905889471714633,0.005270617380591885,4.379988670349121,2019-08-06 15:40:37:997,-25.858039031222557,-173.10320066924143,0,-48.730159759521484,55.627349853515625,-19.042245864868164
-0.13946303725242615,-0.16408824920654297,9.668574333190918,-0.004035674213013915,0.01357398435391716,-0.004585484860358075,4.389994382858276,2019-08-06 15:40:38:007,-21.76503233585884,-173.21942352849305,0,-48.730159759521484,55.627349853515625,-19.042245864868164
-0.17059478163719177,-0.041956014931201935,9.680547714233398,-0.0005727194893354142,0.0047834061031754496,-0.009113964549523543,4.399996757507324,2019-08-06 15:40:38:017,-17.75260993107839,-173.34974697158455,0,-48.730159759521484,55.627349853515625,-19.042245864868164
-0.0771995484828949,-0.022798016667366028,9.649415969848633,0.006885952538292944,0.0194343681205828,-0.007515677783988195,4.409985542297363,2019-08-06 15:40:38:027,-13.817625495616978,-173.48390677729066,0,-48.730159759521484,55.627349853515625,-19.042245864868164
-0.19214753806591034,-0.05153501406311989,9.70210075378418,-0.005101198723370813,0.012774840451000838,-0.018970066790473503,4.4200005531311035,2019-08-06 15:40:38:037,-9.971148397177306,-173.60527328026166,0,-48.730159759521484,55.627349853515625,-19.042245864868164
-0.0508572980761528,-0.03956126421689987,9.565600395202637,0.004754903517579147,0.016770557884987856,-0.022965784224460523,4.429986238479614,2019-08-06 15:40:38:047,-6.1872210115606965,-173.73109463148333,0,-48.730159759521484,55.627349853515625,-19.042245864868164
0.059301186352968216,-0.09703525900840759,9.656600952148438,-3.9957173202045016e-05,0.015172271119452508,-0.019769210693389827,4.439995765686035,2019-08-06 15:40:38:057,-9.664966938173617,-173.84493582900032,0,-48.730159759521484,55.627349853515625,-19.042245864868164
0.0473274365067482,-0.14493025839328766,9.668574333190918,-0.006965867136644035,0.01810246300278533,-0.021633879106663048,4.449988842010498,2019-08-06 15:40:38:067,-13.076215885997483,-173.9469527052688,0,-48.730159759521484,55.627349853515625,-19.042245864868164
0.12874892354011536,-0.2407202422618866,9.611100196838379,-0.004568436468192365,0.014373127216536186,-0.019769210693389827,4.459995269775391,2019-08-06 15:40:38:077,-16.40741764394183,-174.03675215397888,0,-48.730159759521484,55.627349853515625,-19.042245864868164
0.06169593706727028,-0.06829825788736343,9.658995628356934,0.001824710854023351,0.011176553685465489,-0.014441587101308034,4.469993591308594,2019-08-06 15:40:38:087,-19.67822452759109,-174.1489389368299,0,-47.230770111083984,55.02759552001953,-19.042245864868164
-0.08917329460382462,-0.2742467224597931,9.575179100036621,-0.002970149702657017,0.013041222098738713,-0.014441587101308034,4.480026960372925,2019-08-06 15:40:38:097,-15.702678662117822,-174.2314751789242,0,-47.230770111083984,55.02759552001953,-19.042245864868164
