ACCELEROMETER X (m/s²),ACCELEROMETER Y (m/s²),ACCELEROMETER Z (m/s²),GYROSCOPE X (rad/s),GYROSCOPE Y (rad/s),GYROSCOPE Z (rad/s),Time since start in ms ,YYYY-MO-DD HH-MI-SS_SSS,Pitch (Deg),Roll (Deg),Heading (Deg),MagX,MagY,MagZ
-0.03169930353760719,0.33162492513656616,9.606310844421387,0.0012919485988449018,0.014373127216536186,0.003938711482571438,0.0,2019-08-06 14:46:39:935,3.596218673862712,3.560456898945706,0,-47.53064727783203,18.14261245727539,-36.735042572021484
-0.04846255108714104,0.2573876976966858,9.678153038024902,-0.0003063383292368989,0.012242078195822388,0.003405949227392988,0.009994029998779297,2019-08-06 14:46:39:945,7.111686464254303,7.058951552941636,0,-47.53064727783203,18.14261245727539,-36.735042572021484
-0.060436297208070755,0.2621771991252899,9.651811599731445,-0.0011054818095324445,0.008512742409573244,0.003405949227392988,0.020010948181152344,2019-08-06 14:46:39:955,10.557489522706096,10.487274847335938,0,-47.53064727783203,18.14261245727539,-36.735042572021484
-0.07959429919719696,0.3100721836090088,9.618284225463867,0.0023574731092018,0.00824636128198402,0.0023404247170360896,0.030007362365722656,2019-08-06 14:46:39:965,13.932228479818109,13.839277115702671,0,-47.53064727783203,18.14261245727539,-36.735042572021484
-0.06522579491138458,0.2837299406528473,9.627863883972168,0.001824710854023351,0.011709315940643939,0.0113973838352927,0.0399937629699707,2019-08-06 14:46:39:975,17.239254982205935,17.1277084142744,0,-47.53064727783203,18.14261245727539,-36.735042572021484
-0.046067800372838974,0.2693614363670349,9.577573776245117,0.003955759874737148,0.01357398435391716,0.005004236253002661,0.05000710487365723,2019-08-06 14:46:39:985,20.481326167860182,20.350710682219308,0,-47.53064727783203,18.14261245727539,-36.735042572021484
-0.06522579491138458,0.3028879463672638,9.639837265014648,0.0004928051185493561,0.01570503337463096,0.006336141890948784,0.06000185012817383,2019-08-06 14:46:39:995,23.65513246117058,23.507426572009106,0,-47.53064727783203,18.14261245727539,-36.735042572021484
-0.04127829894423485,0.3148616850376129,9.594337463378906,0.00555404690034682,0.013041222098738713,0.003405949227392988,0.06996369361877441,2019-08-06 14:46:40:005,26.769805012476358,26.596578814904188,0,-47.53064727783203,18.14261245727539,-36.735042572021484
-0.026909802109003067,0.32683542370796204,9.64462661743164,-0.0003063383292368989,0.009311885272192268,0.00553699850818111,0.07999014854431152,2019-08-06 14:46:40:015,29.82596921913956,29.626001969344447,0,-47.53064727783203,18.14261245727539,-36.735042572021484
-0.07241004705429077,0.29330894351005554,9.608705520629883,-0.0008391006169246387,0.01064379143028704,0.0018076624618576407,0.08999490737915039,2019-08-06 14:46:40:025,32.814835197892286,32.59898471061668,0,-47.53064727783203,18.14261245727539,-36.735042572021484
-0.03169930353760719,0.29809844493865967,9.551231384277344,-0.0013718629371216693,0.009311885272192268,-0.0005897678815011245,0.10000801086425781,2019-08-06 14:46:40:035,35.74949989982376,35.51202336375874,0,-47.53064727783203,18.14261245727539,-36.735042572021484
-0.053252048790454865,0.29330894351005554,9.658995628356934,-0.0019046251923001184,0.014639508864274061,0.00020937558253977584,0.11034417152404785,2019-08-06 14:46:40:045,38.61969590468297,38.368101647898236,0,-47.230770111083984,17.242979049682617,-36.43516540527344
-0.024515053257346153,0.2813352048397064,9.599126815795898,-0.0019046251923001184,0.010377409782549165,0.003938711482571438,0.11995434761047363,2019-08-06 14:46:40:055,41.43877570291635,41.1681920100833,0,-47.230770111083984,17.242979049682617,-36.43516540527344
-0.017330802977085114,0.3076774477958679,9.656600952148438,0.0007591862786478714,0.015438651726893083,-0.0021880547120550534,0.12994813919067383,2019-08-06 14:46:40:065,44.19928020434905,43.907903476541115,0,-47.230770111083984,17.242979049682617,-36.43516540527344
-0.02212030254304409,0.29330894351005554,9.649415969848633,-3.9957173202045016e-05,0.016770557884987856,0.0018076624618576407,0.13994979858398438,2019-08-06 14:46:40:075,46.90324950215306,46.59494668915797,0,-47.230770111083984,17.242979049682617,-36.43516540527344
-0.04846255108714104,0.28612470626831055,9.692522048950195,0.0020910919816125757,0.013041222098738713,-0.0019216735844658289,0.1499478816986084,2019-08-06 14:46:40:085,49.55213376409993,49.2280560559515,0,-47.230770111083984,17.242979049682617,-36.43516540527344
-0.010146554559469223,0.3483881950378418,9.627863883972168,-0.0005727194893354142,0.012508459843560263,0.0023404247170360896,0.15995573997497559,2019-08-06 14:46:40:095,52.15285443629283,51.80236942797852,0,-47.230770111083984,17.242979049682617,-36.43516540527344
-0.02930455282330513,0.27415093779563904,9.63265323638916,-0.0016382440647108938,0.014373127216536186,0.0012749002066791914,0.16994762420654297,2019-08-06 14:46:40:105,54.698247301044404,54.33463653902775,0,-47.230770111083984,17.242979049682617,-36.43516540527344
-0.053252048790454865,0.25978243350982666,9.584757804870605,0.00555404690034682,0.011442934292906064,-0.0013889113292873795,0.17995095252990723,2019-08-06 14:46:40:115,57.1914884864498,56.81377322609267,0,-47.230770111083984,17.242979049682617,-36.43516540527344
-0.04127829894423485,0.2885194420814514,9.59194278717041,-0.004302055340603139,0.009045504664751694,0.00020937558253977584,0.18995046615600586,2019-08-06 14:46:40:125,59.63764858277724,59.245455231332606,0,-47.230770111083984,17.242979049682617,-36.43516540527344
-0.07959429919719696,0.2502034604549408,9.577573776245117,-0.002171006319889343,0.013307602706179285,0.004205092610160662,0.19994902610778809,2019-08-06 14:46:40:135,62.027901589332416,61.631836005396,0,-47.230770111083984,17.242979049682617,-36.43516540527344
-0.02212030254304409,0.2813352048397064,9.565600395202637,0.0023574731092018,0.011176553685465489,-0.0021880547120550534,0.20996356010437012,2019-08-06 14:46:40:145,64.37840890957182,63.964180673243405,0,-47.230770111083984,17.242979049682617,-36.43516540527344
-0.012541304342448711,0.2909142076969147,9.58236312866211,-0.002703768575067792,0.01410674660909561,-0.0019216735844658289,0.21995210647583008,2019-08-06 14:46:40:155,66.68142912227779,66.25163492617449,0,-47.230770111083984,17.242979049682617,-36.43516540527344
-0.010146554559469223,0.30528268218040466,9.63265323638916,-3.9957173202045016e-05,0.01410674660909561,-0.000856149009090349,0.2299501895904541,2019-08-06 14:46:40:165,68.9386740895026,68.4903199026189,0,-47.230770111083984,17.242979049682617,-36.43516540527344
-0.03169930353760719,0.3412039279937744,9.589548110961914,-0.0005727194893354142,0.017036938492428433,-0.0027208169672335025,0.23995208740234375,2019-08-06 14:46:40:175,71.14654463851679,70.68007973020256,0,-47.230770111083984,17.242979049682617,-36.43516540527344
-0.053252048790454865,0.30049318075180054,9.599126815795898,0.002890235364380249,0.013041222098738713,-0.0027208169672335025,0.24997901916503906,2019-08-06 14:46:40:185,73.30991438805395,72.8289906183607,0,-47.230770111083984,17.242979049682617,-36.43516540527344
-0.04846255108714104,0.31246694922447205,9.625469207763672,-0.0011054818095324445,0.011709315940643939,-0.001122530201698155,0.25995588302612305,2019-08-06 14:46:40:195,75.4313871113103,74.93584385189874,0,-47.230770111083984,17.242979049682617,-36.43516540527344
-0.07001529633998871,0.30049318075180054,9.606310844421387,-0.0003063383292368989,0.01357398435391716,0.00047575672638364575,0.26994991302490234,2019-08-06 14:46:40:205,77.50679032346258,77.00146539780673,0,-47.230770111083984,17.242979049682617,-36.43516540527344
-0.010146554559469223,0.2957036793231964,9.649415969848633,0.0023574731092018,0.012508459843560263,0.0018076624618576407,0.279951810836792,2019-08-06 14:46:40:215,79.54842474808936,79.02500684122884,0,-47.230770111083984,17.242979049682617,-36.43516540527344
-0.046067800372838974,0.3100721836090088,9.635047912597656,-0.0005727194893354142,0.010377409782549165,-0.0032535792224119516,0.2899506092071533,2019-08-06 14:46:40:225,81.54615115760586,81.00796346268771,0,-47.230770111083984,17.242979049682617,-36.43516540527344
-0.05804154649376869,0.30049318075180054,9.668574333190918,-0.0011054818095324445,0.011176553685465489,-0.0019216735844658289,0.29992032051086426,2019-08-06 14:46:40:235,83.50209254439436,82.95282016772768,0,-47.230770111083984,17.242979049682617,-36.43516540527344
-0.046067800372838974,0.2765457034111023,9.587152481079102,0.0015583297264341264,0.015172271119452508,0.003672330354982212,0.3099813461303711,2019-08-06 14:46:40:245,85.41797322968434,84.85983813981622,0,-47.230770111083984,17.242979049682617,-36.43516540527344
-0.03409405052661896,0.31725645065307617,9.654206275939941,0.003689378747147923,0.013041222098738713,0.004471473997824211,0.3199470043182373,2019-08-06 14:46:40:255,87.29826947353854,86.72293338759636,0,-47.230770111083984,17.242979049682617,-36.43516540527344
0.00901144277304411,0.2813352048397064,9.639837265014648,0.0004928051185493561,0.012774840451000838,0.0010085190140713856,0.3299598693847656,2019-08-06 14:46:40:265,81.94619301654545,88.55476400769633,0,-47.230770111083984,17.242979049682617,-36.43516540527344
-0.0149360541254282,0.29330894351005554,9.635047912597656,-0.005900342106138487,0.015172271119452508,-0.000856149009090349,0.3399631977081299,2019-08-06 14:46:40:275,83.8969707376807,90.35210981254836,0,-47.230770111083984,17.242979049682617,-36.43516540527344
-0.0149360541254282,0.29330894351005554,9.599126815795898,-0.0013718629371216693,0.014905889471714633,0.0012749002066791914,0.3499751091003418,2019-08-06 14:46:40:285,85.80886869599763,92.11083536308236,0,-47.230770111083984,17.242979049682617,-36.43516540527344
-0.03409405052661896,0.31725645065307617,9.635047912597656,0.0007591862786478714,0.010111029175108591,-0.001122530201698155,0.35996174812316895,2019-08-06 14:46:40:295,87.68296672147339,93.83047462433521,0,-45.731380462646484,18.14261245727539,-37.03491973876953
-0.02930455282330513,0.2837299406528473,9.594337463378906,0.0023574731092018,0.011176553685465489,-0.0013889113292873795,0.37012648582458496,2019-08-06 14:46:40:305,89.51942835730961,95.5186417253195,0,-45.731380462646484,18.14261245727539,-37.03491973876953
-0.02930455282330513,0.31725645065307617,9.594337463378906,0.0026238542367910244,0.011709315940643939,0.0010085190140713856,0.3799757957458496,2019-08-06 14:46:40:315,91.31906407344904,97.16893955317487,0,-45.731380462646484,18.14261245727539,-37.03491973876953
-0.02212030254304409,0.2621771991252899,9.594337463378906,0.0010255674062370958,0.010111029175108591,0.0026068058446253144,0.3899376392364502,2019-08-06 14:46:40:325,93.08438515526264,98.7936813272348,0,-45.731380462646484,18.14261245727539,-37.03491973876953
-0.0508572980761528,0.2813352048397064,9.63265323638916,-0.0013718629371216693,0.014373127216536186,0.0007421378864821609,0.4001021385192871,2019-08-06 14:46:40:335,94.80844419376805,100.38513210383726,0,-45.731380462646484,18.14261245727539,-37.03491973876953
-0.024515053257346153,0.30049318075180054,9.639837265014648,0.0031566164919694735,0.011176553685465489,-0.0003233867214026093,0.4099416732788086,2019-08-06 14:46:40:345,96.50318622244188,101.93997652898983,0,-45.731380462646484,18.14261245727539,-37.03491973876953
-0.03409405052661896,0.2765457034111023,9.60391616821289,-0.0013718629371216693,0.012242078195822388,-0.0021880547120550534,0.4200732707977295,2019-08-06 14:46:40:355,98.1620901278606,103.46896979856668,0,-45.731380462646484,18.14261245727539,-37.03491973876953
-0.03409405052661896,0.2693614363670349,9.579968452453613,0.0010255674062370958,0.011709315940643939,-0.001655292456876604,0.4299476146697998,2019-08-06 14:46:40:365,99.78827800637632,104.96681038687551,0,-45.731380462646484,18.14261245727539,-37.03491973876953
-0.024515053257346153,0.29330894351005554,9.625469207763672,0.0015583297264341264,0.015438651726893083,-0.0027208169672335025,0.43996620178222656,2019-08-06 14:46:40:375,101.38090903190444,106.43168981883257,0,-45.731380462646484,18.14261245727539,-37.03491973876953
-0.060436297208070755,0.2837299406528473,9.647021293640137,-0.0016382440647108938,0.010910172037727614,0.0010085190140713856,0.4499683380126953,2019-08-06 14:46:40:385,102.93998470074906,107.87028311410376,0,-45.731380462646484,18.14261245727539,-37.03491973876953
-0.060436297208070755,0.30528268218040466,9.649415969848633,0.0023574731092018,0.011709315940643939,0.0028731869722145387,0.4601285457611084,2019-08-06 14:46:40:395,104.46732789533895,109.27529079592823,0,-45.731380462646484,18.14261245727539,-37.03491973876953
-0.06762054562568665,0.3340196907520294,9.67336368560791,0.004488522389989922,0.007713599026805571,0.0010085190140713856,0.47008419036865234,2019-08-06 14:46:40:405,105.96565911140135,110.64772329347278,0,-45.731380462646484,18.14261245727539,-37.03491973876953
-0.026909802109003067,0.3028879463672638,9.577573776245117,-0.0003063383292368989,0.010910172037727614,-0.0032535792224119516,0.4799501895904541,2019-08-06 14:46:40:415,107.43708233808469,111.99871136258095,0,-45.731380462646484,18.14261245727539,-37.03491973876953
-0.02930455282330513,0.2813352048397064,9.623074531555176,0.0002264239747054862,0.011442934292906064,-0.0013889113292873795,0.489957332611084,2019-08-06 14:46:40:425,108.87842133477795,113.32511805502592,0,-45.731380462646484,18.14261245727539,-37.03491973876953
-0.02930455282330513,0.30049318075180054,9.575179100036621,0.0026238542367910244,0.009844647527370716,-0.0005897678815011245,0.49996066093444824,2019-08-06 14:46:40:435,110.29181628220732,114.62119200109827,0,-45.731380462646484,18.14261245727539,-37.03491973876953
-0.03409405052661896,0.2909142076969147,9.594337463378906,-0.0003063383292368989,0.00824636128198402,0.00047575672638364575,0.5099620819091797,2019-08-06 14:46:40:445,111.67727691569858,115.89420501616024,0,-45.731380462646484,18.14261245727539,-37.03491973876953
-0.05564679950475693,0.2909142076969147,9.642231941223145,-0.0016382440647108938,0.01410674660909561,-0.001122530201698155,0.51995849609375,2019-08-06 14:46:40:455,113.02920011743694,117.14267771008102,0,-45.731380462646484,18.14261245727539,-37.03491973876953
-0.03648880124092102,0.30049318075180054,9.601521492004395,0.0004928051185493561,0.012774840451000838,0.0007421378864821609,0.5299651622772217,2019-08-06 14:46:40:465,114.35708345921212,118.3636959165902,0,-45.731380462646484,18.14261245727539,-37.03491973876953
-0.005357054993510246,0.27175620198249817,9.687732696533203,0.002890235364380249,0.012242078195822388,0.003672330354982212,0.5399556159973145,2019-08-06 14:46:40:475,115.66244078144453,119.5626643697045,0,-45.731380462646484,18.14261245727539,-37.03491973876953
-0.03169930353760719,0.29809844493865967,9.658995628356934,0.0010255674062370958,0.010377409782549165,0.004205092610160662,0.5499610900878906,2019-08-06 14:46:40:485,116.9396011735217,120.73548058814957,0,-45.731380462646484,18.14261245727539,-37.03491973876953
-0.038883551955223083,0.30049318075180054,9.64462661743164,0.0004928051185493561,0.012508459843560263,0.0018076624618576407,0.5599617958068848,2019-08-06 14:46:40:495,118.18916529023886,121.88480303007826,0,-45.731380462646484,18.14261245727539,-37.03491973876953
-0.019725553691387177,0.33162492513656616,9.637442588806152,-0.0011054818095324445,0.008779123017013819,-0.0013889113292873795,0.5699589252471924,2019-08-06 14:46:40:505,119.41810852034061,123.00831205160554,0,-45.731380462646484,18.14261245727539,-37.03491973876953
-0.053252048790454865,0.2645719349384308,9.587152481079102,-3.9957173202045016e-05,0.009844647527370716,0.0007421378864821609,0.5799753665924072,2019-08-06 14:46:40:515,120.61784455754025,124.11655303811496,0,-45.731380462646484,18.14261245727539,-37.03491973876953
-0.038883551955223083,0.2765457034111023,9.625469207763672,-0.0013718629371216693,0.011442934292906064,0.0007421378864821609,0.5899553298950195,2019-08-06 14:46:40:525,121.79444627257564,125.2020769213222,0,-45.731380462646484,18.14261245727539,-37.03491973876953
-0.02212030254304409,0.29330894351005554,9.596732139587402,-0.0003063383292368989,0.012508459843560263,0.0026068058446253144,0.5999603271484375,2019-08-06 14:46:40:535,122.9488890430795,126.26319527849196,0,-45.731380462646484,18.14261245727539,-37.03491973876953
-0.02930455282330513,0.3100721836090088,9.608705520629883,0.0020910919816125757,0.011975696548084513,0.0023404247170360896,0.6099607944488525,2019-08-06 14:46:40:545,124.07969181735736,127.29979139317882,0,-47.83052444458008,17.542856216430664,-37.03491973876953
-0.04367304965853691,0.2837299406528473,9.601521492004395,-0.002171006319889343,0.009311885272192268,0.003405949227392988,0.6199545860290527,2019-08-06 14:46:40:555,125.18766039197284,128.3211612769127,0,-47.83052444458008,17.542856216430664,-37.03491973876953
-0.0029623054433614016,0.31246694922447205,9.556020736694336,-3.9957173202045016e-05,0.013840364961357736,-0.0005897678815011245,0.6299877166748047,2019-08-06 14:46:40:565,126.27575486456116,129.31730425747702,0,-47.83052444458008,17.542856216430664,-37.03491973876953
-0.05564679950475693,0.2957036793231964,9.656600952148438,0.0012919485988449018,0.010910172037727614,-0.001122530201698155,0.6399598121643066,2019-08-06 14:46:40:575,127.33752747392043,130.29515559347425,0,-47.83052444458008,17.542856216430664,-37.03491973876953
-0.03169930353760719,0.32683542370796204,9.565600395202637,-0.0008391006169246387,0.017836082395344753,0.0023404247170360896,0.6500022411346436,2019-08-06 14:46:40:585,128.3769220770568,131.2505874572135,0,-47.83052444458008,17.542856216430664,-37.03491973876953
-0.02930455282330513,0.3100721836090088,9.623074531555176,-0.0008391006169246387,0.011176553685465489,0.0007421378864821609,0.6599545478820801,2019-08-06 14:46:40:595,129.39964837131862,132.18913399373767,0,-47.83052444458008,17.542856216430664,-37.03491973876953
-0.024515053257346153,0.27415093779563904,9.579968452453613,0.0010255674062370958,0.009311885272192268,-0.000856149009090349,0.6699576377868652,2019-08-06 14:46:40:605,130.40349279608608,133.11199144484772,0,-47.83052444458008,17.542856216430664,-37.03491973876953
-0.06522579491138458,0.27175620198249817,9.606310844421387,0.0012919485988449018,0.013307602706179285,-0.0013889113292873795,0.6799542903900146,2019-08-06 14:46:40:615,131.38017271923846,134.0166178781935,0,-47.83052444458008,17.542856216430664,-37.03491973876953
-0.038883551955223083,0.30049318075180054,9.658995628356934,-0.0003063383292368989,0.011442934292906064,-5.7005565367755386e-05,0.689960241317749,2019-08-06 14:46:40:625,132.3415272408621,134.90081947523632,0,-47.83052444458008,17.542856216430664,-37.03491973876953
-0.02212030254304409,0.2813352048397064,9.608705520629883,-0.0024373874474785677,0.008779123017013819,0.004471473997824211,0.6999578475952148,2019-08-06 14:46:40:635,133.28713039066204,135.77062943946103,0,-47.83052444458008,17.542856216430664,-37.03491973876953
-0.053252048790454865,0.25259819626808167,9.594337463378906,-0.0003063383292368989,0.015172271119452508,0.006336141890948784,0.7099604606628418,2019-08-06 14:46:40:645,134.20650616577322,136.62522638792734,0,-47.83052444458008,17.542856216430664,-37.03491973876953
-0.07001529633998871,0.3148616850376129,9.613494873046875,-0.0019046251923001184,0.01357398435391716,0.003672330354982212,0.719968318939209,2019-08-06 14:46:40:655,135.10640269821357,137.45627446909256,0,-47.83052444458008,17.542856216430664,-37.03491973876953
-0.05564679950475693,0.31246694922447205,9.613494873046875,-0.0013718629371216693,0.013041222098738713,-0.003786341477590401,0.7299473285675049,2019-08-06 14:46:40:665,135.99033443707626,138.27068513178406,0,-47.83052444458008,17.542856216430664,-37.03491973876953
-0.06762054562568665,0.29809844493865967,9.551231384277344,0.0023574731092018,0.011176553685465489,0.004471473997824211,0.7399585247039795,2019-08-06 14:46:40:675,136.8561324161995,139.06819326797446,0,-47.83052444458008,17.542856216430664,-37.03491973876953
-0.08677854388952255,0.2765457034111023,9.649415969848633,-0.0024373874474785677,0.010377409782549165,0.0020740435894468653,0.7499592304229736,2019-08-06 14:46:40:685,137.70287735424014,139.85536591395265,0,-47.83052444458008,17.542856216430664,-37.03491973876953
-0.017330802977085114,0.2885194420814514,9.627863883972168,0.0015583297264341264,0.012508459843560263,-0.0005897678815011245,0.7599532604217529,2019-08-06 14:46:40:695,138.5397377940363,140.62305459118724,0,-47.83052444458008,17.542856216430664,-37.03491973876953
-0.024515053257346153,0.31246694922447205,9.608705520629883,-0.0019046251923001184,0.009844647527370716,-0.0003233867214026093,0.7699587345123291,2019-08-06 14:46:40:705,139.36048864464533,141.37441245395593,0,-47.83052444458008,17.542856216430664,-37.03491973876953
-0.03648880124092102,0.2885194420814514,9.570389747619629,-0.0016382440647108938,0.009844647527370716,-0.0024544358396442778,0.7799513339996338,2019-08-06 14:46:40:715,140.16338622197475,142.1133078305773,0,-47.83052444458008,17.542856216430664,-37.03491973876953
-0.03648880124092102,0.31246694922447205,9.637442588806152,-0.002970149702657017,0.011975696548084513,-0.001122530201698155,0.7899594306945801,2019-08-06 14:46:40:725,140.94905012838765,142.83557068192889,0,-47.83052444458008,17.542856216430664,-37.03491973876953
-0.053252048790454865,0.2765457034111023,9.608705520629883,0.003689378747147923,0.014639508864274061,-0.000856149009090349,0.7999587059020996,2019-08-06 14:46:40:735,141.71549898622695,143.54381663457386,0,-47.83052444458008,17.542856216430664,-37.03491973876953
-0.03648880124092102,0.29809844493865967,9.611100196838379,0.0007591862786478714,0.0074472173790676955,-0.0013889113292873795,0.8099615573883057,2019-08-06 14:46:40:745,142.4726557331423,144.2369835038468,0,-47.83052444458008,17.542856216430664,-37.03491973876953
-0.038883551955223083,0.3148616850376129,9.630258560180664,-0.0016382440647108938,0.014639508864274061,-0.0013889113292873795,0.8201322555541992,2019-08-06 14:46:40:755,143.21021546556312,144.9157269933301,0,-47.83052444458008,17.542856216430664,-37.03491973876953
-0.02212030254304409,0.2813352048397064,9.627863883972168,-0.0019046251923001184,0.010377409782549165,0.0007421378864821609,0.8299415111541748,2019-08-06 14:46:40:765,143.93766262927363,145.5849862970714,0,-47.83052444458008,17.542856216430664,-37.03491973876953
-0.06283104419708252,0.2909142076969147,9.613494873046875,0.0007591862786478714,0.009844647527370716,-0.005118247115536523,0.8399617671966553,2019-08-06 14:46:40:775,144.64588115457317,146.23819342436124,0,-47.83052444458008,17.542856216430664,-37.03491973876953
-0.007751804776489735,0.29809844493865967,9.584757804870605,0.0004928051185493561,0.013041222098738713,0.0028731869722145387,0.8499624729156494,2019-08-06 14:46:40:785,145.3447136114464,146.87752484494027,0,-47.83052444458008,17.542856216430664,-37.03491973876953
-0.019725553691387177,0.3028879463672638,9.599126815795898,0.0031566164919694735,0.011709315940643939,0.0012749002066791914,0.8599581718444824,2019-08-06 14:46:40:795,146.02889262670396,147.50205679317466,0,-46.33113479614258,19.342124938964844,-37.63467788696289
-0.04846255108714104,0.2765457034111023,9.647021293640137,0.001824710854023351,0.010377409782549165,0.00020937558253977584,0.8699753284454346,2019-08-06 14:46:40:805,146.69672132931748,148.11814900639345,0,-46.33113479614258,19.342124938964844,-37.63467788696289
-0.012541304342448711,0.25978243350982666,9.579968452453613,-0.0008391006169246387,0.007979980154394795,-0.0003233867214026093,0.8799655437469482,2019-08-06 14:46:40:815,147.3568104017154,148.72519024887404,0,-46.33113479614258,19.342124938964844,-37.63467788696289
-0.017330802977085114,0.3220459520816803,9.651811599731445,0.0004928051185493561,0.010910172037727614,-0.0013889113292873795,0.8899552822113037,2019-08-06 14:46:40:825,148.00149682817494,149.31218915044704,0,-46.33113479614258,19.342124938964844,-37.63467788696289
-0.05564679950475693,0.2837299406528473,9.611100196838379,0.0012919485988449018,0.014639508864274061,-0.0024544358396442778,0.899958610534668,2019-08-06 14:46:40:835,148.62660948961084,149.89140086878004,0,-46.33113479614258,19.342124938964844,-37.63467788696289
-0.053252048790454865,0.2765457034111023,9.579968452453613,0.0010255674062370958,0.014905889471714633,-0.003519960350001176,0.9099657535552979,2019-08-06 14:46:40:845,149.23933196390368,150.45992653363,0,-46.33113479614258,19.342124938964844,-37.63467788696289
-0.03648880124092102,0.31725645065307617,9.623074531555176,0.002890235364380249,0.01410674660909561,0.003405949227392988,0.9199509620666504,2019-08-06 14:46:40:855,149.8422910566651,151.01134232465395,0,-46.33113479614258,19.342124938964844,-37.63467788696289
-0.03409405052661896,0.29330894351005554,9.599126815795898,-0.0003063383292368989,0.011442934292906064,0.0007421378864821609,0.929950475692749,2019-08-06 14:46:40:865,150.43495032541523,151.55628400842886,0,-46.33113479614258,19.342124938964844,-37.63467788696289
-0.06283104419708252,0.2837299406528473,9.599126815795898,0.004488522389989922,0.011176553685465489,0.0010085190140713856,0.939957857131958,2019-08-06 14:46:40:875,151.01247058834903,152.08877517980522,0,-46.33113479614258,19.342124938964844,-37.63467788696289
-0.03648880124092102,0.2813352048397064,9.647021293640137,-0.0013718629371216693,0.011176553685465489,0.00020937558253977584,0.9499552249908447,2019-08-06 14:46:40:885,151.58161292920886,152.61436100942234,0,-46.33113479614258,19.342124938964844,-37.63467788696289
-0.03409405052661896,0.2813352048397064,9.635047912597656,-0.0016382440647108938,0.017303320140166306,0.003405949227392988,0.9599671363830566,2019-08-06 14:46:40:895,152.13619845010473,153.12954450035502,0,-46.33113479614258,19.342124938964844,-37.63467788696289
-0.012541304342448711,0.29809844493865967,9.589548110961914,-0.0013718629371216693,0.011709315940643939,0.001541281334268416,0.9699501991271973,2019-08-06 14:46:40:905,152.68541221327703,153.63211240877513,0,-46.33113479614258,19.342124938964844,-37.63467788696289
-0.04367304965853691,0.3292301893234253,9.627863883972168,0.0004928051185493561,0.011442934292906064,0.003938711482571438,0.9799540042877197,2019-08-06 14:46:40:915,153.22007836856994,154.12002338437057,0,-46.33113479614258,19.342124938964844,-37.63467788696289
-0.026909802109003067,0.3100721836090088,9.589548110961914,0.0007591862786478714,0.015438651726893083,0.006602523018538008,0.9899566173553467,2019-08-06 14:46:40:925,153.74379014050277,154.60015694707013,0,-46.33113479614258,19.342124938964844,-37.63467788696289
-0.05804154649376869,0.29809844493865967,9.613494873046875,0.005021284645168371,0.01064379143028704,-5.7005565367755386e-05,0.9999589920043945,2019-08-06 14:46:40:935,154.25601805428366,155.06981214447907,0,-46.33113479614258,19.342124938964844,-37.63467788696289
-0.060436297208070755,0.2957036793231964,9.635047912597656,0.005287665772757595,0.01357398435391716,0.006602523018538008,1.0099642276763916,2019-08-06 14:46:40:945,154.7560842130585,155.53028773334205,0,-46.33113479614258,19.342124938964844,-37.63467788696289
-0.060436297208070755,0.2957036793231964,9.64462661743164,-0.0024373874474785677,0.01357398435391716,0.005270617380591885,1.0203311443328857,2019-08-06 14:46:40:955,155.24588052199502,155.98597808303225,0,-46.33113479614258,19.342124938964844,-37.63467788696289
-0.060436297208070755,0.29809844493865967,9.62067985534668,0.0020910919816125757,0.013840364961357736,0.0018076624618576407,1.0299384593963623,2019-08-06 14:46:40:965,155.72629828438085,156.42963544482785,0,-46.33113479614258,19.342124938964844,-37.63467788696289
-0.04367304965853691,0.31725645065307617,9.615889549255371,-0.0003063383292368989,0.011442934292906064,0.00020937558253977584,1.0399620532989502,2019-08-06 14:46:40:975,156.2001275308496,156.86342173710838,0,-46.33113479614258,19.342124938964844,-37.63467788696289
0.016195692121982574,0.2765457034111023,9.606310844421387,-0.002703768575067792,0.008512742409573244,-0.0027208169672335025,1.049952745437622,2019-08-06 14:46:40:985,149.4732814825015,157.2946906343646,0,-46.33113479614258,19.342124938964844,-37.63467788696289
-0.02930455282330513,0.31725645065307617,9.59194278717041,-0.0005727194893354142,0.012774840451000838,0.00047575672638364575,1.0599641799926758,2019-08-06 14:46:40:995,150.0731336945259,157.7112310729193,0,-46.33113479614258,19.342124938964844,-37.63467788696289
-0.04367304965853691,0.31246694922447205,9.618284225463867,-0.0024373874474785677,0.01570503337463096,-0.0021880547120550534,1.0699667930603027,2019-08-06 14:46:41:005,150.65764722093402,158.12116139522846,0,-46.33113479614258,19.342124938964844,-37.63467788696289
-0.026909802109003067,0.25978243350982666,9.611100196838379,-0.0003063383292368989,0.01064379143028704,-0.003519960350001176,1.079955816268921,2019-08-06 14:46:41:015,151.2353159595199,158.52794409656448,0,-46.33113479614258,19.342124938964844,-37.63467788696289
-0.024515053257346153,0.2957036793231964,9.611100196838379,-0.0003063383292368989,0.014373127216536186,-0.0027208169672335025,1.0899548530578613,2019-08-06 14:46:41:025,151.79961704337458,158.92231206393427,0,-46.33113479614258,19.342124938964844,-37.63467788696289
-0.05564679950475693,0.31246694922447205,9.594337463378906,0.003955759874737148,0.010910172037727614,-0.002987198094822727,1.0999627113342285,2019-08-06 14:46:41:035,152.35084764857055,159.30433610195092,0,-46.33113479614258,19.342124938964844,-37.63467788696289
-0.026909802109003067,0.30049318075180054,9.642231941223145,-0.0016382440647108938,0.014639508864274061,-0.0003233867214026093,1.1099529266357422,2019-08-06 14:46:41:045,152.89242063040874,159.68346827599777,0,-46.93089294433594,18.44249153137207,-36.13528823852539
-0.02930455282330513,0.3028879463672638,9.611100196838379,0.001824710854023351,0.012774840451000838,0.0010085190140713856,1.11995530128479,2019-08-06 14:46:41:055,153.4239035363536,160.05267321342862,0,-46.93089294433594,18.44249153137207,-36.13528823852539
0.00422194367274642,0.2813352048397064,9.639837265014648,-0.004568436468192365,0.015971413982071532,0.0020740435894468653,1.1299588680267334,2019-08-06 14:46:41:065,146.74695621451517,160.42075218819446,0,-46.93089294433594,18.44249153137207,-36.13528823852539
-0.026909802109003067,0.22865070402622223,9.62067985534668,0.0010255674062370958,0.010910172037727614,-0.0013889113292873795,1.139955759048462,2019-08-06 14:46:41:075,147.40268773991014,160.78453209473136,0,-46.93089294433594,18.44249153137207,-36.13528823852539
-0.04367304965853691,0.27415093779563904,9.618284225463867,0.0026238542367910244,0.013840364961357736,0.00020937558253977584,1.149963140487671,2019-08-06 14:46:41:085,148.04165376211114,161.1347137665201,0,-46.93089294433594,18.44249153137207,-36.13528823852539
-0.07001529633998871,0.2885194420814514,9.663784980773926,0.0031566164919694735,0.012242078195822388,-0.0019216735844658289,1.1599476337432861,2019-08-06 14:46:41:095,148.66565528339976,161.47604780676542,0,-46.93089294433594,18.44249153137207,-36.13528823852539
-0.0508572980761528,0.30049318075180054,9.623074531555176,0.002890235364380249,0.011442934292906064,0.005004236253002661,1.1699426174163818,2019-08-06 14:46:41:105,149.2798641787716,161.80913370099978,0,-46.93089294433594,18.44249153137207,-36.13528823852539
-0.007751804776489735,0.29330894351005554,9.627863883972168,-0.004834817595781589,0.011176553685465489,0.0028731869722145387,1.1799569129943848,2019-08-06 14:46:41:115,149.88705967872247,162.14077059445742,0,-46.93089294433594,18.44249153137207,-36.13528823852539
-0.03409405052661896,0.27415093779563904,9.627863883972168,-0.0024373874474785677,0.010111029175108591,0.006336141890948784,1.189953088760376,2019-08-06 14:46:41:125,150.47958544463117,162.4667024129491,0,-46.93089294433594,18.44249153137207,-36.13528823852539
-0.06762054562568665,0.29809844493865967,9.594337463378906,0.001824710854023351,0.015172271119452508,0.0020740435894468653,1.1999671459197998,2019-08-06 14:46:41:135,151.0533863123898,162.7807499203543,0,-46.93089294433594,18.44249153137207,-36.13528823852539
-0.053252048790454865,0.2837299406528473,9.627863883972168,-0.002171006319889343,0.012508459843560263,0.005004236253002661,1.2099556922912598,2019-08-06 14:46:41:145,151.61896511318818,163.0925925630151,0,-46.93089294433594,18.44249153137207,-36.13528823852539
-0.053252048790454865,0.30049318075180054,9.649415969848633,0.0004928051185493561,0.014373127216536186,0.006336141890948784,1.219961404800415,2019-08-06 14:46:41:155,152.17218683085315,163.3947903302935,0,-46.93089294433594,18.44249153137207,-36.13528823852539
-0.0508572980761528,0.30049318075180054,9.615889549255371,0.0010255674062370958,0.011442934292906064,0.0023404247170360896,1.2299551963806152,2019-08-06 14:46:41:165,152.71626133624378,163.69052121526374,0,-46.93089294433594,18.44249153137207,-36.13528823852539
-0.04367304965853691,0.2957036793231964,9.639837265014648,-3.9957173202045016e-05,0.013041222098738713,0.0023404247170360896,1.239962100982666,2019-08-06 14:46:41:175,153.24941691771588,163.98159310208518,0,-46.93089294433594,18.44249153137207,-36.13528823852539
-0.0963575467467308,0.29330894351005554,9.635047912597656,-0.003502911957835466,0.01064379143028704,0.003672330354982212,1.2503249645233154,2019-08-06 14:46:41:185,153.766775626055,164.2691264395135,0,-46.93089294433594,18.44249153137207,-36.13528823852539
-0.017330802977085114,0.27415093779563904,9.613494873046875,0.0002264239747054862,0.008512742409573244,0.003405949227392988,1.2599420547485352,2019-08-06 14:46:41:195,154.2847774409971,164.55095207516865,0,-46.93089294433594,18.44249153137207,-36.13528823852539
-0.060436297208070755,0.2909142076969147,9.613494873046875,0.0007591862786478714,0.012508459843560263,0.0028731869722145387,1.2699739933013916,2019-08-06 14:46:41:205,154.7848321469982,164.8248393888921,0,-46.93089294433594,18.44249153137207,-36.13528823852539
-0.053252048790454865,0.2885194420814514,9.625469207763672,-0.0011054818095324445,0.011975696548084513,-0.001655292456876604,1.2799460887908936,2019-08-06 14:46:41:215,155.27609031968908,165.0946235331244,0,-46.93089294433594,18.44249153137207,-36.13528823852539
-0.046067800372838974,0.31246694922447205,9.623074531555176,0.0023574731092018,0.014373127216536186,0.005803379635770335,1.2899672985076904,2019-08-06 14:46:41:225,155.7569951934739,165.35420904524656,0,-46.93089294433594,18.44249153137207,-36.13528823852539
-0.0149360541254282,0.34359869360923767,9.639837265014648,-0.002703768575067792,0.012774840451000838,0.004471473997824211,1.2999866008758545,2019-08-06 14:46:41:235,156.23289289745387,165.60781866166826,0,-46.93089294433594,18.44249153137207,-36.13528823852539
-0.03169930353760719,0.31246694922447205,9.570389747619629,0.0004928051185493561,0.013041222098738713,0.0012749002066791914,1.3099520206451416,2019-08-06 14:46:41:245,156.69714221415708,165.8579864288171,0,-46.93089294433594,18.44249153137207,-36.13528823852539
-0.038883551955223083,0.3028879463672638,9.59194278717041,0.001824710854023351,0.01410674660909561,0.0012749002066791914,1.319955587387085,2019-08-06 14:46:41:255,157.15063037023103,166.10362882677825,0,-46.93089294433594,18.44249153137207,-36.13528823852539
-0.038883551955223083,0.3148616850376129,9.637442588806152,-3.9957173202045016e-05,0.01357398435391716,-0.000856149009090349,1.3299646377563477,2019-08-06 14:46:41:265,157.5953657663696,166.3441541904089,0,-46.93089294433594,18.44249153137207,-36.13528823852539
-0.05564679950475693,0.2885194420814514,9.637442588806152,-0.003502911957835466,0.009311885272192268,-0.0027208169672335025,1.339951753616333,2019-08-06 14:46:41:275,158.03162010916586,166.5849400258177,0,-46.93089294433594,18.44249153137207,-36.13528823852539
-0.04846255108714104,0.3292301893234253,9.642231941223145,0.0004928051185493561,0.012508459843560263,-0.000856149009090349,1.3499681949615479,2019-08-06 14:46:41:285,158.45819327059016,166.81385242190348,0,-46.93089294433594,18.44249153137207,-36.13528823852539
-0.0508572980761528,0.30528268218040466,9.608705520629883,-0.0005727194893354142,0.012508459843560263,0.0023404247170360896,1.359954595565796,2019-08-06 14:46:41:295,158.8759503873833,167.04150133936534,0,-47.68058776855469,18.592430114746094,-36.28522491455078
-0.03169930353760719,0.24780869483947754,9.618284225463867,-3.9957173202045016e-05,0.013041222098738713,-5.7005565367755386e-05,1.3699705600738525,2019-08-06 14:46:41:305,159.28732044199322,167.27117656142283,0,-47.68058776855469,18.592430114746094,-36.28522491455078
-0.04846255108714104,0.28612470626831055,9.67336368560791,-0.0008391006169246387,0.009578266919930143,-0.003519960350001176,1.3799643516540527,2019-08-06 14:46:41:315,159.69045831781332,167.49233917429905,0,-47.68058776855469,18.592430114746094,-36.28522491455078
-0.05804154649376869,0.2957036793231964,9.599126815795898,-0.0019046251923001184,0.011975696548084513,0.0018076624618576407,1.3899509906768799,2019-08-06 14:46:41:325,160.08300505345704,167.70827132877213,0,-47.68058776855469,18.592430114746094,-36.28522491455078
-0.026909802109003067,0.27175620198249817,9.62067985534668,0.0010255674062370958,0.010111029175108591,0.001541281334268416,1.3999481201171875,2019-08-06 14:46:41:335,160.47246404483965,167.92117003778537,0,-47.68058776855469,18.592430114746094,-36.28522491455078
-0.02212030254304409,0.3148616850376129,9.64462661743164,0.0007591862786478714,0.013840364961357736,0.0023404247170360896,1.409959316253662,2019-08-06 14:46:41:345,160.85260652239688,168.12492321839997,0,-47.68058776855469,18.592430114746094,-36.28522491455078
-0.04127829894423485,0.3100721836090088,9.63265323638916,0.0004928051185493561,0.013041222098738713,-0.0013889113292873795,1.419947862625122,2019-08-06 14:46:41:355,161.22332964919872,168.32527441901706,0,-47.68058776855469,18.592430114746094,-36.28522491455078
-0.012541304342448711,0.2310454547405243,9.654206275939941,-0.0016382440647108938,0.011975696548084513,-0.004851865987947299,1.4299662113189697,2019-08-06 14:46:41:365,161.5906377788968,168.53227155475375,0,-47.68058776855469,18.592430114746094,-36.28522491455078
-0.053252048790454865,0.25978243350982666,9.630258560180664,-0.002970149702657017,0.010377409782549165,0.0010085190140713856,1.439950942993164,2019-08-06 14:46:41:375,161.94667056033478,168.73238699523023,0,-47.68058776855469,18.592430114746094,-36.28522491455078
-0.024515053257346153,0.2693614363670349,9.611100196838379,0.0031566164919694735,0.014639508864274061,0.003405949227392988,1.4499547481536865,2019-08-06 14:46:41:385,162.29659107401534,168.92385903072594,0,-47.68058776855469,18.592430114746094,-36.28522491455078
-0.04127829894423485,0.2430191934108734,9.64462661743164,-0.0016382440647108938,0.01410674660909561,-0.001122530201698155,1.459958553314209,2019-08-06 14:46:41:395,162.63783091421632,169.1174341250895,0,-47.68058776855469,18.592430114746094,-36.28522491455078
-0.02930455282330513,0.30049318075180054,9.599126815795898,-0.004035674213013915,0.012774840451000838,0.0010085190140713856,1.469956636428833,2019-08-06 14:46:41:405,162.97440433474196,169.30149075043863,0,-47.68058776855469,18.592430114746094,-36.28522491455078
-0.04846255108714104,0.31965118646621704,9.596732139587402,0.0002264239747054862,0.01357398435391716,0.0010085190140713856,1.4799649715423584,2019-08-06 14:46:41:415,163.30150140991222,169.47717925617448,0,-47.68058776855469,18.592430114746094,-36.28522491455078
-0.019725553691387177,0.3340196907520294,9.55362606048584,0.002890235364380249,0.012508459843560263,-0.001122530201698155,1.4900152683258057,2019-08-06 14:46:41:425,163.6260465822888,169.6459567594748,0,-47.68058776855469,18.592430114746094,-36.28522491455078
0.00422194367274642,0.29330894351005554,9.577573776245117,-0.0016382440647108938,0.013041222098738713,0.0031395680998037635,1.4999480247497559,2019-08-06 14:46:41:435,156.74675739955796,169.81886911919227,0,-47.68058776855469,18.592430114746094,-36.28522491455078
0.0018271940061822534,0.32444068789482117,9.625469207763672,0.0002264239747054862,0.011176553685465489,0.006336141890948784,1.5099568367004395,2019-08-06 14:46:41:445,150.00575862994066,169.98375432438039,0,-47.68058776855469,18.592430114746094,-36.28522491455078
-0.010146554559469223,0.3028879463672638,9.685338020324707,-0.0011054818095324445,0.015438651726893083,0.0012749002066791914,1.5199551582336426,2019-08-06 14:46:41:455,150.59577564669257,170.14887551035633,0,-47.68058776855469,18.592430114746094,-36.28522491455078
-0.0508572980761528,0.26696670055389404,9.613494873046875,-0.002703768575067792,0.00824636128198402,0.005270617380591885,1.5299677848815918,2019-08-06 14:46:41:465,151.17316190196294,170.31560418604013,0,-47.68058776855469,18.592430114746094,-36.28522491455078
-0.03409405052661896,0.2909142076969147,9.599126815795898,0.0010255674062370958,0.010377409782549165,-0.000856149009090349,1.5399560928344727,2019-08-06 14:46:41:475,151.73980854470582,170.47399906302897,0,-47.68058776855469,18.592430114746094,-36.28522491455078
-0.05564679950475693,0.29330894351005554,9.625469207763672,0.0012919485988449018,0.00718083625147847,0.0028731869722145387,1.5499544143676758,2019-08-06 14:46:41:485,152.2943563229885,170.6288860422366,0,-47.68058776855469,18.592430114746094,-36.28522491455078
-0.02212030254304409,0.2621771991252899,9.670969009399414,0.0012919485988449018,0.014905889471714633,0.005803379635770335,1.559955358505249,2019-08-06 14:46:41:495,152.83747773393256,170.78452498919523,0,-47.68058776855469,18.592430114746094,-36.28522491455078
-0.04846255108714104,0.31725645065307617,9.606310844421387,0.0031566164919694735,0.01410674660909561,0.0007421378864821609,1.5699636936187744,2019-08-06 14:46:41:505,153.36701971648083,170.9292295055455,0,-47.68058776855469,18.592430114746094,-36.28522491455078
-0.05564679950475693,0.2909142076969147,9.639837265014648,-0.0003063383292368989,0.009311885272192268,0.00020937558253977584,1.5799493789672852,2019-08-06 14:46:41:515,153.88784337182423,171.07624534936278,0,-47.68058776855469,18.592430114746094,-36.28522491455078
-0.05804154649376869,0.27894043922424316,9.579968452453613,0.0004928051185493561,0.011975696548084513,-0.001655292456876604,1.5899527072906494,2019-08-06 14:46:41:525,154.39641732792583,171.2210873814674,0,-47.68058776855469,18.592430114746094,-36.28522491455078
-0.053252048790454865,0.29330894351005554,9.642231941223145,0.004222141002326372,0.011176553685465489,-0.0005897678815011245,1.5999603271484375,2019-08-06 14:46:41:535,154.89587998976182,171.35944601565697,0,-47.68058776855469,18.592430114746094,-36.28522491455078
-0.04367304965853691,0.29809844493865967,9.560811042785645,0.0010255674062370958,0.013840364961357736,0.001541281334268416,1.6099562644958496,2019-08-06 14:46:41:545,155.3849597832087,171.495964313645,0,-47.380706787109375,18.292551040649414,-36.88498306274414
-0.03648880124092102,0.2549929618835449,9.606310844421387,0.0031566164919694735,0.01357398435391716,0.00020937558253977584,1.6199636459350586,2019-08-06 14:46:41:555,155.86528054031,171.63386087737408,0,-47.380706787109375,18.292551040649414,-36.88498306274414
-0.0508572980761528,0.25259819626808167,9.615889549255371,-0.0013718629371216693,0.01410674660909561,-0.001122530201698155,1.630342960357666,2019-08-06 14:46:41:565,156.3336930036092,171.77188823341953,0,-47.380706787109375,18.292551040649414,-36.88498306274414
-0.0149360541254282,0.31246694922447205,9.606310844421387,-0.0024373874474785677,0.008512742409573244,0.0023404247170360896,1.6399428844451904,2019-08-06 14:46:41:575,156.80064879482288,171.90050394975924,0,-47.380706787109375,18.292551040649414,-36.88498306274414
-0.026909802109003067,0.32444068789482117,9.699706077575684,0.002890235364380249,0.010910172037727614,0.0020740435894468653,1.6499605178833008,2019-08-06 14:46:41:585,157.25531987530434,172.02255326475216,0,-47.380706787109375,18.292551040649414,-36.88498306274414
-0.07959429919719696,0.3028879463672638,9.647021293640137,-0.002970149702657017,0.008779123017013819,-0.0005897678815011245,1.6599504947662354,2019-08-06 14:46:41:595,157.6958346068627,172.1478017165418,0,-47.380706787109375,18.292551040649414,-36.88498306274414
-0.03648880124092102,0.29330894351005554,9.647021293640137,-0.0013718629371216693,0.010910172037727614,0.008200809784073356,1.6699647903442383,2019-08-06 14:46:41:605,158.1314488309154,172.2707872867769,0,-47.380706787109375,18.292551040649414,-36.88498306274414
-0.012541304342448711,0.32683542370796204,9.658995628356934,0.0026238542367910244,0.011176553685465489,0.0018076624618576407,1.6799609661102295,2019-08-06 14:46:41:615,158.56105877094652,172.38513878336792,0,-47.380706787109375,18.292551040649414,-36.88498306274414
-0.0771995484828949,0.34359869360923767,9.615889549255371,0.003689378747147923,0.012774840451000838,0.004737855125413436,1.6899621486663818,2019-08-06 14:46:41:625,158.97346409921926,172.49443529487252,0,-47.380706787109375,18.292551040649414,-36.88498306274414
-0.046067800372838974,0.3028879463672638,9.670969009399414,0.0010255674062370958,0.012242078195822388,0.00047575672638364575,1.6999545097351074,2019-08-06 14:46:41:635,159.38166761376266,172.60809363164026,0,-47.380706787109375,18.292551040649414,-36.88498306274414
-0.0149360541254282,0.28612470626831055,9.675758361816406,0.0015583297264341264,0.013840364961357736,0.0010085190140713856,1.7099666595458984,2019-08-06 14:46:41:645,159.78448457390257,172.72117935996286,0,-47.380706787109375,18.292551040649414,-36.88498306274414
-0.05564679950475693,0.2837299406528473,9.62067985534668,-0.0008391006169246387,0.010377409782549165,0.0012749002066791914,1.7199537754058838,2019-08-06 14:46:41:655,160.1763474927885,172.83344114485456,0,-47.380706787109375,18.292551040649414,-36.88498306274414
-0.03409405052661896,0.2837299406528473,9.615889549255371,0.004754903517579147,0.010111029175108591,0.003938711482571438,1.7299563884735107,2019-08-06 14:46:41:665,160.56307879464939,172.9402997568694,0,-47.380706787109375,18.292551040649414,-36.88498306274414
-0.04127829894423485,0.29809844493865967,9.548836708068848,0.002890235364380249,0.0047834061031754496,0.0031395680998037635,1.7399530410766602,2019-08-06 14:46:41:675,160.94417863823227,173.0441095201876,0,-47.380706787109375,18.292551040649414,-36.88498306274414
-0.038883551955223083,0.27894043922424316,9.551231384277344,-0.0013718629371216693,0.011709315940643939,-0.0005897678815011245,1.7499523162841797,2019-08-06 14:46:41:685,161.31405572177175,173.15054101070697,0,-47.380706787109375,18.292551040649414,-36.88498306274414
-0.04846255108714104,0.34599342942237854,9.697311401367188,0.0034229976195586987,0.011709315940643939,-5.7005565367755386e-05,1.7599670886993408,2019-08-06 14:46:41:695,161.67546343631784,173.24473719527538,0,-47.380706787109375,18.292551040649414,-36.88498306274414
-0.010146554559469223,0.3028879463672638,9.601521492004395,-0.003502911957835466,0.011442934292906064,-0.001655292456876604,1.769951343536377,2019-08-06 14:46:41:705,162.03432812876662,173.34566936246324,0,-47.380706787109375,18.292551040649414,-36.88498306274414
-0.007751804776489735,0.3100721836090088,9.63265323638916,-0.0008391006169246387,0.009045504664751694,0.0023404247170360896,1.7799561023712158,2019-08-06 14:46:41:715,162.3876379439023,173.44235341073878,0,-47.380706787109375,18.292551040649414,-36.88498306274414
-0.012541304342448711,0.27415093779563904,9.651811599731445,0.0007591862786478714,0.014639508864274061,0.0020740435894468653,1.7899599075317383,2019-08-06 14:46:41:725,162.73017302179866,173.54053995632836,0,-47.380706787109375,18.292551040649414,-36.88498306274414
-0.06283104419708252,0.31246694922447205,9.599126815795898,-0.0005727194893354142,0.010111029175108591,0.0026068058446253144,1.7999582290649414,2019-08-06 14:46:41:735,163.06239270659879,173.63276246355144,0,-47.380706787109375,18.292551040649414,-36.88498306274414
-0.005357054993510246,0.2621771991252899,9.60391616821289,-0.0013718629371216693,0.008779123017013819,0.0010085190140713856,1.8099665641784668,2019-08-06 14:46:41:745,163.3955720875506,173.72960358615785,0,-47.380706787109375,18.292551040649414,-36.88498306274414
-0.05804154649376869,0.29330894351005554,9.64462661743164,0.003955759874737148,0.012242078195822388,-0.003519960350001176,1.8199689388275146,2019-08-06 14:46:41:755,163.7138890446628,173.81795139480252,0,-47.380706787109375,18.292551040649414,-36.88498306274414
-0.0029623054433614016,0.30049318075180054,9.62067985534668,0.002890235364380249,0.010111029175108591,0.0010085190140713856,1.829953908920288,2019-08-06 14:46:41:765,164.0335896285339,173.90419194437067,0,-47.380706787109375,18.292551040649414,-36.88498306274414
-0.019725553691387177,0.31725645065307617,9.54165267944336,0.0002264239747054862,0.007979980154394795,0.0010085190140713856,1.8399548530578613,2019-08-06 14:46:41:775,164.34606770557423,173.9878937152958,0,-47.380706787109375,18.292551040649414,-36.88498306274414
-0.03169930353760719,0.3220459520816803,9.635047912597656,0.0002264239747054862,0.011176553685465489,-5.7005565367755386e-05,1.8499641418457031,2019-08-06 14:46:41:785,164.64909485428456,174.06972126841822,0,-47.380706787109375,18.292551040649414,-36.88498306274414
-0.024515053257346153,0.29809844493865967,9.687732696533203,-0.0016382440647108938,0.011176553685465489,-0.003519960350001176,1.8599531650543213,2019-08-06 14:46:41:795,164.94694446385947,174.15399618746392,0,-47.380706787109375,18.292551040649414,-36.58510208129883
-0.03648880124092102,0.3028879463672638,9.615889549255371,-0.0016382440647108938,0.012774840451000838,-5.7005565367755386e-05,1.8699495792388916,2019-08-06 14:46:41:805,165.23648677942722,174.23575289334443,0,-47.380706787109375,18.292551040649414,-36.58510208129883
-0.017330802977085114,0.3076774477958679,9.618284225463867,-0.0008391006169246387,0.00718083625147847,-0.003519960350001176,1.879958152770996,2019-08-06 14:46:41:815,165.52565677978805,174.31486541508121,0,-47.380706787109375,18.292551040649414,-36.58510208129883
-0.03409405052661896,0.30049318075180054,9.601521492004395,0.0031566164919694735,0.01357398435391716,-0.0027208169672335025,1.8899526596069336,2019-08-06 14:46:41:825,165.80345704170827,174.3909452991167,0,-47.380706787109375,18.292551040649414,-36.58510208129883
-0.005357054993510246,0.2813352048397064,9.606310844421387,0.0007591862786478714,0.009045504664751694,-0.006716534401220521,1.8999652862548828,2019-08-06 14:46:41:835,166.08166341800595,174.4691493078149,0,-47.380706787109375,18.292551040649414,-36.58510208129883
-0.024515053257346153,0.2693614363670349,9.656600952148438,-3.9957173202045016e-05,0.016770557884987856,-0.0013889113292873795,1.9099581241607666,2019-08-06 14:46:41:845,166.34771113778183,174.54783283349119,0,-47.380706787109375,18.292551040649414,-36.58510208129883
-0.005357054993510246,0.3028879463672638,9.64462661743164,0.0004928051185493561,0.009844647527370716,-0.0024544358396442778,1.9199531078338623,2019-08-06 14:46:41:855,166.61459543927057,174.62062413557095,0,-47.380706787109375,18.292551040649414,-36.58510208129883
-0.046067800372838974,0.29330894351005554,9.59194278717041,0.0004928051185493561,0.011442934292906064,0.0023404247170360896,1.9299571514129639,2019-08-06 14:46:41:865,166.87037222498154,174.69290516159768,0,-47.380706787109375,18.292551040649414,-36.58510208129883
-0.03648880124092102,0.2813352048397064,9.58236312866211,0.0012919485988449018,0.012774840451000838,0.0031395680998037635,1.9399597644805908,2019-08-06 14:46:41:875,167.1214263252668,174.7646873775283,0,-47.380706787109375,18.292551040649414,-36.58510208129883
-0.03648880124092102,0.31965118646621704,9.572784423828125,-0.0019046251923001184,0.010111029175108591,-0.003519960350001176,1.9499671459197998,2019-08-06 14:46:41:885,167.36894838745314,174.83221404921218,0,-47.380706787109375,18.292551040649414,-36.58510208129883
-0.012541304342448711,0.3100721836090088,9.613494873046875,-0.0024373874474785677,0.012242078195822388,-0.001122530201698155,1.959960699081421,2019-08-06 14:46:41:895,167.61320503528242,174.8999900993206,0,-47.380706787109375,18.292551040649414,-36.58510208129883
-0.0005675556603819132,0.29809844493865967,9.680547714233398,0.0012919485988449018,0.01064379143028704,0.0012749002066791914,1.9699602127075195,2019-08-06 14:46:41:905,167.85489756757966,174.96598924159866,0,-47.380706787109375,18.292551040649414,-36.58510208129883
-0.019725553691387177,0.2885194420814514,9.601521492004395,-0.0024373874474785677,0.011709315940643939,0.0010085190140713856,1.9799854755401611,2019-08-06 14:46:41:915,168.08885405343588,175.03361784841627,0,-47.380706787109375,18.292551040649414,-36.58510208129883
-0.005357054993510246,0.2645719349384308,9.596732139587402,0.0015583297264341264,0.01064379143028704,-0.000856149009090349,1.9899508953094482,2019-08-06 14:46:41:925,168.32048149573396,175.1004898149628,0,-47.380706787109375,18.292551040649414,-36.58510208129883
-0.012541304342448711,0.2765457034111023,9.589548110961914,0.0026238542367910244,0.01064379143028704,0.0007421378864821609,1.99995756149292,2019-08-06 14:46:41:935,168.54659276868117,175.1639687118552,0,-47.380706787109375,18.292551040649414,-36.58510208129883
-0.03648880124092102,0.2765457034111023,9.627863883972168,0.0020910919816125757,0.009844647527370716,-5.7005565367755386e-05,2.009953022003174,2019-08-06 14:46:41:945,168.7657927627017,175.22661009547932,0,-47.380706787109375,18.292551040649414,-36.58510208129883
-0.02212030254304409,0.29809844493865967,9.618284225463867,0.0004928051185493561,0.014905889471714633,0.004205092610160662,2.01995849609375,2019-08-06 14:46:41:955,168.97946729660043,175.28629715942677,0,-47.380706787109375,18.292551040649414,-36.58510208129883
-0.010146554559469223,0.28612470626831055,9.630258560180664,0.0015583297264341264,0.011975696548084513,-5.7005565367755386e-05,2.0299525260925293,2019-08-06 14:46:41:965,169.19195027798222,175.34566044203973,0,-47.380706787109375,18.292551040649414,-36.58510208129883
-0.0508572980761528,0.2693614363670349,9.611100196838379,-0.0037692930854246903,0.010111029175108591,0.0012749002066791914,2.0399651527404785,2019-08-06 14:46:41:975,169.3963631997417,175.4087592442133,0,-47.380706787109375,18.292551040649414,-36.58510208129883
-0.04367304965853691,0.3028879463672638,9.599126815795898,0.0026238542367910244,0.014639508864274061,0.005270617380591885,2.0499508380889893,2019-08-06 14:46:41:985,169.59501411364076,175.46296699637037,0,-47.380706787109375,18.292551040649414,-36.58510208129883
-0.04367304965853691,0.27415093779563904,9.670969009399414,0.0002264239747054862,0.012242078195822388,0.0023404247170360896,2.059950828552246,2019-08-06 14:46:41:995,169.79106513203314,175.52110500234215,0,-47.380706787109375,18.292551040649414,-36.58510208129883
-0.060436297208070755,0.3100721836090088,9.599126815795898,-3.9957173202045016e-05,0.009844647527370716,-0.003519960350001176,2.069958209991455,2019-08-06 14:46:42:005,169.98249738044225,175.57370271366926,0,-47.380706787109375,18.292551040649414,-36.58510208129883
-0.02212030254304409,0.2957036793231964,9.666179656982422,-0.0024373874474785677,0.012242078195822388,0.0020740435894468653,2.079983711242676,2019-08-06 14:46:42:015,170.17333365886776,175.62855630350657,0,-47.380706787109375,18.292551040649414,-36.58510208129883
-0.06522579491138458,0.2573876976966858,9.668574333190918,0.0004928051185493561,0.012508459843560263,-0.000856149009090349,2.0899555683135986,2019-08-06 14:46:42:025,170.35513285060964,175.68521096221596,0,-47.380706787109375,18.292551040649414,-36.58510208129883
-0.05804154649376869,0.2621771991252899,9.58236312866211,-0.002970149702657017,0.010910172037727614,0.0007421378864821609,2.099961280822754,2019-08-06 14:46:42:035,170.53495978121046,175.74183055234988,0,-47.380706787109375,18.292551040649414,-36.58510208129883
-0.03409405052661896,0.2813352048397064,9.623074531555176,0.004488522389989922,0.014905889471714633,-0.0005897678815011245,2.1099510192871094,2019-08-06 14:46:42:045,170.7118396353571,175.79098437556712,0,-46.33113479614258,17.842735290527344,-37.33479690551758
-0.010146554559469223,0.3028879463672638,9.618284225463867,-0.004035674213013915,0.014905889471714633,0.003938711482571438,2.119954824447632,2019-08-06 14:46:42:055,170.88802116831766,175.8413576412324,0,-46.33113479614258,17.842735290527344,-37.33479690551758
-0.026909802109003067,0.3364144265651703,9.599126815795898,0.0034229976195586987,0.013840364961357736,0.004737855125413436,2.12996506690979,2019-08-06 14:46:42:065,171.05926903429457,175.88246277436724,0,-46.33113479614258,17.842735290527344,-37.33479690551758
-0.010146554559469223,0.2693614363670349,9.685338020324707,-0.002171006319889343,0.013041222098738713,0.0023404247170360896,2.1399569511413574,2019-08-06 14:46:42:075,171.2295664842827,175.9341704051109,0,-46.33113479614258,17.842735290527344,-37.33479690551758
-0.019725553691387177,0.27175620198249817,9.556020736694336,0.0010255674062370958,0.014639508864274061,0.0018076624618576407,2.1499555110931396,2019-08-06 14:46:42:085,171.3943908765368,175.98233220841286,0,-46.33113479614258,17.842735290527344,-37.33479690551758
-0.04367304965853691,0.2957036793231964,9.615889549255371,-0.0005727194893354142,0.011709315940643939,-0.001122530201698155,2.1599600315093994,2019-08-06 14:46:42:095,171.55472088569778,176.02777969150478,0,-46.33113479614258,17.842735290527344,-37.33479690551758
-0.06522579491138458,0.31246694922447205,9.618284225463867,-0.004302055340603139,0.011975696548084513,0.004205092610160662,2.1699562072753906,2019-08-06 14:46:42:105,171.70913386618844,176.07242476852377,0,-46.33113479614258,17.842735290527344,-37.33479690551758
-0.060436297208070755,0.2693614363670349,9.639837265014648,-0.002171006319889343,0.013041222098738713,0.001541281334268416,2.179962396621704,2019-08-06 14:46:42:115,171.86043988326227,176.12018459426656,0,-46.33113479614258,17.842735290527344,-37.33479690551758
-0.019725553691387177,0.25978243350982666,9.630258560180664,-0.0024373874474785677,0.01357398435391716,0.005004236253002661,2.189950704574585,2019-08-06 14:46:42:125,172.01327106013036,176.16824357486206,0,-46.33113479614258,17.842735290527344,-37.33479690551758
-0.04367304965853691,0.2909142076969147,9.654206275939941,-0.0008391006169246387,0.01410674660909561,0.00047575672638364575,2.199956178665161,2019-08-06 14:46:42:135,172.15989660333034,176.2108302104401,0,-46.33113479614258,17.842735290527344,-37.33479690551758
-0.04367304965853691,0.3100721836090088,9.64462661743164,-0.0003063383292368989,0.011176553685465489,0.0012749002066791914,2.209961175918579,2019-08-06 14:46:42:145,172.30523098611098,176.24995750404685,0,-46.33113479614258,17.842735290527344,-37.33479690551758
-0.0508572980761528,0.28612470626831055,9.63265323638916,0.0010255674062370958,0.01064379143028704,0.0031395680998037635,2.2199583053588867,2019-08-06 14:46:42:155,172.4471015995556,176.2903548244572,0,-46.33113479614258,17.842735290527344,-37.33479690551758
-0.05564679950475693,0.3292301893234253,9.654206275939941,0.005820428027936045,0.005316168358353898,0.005803379635770335,2.229966402053833,2019-08-06 14:46:42:165,172.58856715046596,176.3222137538438,0,-46.33113479614258,17.842735290527344,-37.33479690551758
-0.053252048790454865,0.29330894351005554,9.637442588806152,0.0026238542367910244,0.011176553685465489,-0.0005897678815011245,2.2399444580078125,2019-08-06 14:46:42:175,172.7242022240874,176.35943502921683,0,-46.33113479614258,17.842735290527344,-37.33479690551758
-0.007751804776489735,0.3483881950378418,9.594337463378906,0.0026238542367910244,0.011176553685465489,0.006069760763359559,2.249957799911499,2019-08-06 14:46:42:185,172.8625083376039,176.3891790251224,0,-46.33113479614258,17.842735290527344,-37.33479690551758
-0.04367304965853691,0.27894043922424316,9.601521492004395,0.0034229976195586987,0.011176553685465489,0.00047575672638364575,2.2599568367004395,2019-08-06 14:46:42:195,172.9937709313713,176.42619219623788,0,-46.33113479614258,17.842735290527344,-37.33479690551758
-0.02930455282330513,0.31246694922447205,9.62067985534668,0.0007591862786478714,0.013307602706179285,0.0012749002066791914,2.2699637413024902,2019-08-06 14:46:42:205,173.12292770911066,176.4600370324178,0,-46.33113479614258,17.842735290527344,-37.33479690551758
-0.0005675556603819132,0.3100721836090088,9.66139030456543,-0.0005727194893354142,0.012508459843560263,-0.001122530201698155,2.279954433441162,2019-08-06 14:46:42:215,173.25338489261873,176.4943932344848,0,-46.33113479614258,17.842735290527344,-37.33479690551758
-0.06522579491138458,0.3220459520816803,9.618284225463867,0.00555404690034682,0.015438651726893083,-0.0003233867214026093,2.289949417114258,2019-08-06 14:46:42:225,173.37188192535083,176.5230343455794,0,-46.33113479614258,17.842735290527344,-37.33479690551758
-0.038883551955223083,0.27894043922424316,9.599126815795898,0.0015583297264341264,0.017036938492428433,-0.0027208169672335025,2.2999584674835205,2019-08-06 14:46:42:235,173.4902276323443,176.55840814374818,0,-46.33113479614258,17.842735290527344,-37.33479690551758
-0.03648880124092102,0.2837299406528473,9.594337463378906,-0.0011054818095324445,0.012242078195822388,-0.003786341477590401,2.309950590133667,2019-08-06 14:46:42:245,173.60919650485175,176.59398233647588,0,-46.33113479614258,17.842735290527344,-37.33479690551758
-0.046067800372838974,0.30528268218040466,9.637442588806152,0.001824710854023351,0.008512742409573244,-0.003786341477590401,2.3199684619903564,2019-08-06 14:46:42:255,173.72674660604574,176.62478955903626,0,-46.33113479614258,17.842735290527344,-37.33479690551758
-0.03648880124092102,0.30049318075180054,9.618284225463867,0.003689378747147923,0.012774840451000838,-0.001655292456876604,2.3299484252929688,2019-08-06 14:46:42:265,173.84070576167295,176.65443743306864,0,-46.33113479614258,17.842735290527344,-37.33479690551758
-0.04846255108714104,0.29809844493865967,9.60391616821289,-0.0013718629371216693,0.009578266919930143,-0.0005897678815011245,2.339954137802124,2019-08-06 14:46:42:275,173.9527280073161,176.68656246840197,0,-46.33113479614258,17.842735290527344,-37.33479690551758
0.016195692121982574,0.28612470626831055,9.635047912597656,0.0015583297264341264,0.012508459843560263,0.0028731869722145387,2.3499574661254883,2019-08-06 14:46:42:285,166.86857381070868,176.71793653992137,0,-46.33113479614258,17.842735290527344,-37.33479690551758
-0.05804154649376869,0.2957036793231964,9.589548110961914,0.0026238542367910244,0.01064379143028704,0.0012749002066791914,2.3599579334259033,2019-08-06 14:46:42:295,167.1182899150116,176.74678014522047,0,-46.78095245361328,17.39291763305664,-36.88498306274414
-0.03409405052661896,0.3148616850376129,9.618284225463867,-0.003236530830246241,0.015438651726893083,0.0012749002066791914,2.3699605464935303,2019-08-06 14:46:42:305,167.36319114547368,176.77616331722646,0,-46.78095245361328,17.39291763305664,-36.88498306274414
-0.0508572980761528,0.2885194420814514,9.570389747619629,-0.0008391006169246387,0.010910172037727614,-0.0021880547120550534,2.3799540996551514,2019-08-06 14:46:42:315,167.6037158574769,176.80657533563098,0,-46.78095245361328,17.39291763305664,-36.88498306274414
0.00422194367274642,0.2885194420814514,9.606310844421387,0.0020910919816125757,0.011975696548084513,-0.00431910373276885,2.389944076538086,2019-08-06 14:46:42:325,160.64542756919144,176.83486435699493,0,-46.78095245361328,17.39291763305664,-36.88498306274414
-0.04127829894423485,0.30049318075180054,9.66139030456543,-0.0003063383292368989,0.012774840451000838,0.0010085190140713856,2.3999602794647217,2019-08-06 14:46:42:335,161.02043844420774,176.86271002840044,0,-46.78095245361328,17.39291763305664,-36.88498306274414
-0.03648880124092102,0.30528268218040466,9.606310844421387,-0.0024373874474785677,0.009578266919930143,-0.002987198094822727,2.409954309463501,2019-08-06 14:46:42:345,161.39030205473338,176.8904193559917,0,-46.78095245361328,17.39291763305664,-36.88498306274414
-0.0508572980761528,0.29330894351005554,9.625469207763672,0.0010255674062370958,0.011975696548084513,0.0010085190140713856,2.419963836669922,2019-08-06 14:46:42:355,161.74971074651972,176.91712683162797,0,-46.78095245361328,17.39291763305664,-36.88498306274414
-0.017330802977085114,0.3148616850376129,9.647021293640137,0.0015583297264341264,0.010111029175108591,0.0026068058446253144,2.429962635040283,2019-08-06 14:46:42:365,162.10698125793496,176.9405220171915,0,-46.78095245361328,17.39291763305664,-36.88498306274414
-0.03169930353760719,0.2909142076969147,9.663784980773926,0.0012919485988449018,0.013307602706179285,-0.000856149009090349,2.4399538040161133,2019-08-06 14:46:42:375,162.4536171933428,176.96650108072618,0,-46.78095245361328,17.39291763305664,-36.88498306274414
-0.0005675556603819132,0.3220459520816803,9.627863883972168,-0.003236530830246241,0.007979980154394795,0.0007421378864821609,2.4499592781066895,2019-08-06 14:46:42:385,162.79999409777528,176.99067349626765,0,-46.78095245361328,17.39291763305664,-36.88498306274414
-0.0005675556603819132,0.2885194420814514,9.637442588806152,-0.0011054818095324445,0.013041222098738713,-0.000856149009090349,2.4599661827087402,2019-08-06 14:46:42:395,163.13659904761224,177.01718575453643,0,-46.78095245361328,17.39291763305664,-36.88498306274414
-0.02212030254304409,0.30049318075180054,9.584757804870605,0.0007591862786478714,0.009578266919930143,0.003405949227392988,2.4699482917785645,2019-08-06 14:46:42:405,163.46585389403347,177.04050251183196,0,-46.78095245361328,17.39291763305664,-36.88498306274414
-0.04846255108714104,0.2813352048397064,9.60391616821289,0.0004928051185493561,0.008779123017013819,0.0023404247170360896,2.4799485206604004,2019-08-06 14:46:42:415,163.78582485470938,177.0658571200864,0,-46.78095245361328,17.39291763305664,-36.88498306274414
-0.053252048790454865,0.32444068789482117,9.594337463378906,-0.003502911957835466,0.00718083625147847,0.0018076624618576407,2.489948272705078,2019-08-06 14:46:42:425,164.09971624644686,177.08777145841708,0,-46.78095245361328,17.39291763305664,-36.88498306274414
-0.017330802977085114,0.29809844493865967,9.556020736694336,0.0007591862786478714,0.011709315940643939,-0.000856149009090349,2.499952793121338,2019-08-06 14:46:42:435,164.4090659537956,177.1098545006086,0,-46.78095245361328,17.39291763305664,-36.88498306274414
0.006616693455725908,0.33880919218063354,9.613494873046875,0.0063531902831144935,0.013307602706179285,0.003672330354982212,2.50996470451355,2019-08-06 14:46:42:445,157.51419223426615,177.12371696433578,0,-46.78095245361328,17.39291763305664,-36.88498306274414
-0.024515053257346153,0.28612470626831055,9.647021293640137,-0.002703768575067792,0.017036938492428433,0.0023404247170360896,2.519951820373535,2019-08-06 14:46:42:455,157.9514424975424,177.14878164187604,0,-46.78095245361328,17.39291763305664,-36.88498306274414
-0.024515053257346153,0.30049318075180054,9.647021293640137,-0.0008391006169246387,0.014905889471714633,-0.0003233867214026093,2.5299570560455322,2019-08-06 14:46:42:465,158.38112762936223,177.1705950460868,0,-46.78095245361328,17.39291763305664,-36.88498306274414
-0.02930455282330513,0.23822970688343048,9.613494873046875,0.0012919485988449018,0.014639508864274061,-0.0003233867214026093,2.5399608612060547,2019-08-06 14:46:42:475,158.80178883234814,177.19806659332625,0,-46.78095245361328,17.39291763305664,-36.88498306274414
-0.012541304342448711,0.27415093779563904,9.627863883972168,-0.0008391006169246387,0.01410674660909561,0.003672330354982212,2.549952745437622,2019-08-06 14:46:42:485,159.21634589049324,177.22195519696328,0,-46.78095245361328,17.39291763305664,-36.88498306274414
-0.03648880124092102,0.31965118646621704,9.627863883972168,0.0012919485988449018,0.010111029175108591,0.003672330354982212,2.559964418411255,2019-08-06 14:46:42:495,159.62199211269424,177.2387586641563,0,-46.78095245361328,17.39291763305664,-36.88498306274414
-0.0508572980761528,0.2837299406528473,9.60391616821289,0.0023574731092018,0.012242078195822388,0.0071352852737164565,2.569967269897461,2019-08-06 14:46:42:505,160.0166082894535,177.25881528280618,0,-46.78095245361328,17.39291763305664,-36.88498306274414
-0.024515053257346153,0.32683542370796204,9.647021293640137,0.0026238542367910244,0.013041222098738713,-0.000856149009090349,2.5799551010131836,2019-08-06 14:46:42:515,160.4060504065167,177.2733593748761,0,-46.78095245361328,17.39291763305664,-36.88498306274414
-0.02930455282330513,0.3076774477958679,9.623074531555176,0.0031566164919694735,0.014639508864274061,-0.003519960350001176,2.5899481773376465,2019-08-06 14:46:42:525,160.78622545040304,177.28949522921334,0,-46.78095245361328,17.39291763305664,-36.88498306274414
-0.04127829894423485,0.3340196907520294,9.60391616821289,0.003689378747147923,0.016237795629809405,0.004737855125413436,2.599963903427124,2019-08-06 14:46:42:535,161.1564439084887,177.30179213786803,0,-46.78095245361328,17.39291763305664,-36.88498306274414
-0.02930455282330513,0.27175620198249817,9.589548110961914,-0.0008391006169246387,0.011709315940643939,0.0028731869722145387,2.609950304031372,2019-08-06 14:46:42:545,161.5232474316788,177.32376163446267,0,-46.03125762939453,17.242979049682617,-36.735042572021484
-0.053252048790454865,0.3220459520816803,9.565600395202637,0.004222141002326372,0.014373127216536186,0.005270617380591885,2.619957208633423,2019-08-06 14:46:42:555,161.87832713103413,177.33634895885328,0,-46.03125762939453,17.242979049682617,-36.735042572021484
-0.02930455282330513,0.3100721836090088,9.608705520629883,0.0012919485988449018,0.014639508864274061,0.0020740435894468653,2.629953384399414,2019-08-06 14:46:42:565,162.22904887433572,177.35193105014318,0,-46.03125762939453,17.242979049682617,-36.735042572021484
-0.04367304965853691,0.2837299406528473,9.623074531555176,0.0007591862786478714,0.009311885272192268,0.0028731869722145387,2.6399598121643066,2019-08-06 14:46:42:575,162.57403537463028,177.37068910083187,0,-46.03125762939453,17.242979049682617,-36.735042572021484
-0.005357054993510246,0.30528268218040466,9.589548110961914,-0.0019046251923001184,0.010910172037727614,0.0023404247170360896,2.6499640941619873,2019-08-06 14:46:42:585,162.91578584898852,177.3878773842054,0,-46.03125762939453,17.242979049682617,-36.735042572021484
-0.04367304965853691,0.29330894351005554,9.577573776245117,-0.002970149702657017,0.009311885272192268,-5.7005565367755386e-05,2.659951686859131,2019-08-06 14:46:42:595,163.24702275168806,177.40670331096925,0,-46.03125762939453,17.242979049682617,-36.735042572021484
-0.06283104419708252,0.3076774477958679,9.658995628356934,0.004222141002326372,0.012508459843560263,0.003938711482571438,2.6699585914611816,2019-08-06 14:46:42:605,163.56759997395736,177.41970724820155,0,-46.03125762939453,17.242979049682617,-36.735042572021484
-0.0005675556603819132,0.2621771991252899,9.611100196838379,0.005287665772757595,0.010111029175108591,0.0018076624618576407,2.6799566745758057,2019-08-06 14:46:42:615,163.89050406491094,177.43709345115224,0,-46.03125762939453,17.242979049682617,-36.735042572021484
-0.02930455282330513,0.3340196907520294,9.64462661743164,0.0002264239747054862,0.014373127216536186,0.0028731869722145387,2.690016746520996,2019-08-06 14:46:42:625,164.20109323407448,177.44855335885438,0,-46.03125762939453,17.242979049682617,-36.735042572021484
-0.026909802109003067,0.3220459520816803,9.613494873046875,-0.0008391006169246387,0.012774840451000838,0.004737855125413436,2.6999590396881104,2019-08-06 14:46:42:635,164.5067321036465,177.46167763450413,0,-46.03125762939453,17.242979049682617,-36.735042572021484
-0.03648880124092102,0.27415093779563904,9.658995628356934,0.0002264239747054862,0.009578266919930143,0.0026068058446253144,2.7101056575775146,2019-08-06 14:46:42:645,164.80681151760638,177.4797993281775,0,-46.03125762939453,17.242979049682617,-36.735042572021484
-0.02930455282330513,0.29809844493865967,9.67336368560791,-0.0005727194893354142,0.014373127216536186,0.0012749002066791914,2.7199864387512207,2019-08-06 14:46:42:655,165.0992295775769,177.49521924404746,0,-46.03125762939453,17.242979049682617,-36.735042572021484
-0.007751804776489735,0.2549929618835449,9.694916725158691,0.0002264239747054862,0.011975696548084513,0.006336141890948784,2.7299575805664062,2019-08-06 14:46:42:665,165.38962380964065,177.51505548815433,0,-46.93089294433594,17.542856216430664,-37.03491973876953
-0.04127829894423485,0.32444068789482117,9.594337463378906,0.0026238542367910244,0.011709315940643939,0.006336141890948784,2.7399649620056152,2019-08-06 14:46:42:675,165.6703216037554,177.52454464951185,0,-46.93089294433594,17.542856216430664,-37.03491973876953
-0.03409405052661896,0.34359869360923767,9.55362606048584,-0.0005727194893354142,0.015172271119452508,0.004205092610160662,2.749971628189087,2019-08-06 14:46:42:685,165.94430086840157,177.5331801501257,0,-46.93089294433594,17.542856216430664,-37.03491973876953
-0.038883551955223083,0.31725645065307617,9.596732139587402,0.0004928051185493561,0.014905889471714633,0.0018076624618576407,2.759958028793335,2019-08-06 14:46:42:695,166.21241365938758,177.5443714108384,0,-46.93089294433594,17.542856216430664,-37.03491973876953
-0.02930455282330513,0.2765457034111023,9.654206275939941,0.001824710854023351,0.016504176237249982,0.001541281334268416,2.769993305206299,2019-08-06 14:46:42:705,166.47538730051065,177.55963990269402,0,-46.93089294433594,17.542856216430664,-37.03491973876953
-0.05564679950475693,0.31725645065307617,9.651811599731445,-0.002703768575067792,0.011975696548084513,-0.0024544358396442778,2.7799885272979736,2019-08-06 14:46:42:715,166.7325518123917,177.57231168631068,0,-46.93089294433594,17.542856216430664,-37.03491973876953
-0.060436297208070755,0.2693614363670349,9.651811599731445,0.001824710854023351,0.01064379143028704,0.0031395680998037635,2.7899839878082275,2019-08-06 14:46:42:725,166.98475178248052,177.58786958832508,0,-46.93089294433594,17.542856216430664,-37.03491973876953
-0.05564679950475693,0.2813352048397064,9.575179100036621,-0.0016382440647108938,0.013840364961357736,0.00047575672638364575,2.799988269805908,2019-08-06 14:46:42:735,167.23062258223965,177.60337317803297,0,-46.93089294433594,17.542856216430664,-37.03491973876953
0.0018271940061822534,0.32444068789482117,9.613494873046875,-0.0003063383292368989,0.01810246300278533,-0.0003233867214026093,2.8099896907806396,2019-08-06 14:46:42:745,160.27606197695346,177.612819528407,0,-46.93089294433594,17.542856216430664,-37.03491973876953
-0.06283104419708252,0.2909142076969147,9.58236312866211,-0.0003063383292368989,0.013307602706179285,0.00020937558253977584,2.8199946880340576,2019-08-06 14:46:42:755,160.65555120279654,177.62595667521794,0,-46.93089294433594,17.542856216430664,-37.03491973876953
-0.06522579491138458,0.31725645065307617,9.618284225463867,0.0015583297264341264,0.012508459843560263,-0.004851865987947299,2.8299853801727295,2019-08-06 14:46:42:765,161.0276523968966,177.63477934557116,0,-46.93089294433594,17.542856216430664,-37.03491973876953
-0.007751804776489735,0.31965118646621704,9.635047912597656,0.0007591862786478714,0.009578266919930143,0.00047575672638364575,2.840000867843628,2019-08-06 14:46:42:775,161.4007908980582,177.64365399746222,0,-46.93089294433594,17.542856216430664,-37.03491973876953
-0.024515053257346153,0.33162492513656616,9.594337463378906,-0.0008391006169246387,0.009578266919930143,0.001541281334268416,2.8499889373779297,2019-08-06 14:46:42:785,161.76447532305036,177.6516590991056,0,-46.93089294433594,17.542856216430664,-37.03491973876953
-0.038883551955223083,0.2837299406528473,9.611100196838379,0.0015583297264341264,0.01357398435391716,-0.0032535792224119516,2.8599839210510254,2019-08-06 14:46:42:795,162.11693186984098,177.66393252619903,0,-46.18119812011719,17.992673873901367,-36.88498306274414
-0.06283104419708252,0.3028879463672638,9.536863327026367,0.0023574731092018,0.012508459843560263,0.0007421378864821609,2.8699936866760254,2019-08-06 14:46:42:805,162.46001344473603,177.67294715548027,0,-46.18119812011719,17.992673873901367,-36.88498306274414
-0.05564679950475693,0.2885194420814514,9.675758361816406,-0.0005727194893354142,0.01064379143028704,-0.0024544358396442778,2.8799846172332764,2019-08-06 14:46:42:815,162.7982518546588,177.68564980347702,0,-46.18119812011719,17.992673873901367,-36.88498306274414
-0.007751804776489735,0.3340196907520294,9.623074531555176,0.001824710854023351,0.013840364961357736,0.003938711482571438,2.8899929523468018,2019-08-06 14:46:42:825,163.13358590935573,177.6911522824971,0,-46.18119812011719,17.992673873901367,-36.88498306274414
-0.060436297208070755,0.29809844493865967,9.627863883972168,0.0002264239747054862,0.010377409782549165,0.0023404247170360896,2.899977207183838,2019-08-06 14:46:42:835,163.45790338524202,177.70173373054703,0,-46.18119812011719,17.992673873901367,-36.88498306274414
-0.019725553691387177,0.2957036793231964,9.63265323638916,0.0034229976195586987,0.009844647527370716,-0.0024544358396442778,2.9099855422973633,2019-08-06 14:46:42:845,163.78086637426532,177.71060911409575,0,-46.18119812011719,17.992673873901367,-36.88498306274414
-0.038883551955223083,0.2909142076969147,9.656600952148438,-0.005367579850960038,0.01064379143028704,-0.003519960350001176,2.9199864864349365,2019-08-06 14:46:42:855,164.0946578558054,177.7248997556409,0,-46.18119812011719,17.992673873901367,-36.88498306274414
-0.012541304342448711,0.2957036793231964,9.637442588806152,-3.9957173202045016e-05,0.00824636128198402,0.005270617380591885,2.92999267578125,2019-08-06 14:46:42:865,164.4066403211431,177.7352753440325,0,-46.18119812011719,17.992673873901367,-36.88498306274414
-0.04846255108714104,0.29809844493865967,9.615889549255371,0.0002264239747054862,0.011176553685465489,0.003938711482571438,2.9399852752685547,2019-08-06 14:46:42:875,164.70646135623176,177.74493008523407,0,-46.18119812011719,17.992673873901367,-36.88498306274414
-0.05564679950475693,0.27894043922424316,9.651811599731445,0.0031566164919694735,0.014905889471714633,0.0031395680998037635,2.949991464614868,2019-08-06 14:46:42:885,164.99735069457438,177.755149839496,0,-46.18119812011719,17.992673873901367,-36.88498306274414
-0.06283104419708252,0.3364144265651703,9.596732139587402,0.0004928051185493561,0.01410674660909561,0.0026068058446253144,2.959988594055176,2019-08-06 14:46:42:895,165.28198268529954,177.75961646692332,0,-46.18119812011719,17.992673873901367,-36.88498306274414
-0.06283104419708252,0.3100721836090088,9.565600395202637,0.0012919485988449018,0.015438651726893083,0.003405949227392988,2.969984292984009,2019-08-06 14:46:42:905,165.5601512119689,177.76656678138355,0,-46.18119812011719,17.992673873901367,-36.88498306274414
-0.03409405052661896,0.29809844493865967,9.584757804870605,-0.0024373874474785677,0.013307602706179285,0.0020740435894468653,2.979999542236328,2019-08-06 14:46:42:915,165.83738846024025,177.77697814048557,0,-46.18119812011719,17.992673873901367,-36.88498306274414
-0.02212030254304409,0.3100721836090088,9.618284225463867,0.001824710854023351,0.011709315940643939,0.0031395680998037635,2.9899747371673584,2019-08-06 14:46:42:925,166.11144684224087,177.78348755506934,0,-46.18119812011719,17.992673873901367,-36.88498306274414
-0.005357054993510246,0.27415093779563904,9.584757804870605,0.0004928051185493561,0.012508459843560263,0.0028731869722145387,2.9999947547912598,2019-08-06 14:46:42:935,166.38153989471053,177.7947730769152,0,-46.18119812011719,17.992673873901367,-36.88498306274414
-0.024515053257346153,0.2813352048397064,9.642231941223145,0.0012919485988449018,0.015172271119452508,-0.0003233867214026093,3.009974956512451,2019-08-06 14:46:42:945,166.6424933078894,177.8047282760952,0,-46.18119812011719,17.992673873901367,-36.88498306274414
-0.04846255108714104,0.3028879463672638,9.594337463378906,0.0010255674062370958,0.01064379143028704,0.005803379635770335,3.0199904441833496,2019-08-06 14:46:42:955,166.89786955530792,177.81189305114796,0,-46.18119812011719,17.992673873901367,-36.88498306274414
-0.05804154649376869,0.31246694922447205,9.651811599731445,0.0004928051185493561,0.010910172037727614,0.00553699850818111,3.029989719390869,2019-08-06 14:46:42:965,167.14689563631038,177.8182936765976,0,-46.18119812011719,17.992673873901367,-36.88498306274414
-0.06283104419708252,0.3220459520816803,9.62067985534668,0.0004928051185493561,0.005316168358353898,0.0028731869722145387,3.0399861335754395,2019-08-06 14:46:42:975,167.3934900968085,177.82330673739818,0,-46.18119812011719,17.992673873901367,-36.88498306274414
-0.04367304965853691,0.33162492513656616,9.685338020324707,-0.002703768575067792,0.010111029175108591,0.0028731869722145387,3.0499823093414307,2019-08-06 14:46:42:985,167.63477801838985,177.82913748098082,0,-46.18119812011719,17.992673873901367,-36.88498306274414
-0.02212030254304409,0.31965118646621704,9.60391616821289,0.0020910919816125757,0.011975696548084513,0.0028731869722145387,3.0599846839904785,2019-08-06 14:46:42:995,167.87271718863727,177.83325439035102,0,-46.18119812011719,17.992673873901367,-36.88498306274414
-0.03169930353760719,0.30049318075180054,9.630258560180664,-0.0005727194893354142,0.016504176237249982,0.0020740435894468653,3.0699965953826904,2019-08-06 14:46:43:005,168.1022128108702,177.84116683371107,0,-46.18119812011719,17.992673873901367,-36.88498306274414
-0.012541304342448711,0.3148616850376129,9.599126815795898,0.0034229976195586987,0.009844647527370716,0.0007421378864821609,3.07997465133667,2019-08-06 14:46:43:015,168.3331557853385,177.8448519136924,0,-46.18119812011719,17.992673873901367,-36.88498306274414
-0.038883551955223083,0.30528268218040466,9.613494873046875,0.0023574731092018,0.009045504664751694,-0.004052722605179625,3.089991569519043,2019-08-06 14:46:43:025,168.5567701967179,177.8502518595548,0,-46.18119812011719,17.992673873901367,-36.88498306274414
-0.06283104419708252,0.29809844493865967,9.66139030456543,0.0023574731092018,0.010111029175108591,-0.0032535792224119516,3.0999743938446045,2019-08-06 14:46:43:035,168.77251507227288,177.85657981114576,0,-46.18119812011719,17.992673873901367,-36.88498306274414
-0.024515053257346153,0.30049318075180054,9.567995071411133,0.0020910919816125757,0.012508459843560263,-0.0021880547120550534,3.109992265701294,2019-08-06 14:46:43:045,168.98709268450827,177.86229508443375,0,-45.881317138671875,17.093040466308594,-35.68547058105469
-0.038883551955223083,0.3100721836090088,9.570389747619629,-0.0013718629371216693,0.016504176237249982,0.0031395680998037635,3.119999647140503,2019-08-06 14:46:43:055,169.19342120120197,177.86870637893256,0,-45.881317138671875,17.093040466308594,-35.68547058105469
-0.02212030254304409,0.2813352048397064,9.685338020324707,-0.005367579850960038,0.009578266919930143,0.00047575672638364575,3.1299872398376465,2019-08-06 14:46:43:065,169.40156411899204,177.88106573341082,0,-45.881317138671875,17.093040466308594,-35.68547058105469
0.00901144277304411,0.2957036793231964,9.599126815795898,0.0020910919816125757,0.012774840451000838,0.0007421378864821609,3.139979362487793,2019-08-06 14:46:43:075,162.4074411908272,177.88698212074343,0,-45.881317138671875,17.093040466308594,-35.68547058105469
-0.02212030254304409,0.2502034604549408,9.635047912597656,-0.0019046251923001184,0.011176553685465489,0.0010085190140713856,3.1499900817871094,2019-08-06 14:46:43:085,162.7503792129354,177.90056255544286,0,-45.881317138671875,17.093040466308594,-35.68547058105469
-0.03169930353760719,0.3220459520816803,9.639837265014648,-0.0016382440647108938,0.009311885272192268,-0.002987198094822727,3.15997314453125,2019-08-06 14:46:43:095,163.0863836984537,177.90520130852642,0,-45.881317138671875,17.093040466308594,-35.68547058105469
-0.03169930353760719,0.27415093779563904,9.599126815795898,0.0004928051185493561,0.011442934292906064,-0.004052722605179625,3.169997215270996,2019-08-06 14:46:43:105,163.41443121046004,177.91410146635874,0,-45.881317138671875,17.093040466308594,-35.68547058105469
-0.024515053257346153,0.31725645065307617,9.58236312866211,-0.0003063383292368989,0.009578266919930143,0.0018076624618576407,3.1799733638763428,2019-08-06 14:46:43:115,163.73784558163374,177.91806548827213,0,-45.881317138671875,17.093040466308594,-35.68547058105469
-0.03409405052661896,0.27894043922424316,9.656600952148438,0.0002264239747054862,0.009578266919930143,-0.002987198094822727,3.189988374710083,2019-08-06 14:46:43:125,164.05365660626734,177.9264851511539,0,-45.881317138671875,17.093040466308594,-35.68547058105469
-0.053252048790454865,0.2837299406528473,9.575179100036621,-0.0013718629371216693,0.011176553685465489,0.00047575672638364575,3.199986219406128,2019-08-06 14:46:43:135,164.35993630026428,177.93477995484102,0,-45.881317138671875,17.093040466308594,-35.68547058105469
-0.046067800372838974,0.28612470626831055,9.58236312866211,-0.004568436468192365,0.011709315940643939,-0.0019216735844658289,3.209995746612549,2019-08-06 14:46:43:145,164.6606475281083,177.9444456514473,0,-45.881317138671875,17.093040466308594,-35.68547058105469
-0.04127829894423485,0.3076774477958679,9.635047912597656,-0.005101198723370813,0.010910172037727614,0.0023404247170360896,3.2199788093566895,2019-08-06 14:46:43:155,164.95640962571238,177.9518359372489,0,-45.881317138671875,17.093040466308594,-35.68547058105469
-0.05804154649376869,0.29809844493865967,9.651811599731445,-0.0008391006169246387,0.010111029175108591,0.0028731869722145387,3.2299840450286865,2019-08-06 14:46:43:165,165.24471020646206,177.95788999662182,0,-45.881317138671875,17.093040466308594,-35.68547058105469
-0.053252048790454865,0.2621771991252899,9.551231384277344,-0.0019046251923001184,0.016770557884987856,0.0020740435894468653,3.2399866580963135,2019-08-06 14:46:43:175,165.5240080110887,177.96835492645792,0,-45.881317138671875,17.093040466308594,-35.68547058105469
-0.02930455282330513,0.30528268218040466,9.668574333190918,-0.0008391006169246387,0.011975696548084513,-0.000856149009090349,3.249985456466675,2019-08-06 14:46:43:185,165.8033311682401,177.97328895977046,0,-45.881317138671875,17.093040466308594,-35.68547058105469
-0.03169930353760719,0.29330894351005554,9.680547714233398,0.002890235364380249,0.011975696548084513,0.00047575672638364575,3.2600018978118896,2019-08-06 14:46:43:195,166.07677682321966,177.9774884046975,0,-45.881317138671875,17.093040466308594,-35.68547058105469
-0.038883551955223083,0.27175620198249817,9.680547714233398,0.0002264239747054862,0.004250643847997001,-0.001655292456876604,3.2699897289276123,2019-08-06 14:46:43:205,166.34825472199637,177.9856515006811,0,-45.881317138671875,17.093040466308594,-35.68547058105469
-0.06762054562568665,0.29330894351005554,9.596732139587402,-0.002171006319889343,0.01064379143028704,0.0023404247170360896,3.2799875736236572,2019-08-06 14:46:43:215,166.60724021829162,177.99214502611076,0,-45.881317138671875,17.093040466308594,-35.68547058105469
-0.04846255108714104,0.3028879463672638,9.599126815795898,-0.002171006319889343,0.014639508864274061,0.00553699850818111,3.2899787425994873,2019-08-06 14:46:43:225,166.86109734079744,177.9973741848267,0,-45.881317138671875,17.093040466308594,-35.68547058105469
-0.07001529633998871,0.34359869360923767,9.682943344116211,0.002890235364380249,0.011709315940643939,0.001541281334268416,3.2999887466430664,2019-08-06 14:46:43:235,167.10900832497447,177.99515651924193,0,-45.881317138671875,17.093040466308594,-35.68547058105469
-0.038883551955223083,0.28612470626831055,9.675758361816406,-0.0008391006169246387,0.011975696548084513,0.0010085190140713856,3.3099870681762695,2019-08-06 14:46:43:245,167.3554999331491,178.0018481277148,0,-45.881317138671875,17.093040466308594,-35.68547058105469
-0.03648880124092102,0.2885194420814514,9.58236312866211,-0.0016382440647108938,0.012774840451000838,-0.0021880547120550534,3.3199949264526367,2019-08-06 14:46:43:255,167.59684771685366,178.0082393213729,0,-45.881317138671875,17.093040466308594,-35.68547058105469
-0.05804154649376869,0.3100721836090088,9.666179656982422,0.002890235364380249,0.009578266919930143,0.0028731869722145387,3.3299777507781982,2019-08-06 14:46:43:265,167.83266113352005,178.00970832325385,0,-45.881317138671875,17.093040466308594,-35.68547058105469
-0.02930455282330513,0.31725645065307617,9.630258560180664,-0.0008391006169246387,0.014905889471714633,-0.004851865987947299,3.3399910926818848,2019-08-06 14:46:43:275,168.06414013567792,178.01224887562998,0,-45.881317138671875,17.093040466308594,-35.68547058105469
-0.07480479776859283,0.3292301893234253,9.66139030456543,0.0007591862786478714,0.008779123017013819,0.004471473997824211,3.349990129470825,2019-08-06 14:46:43:285,168.289056092046,178.0125435157044,0,-45.881317138671875,17.093040466308594,-35.68547058105469
-0.04127829894423485,0.30049318075180054,9.596732139587402,-0.0013718629371216693,0.01570503337463096,-0.003519960350001176,3.359992265701294,2019-08-06 14:46:43:295,168.50952585012712,178.0171938833725,0,-48.28034210205078,18.292551040649414,-37.18486022949219
-0.05564679950475693,0.2765457034111023,9.59194278717041,-0.0013718629371216693,0.011975696548084513,0.00020937558253977584,3.3699846267700195,2019-08-06 14:46:43:305,168.72596828009938,178.02459092564087,0,-48.28034210205078,18.292551040649414,-37.18486022949219
0.006616693455725908,0.31965118646621704,9.601521492004395,-0.0005727194893354142,0.016770557884987856,0.003405949227392988,3.3800010681152344,2019-08-06 14:46:43:315,161.74280647115575,178.0262857983644,0,-48.28034210205078,18.292551040649414,-37.18486022949219
-0.04846255108714104,0.24541394412517548,9.579968452453613,-0.0016382440647108938,0.00718083625147847,-0.003519960350001176,3.3899741172790527,2019-08-06 14:46:43:325,162.09813234123706,178.03732850880291,0,-48.28034210205078,18.292551040649414,-37.18486022949219
0.00901144277304411,0.29809844493865967,9.565600395202637,-0.0016382440647108938,0.006914455123889247,0.0012749002066791914,3.3999927043914795,2019-08-06 14:46:43:335,155.25335955060092,178.04180423074484,0,-48.28034210205078,18.292551040649414,-37.18486022949219
-0.019725553691387177,0.28612470626831055,9.601521492004395,0.003955759874737148,0.013840364961357736,0.003672330354982212,3.4099841117858887,2019-08-06 14:46:43:345,155.73817350300135,178.04461079489033,0,-48.28034210205078,18.292551040649414,-37.18486022949219
-0.05804154649376869,0.2957036793231964,9.577573776245117,0.0012919485988449018,0.010377409782549165,-0.0021880547120550534,3.4199938774108887,2019-08-06 14:46:43:355,156.21063310425404,178.047624002628,0,-48.28034210205078,18.292551040649414,-37.18486022949219
-0.0508572980761528,0.32683542370796204,9.647021293640137,-0.0016382440647108938,0.016237795629809405,0.00047575672638364575,3.4301066398620605,2019-08-06 14:46:43:365,156.67115913341996,178.0487936625678,0,-48.28034210205078,18.292551040649414,-37.18486022949219
-0.03648880124092102,0.31246694922447205,9.618284225463867,-0.005367579850960038,0.011975696548084513,0.00047575672638364575,3.439985752105713,2019-08-06 14:46:43:375,157.12674567328452,178.05358124028416,0,-48.28034210205078,18.292551040649414,-37.18486022949219
-0.026909802109003067,0.2837299406528473,9.709284782409668,0.0020910919816125757,0.009311885272192268,0.0012749002066791914,3.4500255584716797,2019-08-06 14:46:43:385,157.5757853774903,178.05785376192983,0,-48.28034210205078,18.292551040649414,-37.18486022949219
-0.04367304965853691,0.30049318075180054,9.587152481079102,-0.0008391006169246387,0.01410674660909561,0.003938711482571438,3.4599902629852295,2019-08-06 14:46:43:395,158.01115667205718,178.06126113409556,0,-48.28034210205078,18.292551040649414,-37.18486022949219
-0.05564679950475693,0.30528268218040466,9.630258560180664,-3.9957173202045016e-05,0.006381692868710797,-0.001122530201698155,3.470029830932617,2019-08-06 14:46:43:405,158.44071464506604,178.06374465789693,0,-48.28034210205078,18.292551040649414,-37.18486022949219
-0.017330802977085114,0.29809844493865967,9.625469207763672,-0.0005727194893354142,0.011975696548084513,-0.0027208169672335025,3.4799742698669434,2019-08-06 14:46:43:415,158.86315013985129,178.06731217106267,0,-48.28034210205078,18.292551040649414,-37.18486022949219
-0.05564679950475693,0.3220459520816803,9.589548110961914,-0.0013718629371216693,0.011975696548084513,-0.004052722605179625,3.4899790287017822,2019-08-06 14:46:43:425,159.27251008730633,178.0682677488713,0,-48.28034210205078,18.292551040649414,-37.18486022949219
-0.0029623054433614016,0.29330894351005554,9.55362606048584,-0.0003063383292368989,0.015172271119452508,0.0023404247170360896,3.4999940395355225,2019-08-06 14:46:43:435,159.67817257238045,178.0719045852223,0,-48.28034210205078,18.292551040649414,-37.18486022949219
-0.04127829894423485,0.2645719349384308,9.606310844421387,-0.003502911957835466,0.010377409782549165,0.0007421378864821609,3.5099825859069824,2019-08-06 14:46:43:445,160.07386492662906,178.08087889580523,0,-48.28034210205078,18.292551040649414,-37.18486022949219
-0.060436297208070755,0.29809844493865967,9.63265323638916,0.004754903517579147,0.013307602706179285,-0.0005897678815011245,3.5199854373931885,2019-08-06 14:46:43:455,160.45772379389442,178.08113973870866,0,-48.28034210205078,18.292551040649414,-37.18486022949219
-0.03409405052661896,0.3076774477958679,9.587152481079102,0.002890235364380249,0.014373127216536186,0.0018076624618576407,3.529980182647705,2019-08-06 14:46:43:465,160.8364279534765,178.08113204514908,0,-48.28034210205078,18.292551040649414,-37.18486022949219
-0.053252048790454865,0.27175620198249817,9.579968452453613,0.0026238542367910244,0.012774840451000838,-0.0032535792224119516,3.539992332458496,2019-08-06 14:46:43:475,161.20614790293922,178.08553670315217,0,-48.28034210205078,18.292551040649414,-37.18486022949219
-0.007751804776489735,0.3148616850376129,9.623074531555176,-0.0011054818095324445,0.012242078195822388,0.0031395680998037635,3.5499768257141113,2019-08-06 14:46:43:485,161.57423860921662,178.0869653789117,0,-48.28034210205078,18.292551040649414,-37.18486022949219
-0.02930455282330513,0.25978243350982666,9.618284225463867,0.0002264239747054862,0.012242078195822388,0.0018076624618576407,3.559999465942383,2019-08-06 14:46:43:495,161.93237305116853,178.0941558738387,0,-48.28034210205078,18.292551040649414,-37.18486022949219
-0.06762054562568665,0.3364144265651703,9.647021293640137,0.0007591862786478714,0.01357398435391716,-0.001655292456876604,3.570368766784668,2019-08-06 14:46:43:505,162.2777902095822,178.09188613417348,0,-48.28034210205078,18.292551040649414,-37.18486022949219
-0.038883551955223083,0.27894043922424316,9.627863883972168,0.0007591862786478714,0.006914455123889247,0.0010085190140713856,3.5799944400787354,2019-08-06 14:46:43:515,162.62386935459193,178.09644767020998,0,-48.28034210205078,18.292551040649414,-37.18486022949219
-0.010146554559469223,0.31965118646621704,9.658995628356934,0.0015583297264341264,0.007979980154394795,-5.7005565367755386e-05,3.5899760723114014,2019-08-06 14:46:43:525,162.96571569189268,178.09573665727734,0,-48.28034210205078,18.292551040649414,-37.18486022949219
-0.03409405052661896,0.29330894351005554,9.596732139587402,0.001824710854023351,0.012508459843560263,0.004471473997824211,3.5999903678894043,2019-08-06 14:46:43:535,163.29529680822407,178.0977836878686,0,-48.28034210205078,18.292551040649414,-37.18486022949219
-0.03409405052661896,0.34599342942237854,9.606310844421387,0.004222141002326372,0.011442934292906064,-0.003519960350001176,3.609998941421509,2019-08-06 14:46:43:545,163.61889318450463,178.09220029671212,0,-46.33113479614258,17.842735290527344,-35.83540725708008
-0.026909802109003067,0.2573876976966858,9.675758361816406,0.0023574731092018,0.009578266919930143,-5.7005565367755386e-05,3.6199774742126465,2019-08-06 14:46:43:555,163.93796171960116,178.09855976352642,0,-46.33113479614258,17.842735290527344,-35.83540725708008
-0.0508572980761528,0.2909142076969147,9.618284225463867,0.0004928051185493561,0.016504176237249982,0.0028731869722145387,3.6299855709075928,2019-08-06 14:46:43:565,164.24386886333323,178.1016628847349,0,-46.33113479614258,17.842735290527344,-35.83540725708008
-0.02212030254304409,0.3292301893234253,9.613494873046875,0.0007591862786478714,0.011975696548084513,-0.0003233867214026093,3.639988422393799,2019-08-06 14:46:43:575,164.54962852581497,178.09997476138577,0,-46.33113479614258,17.842735290527344,-35.83540725708008
-0.04367304965853691,0.30528268218040466,9.639837265014648,-0.0013718629371216693,0.012508459843560263,0.0023404247170360896,3.650001049041748,2019-08-06 14:46:43:585,164.84641209645557,178.10246881914296,0,-46.33113479614258,17.842735290527344,-35.83540725708008
-0.005357054993510246,0.29809844493865967,9.601521492004395,-0.0003063383292368989,0.011176553685465489,0.0026068058446253144,3.6599743366241455,2019-08-06 14:46:43:595,165.14258564859733,178.10502517420534,0,-46.33113479614258,17.842735290527344,-35.83540725708008
-0.005357054993510246,0.2837299406528473,9.63265323638916,-0.002703768575067792,0.011709315940643939,0.006069760763359559,3.669985771179199,2019-08-06 14:46:43:605,165.43251436907917,178.11070136498688,0,-46.33113479614258,17.842735290527344,-35.83540725708008
-0.03169930353760719,0.30528268218040466,9.642231941223145,0.002890235364380249,0.012242078195822388,-0.005118247115536523,3.679988145828247,2019-08-06 14:46:43:615,165.71322129982124,178.11059537393277,0,-46.33113479614258,17.842735290527344,-35.83540725708008
-0.03169930353760719,0.3076774477958679,9.587152481079102,0.0020910919816125757,0.009045504664751694,0.0020740435894468653,3.689990520477295,2019-08-06 14:46:43:625,165.9900877467241,178.11044615399905,0,-46.33113479614258,17.842735290527344,-35.83540725708008
-0.010146554559469223,0.3100721836090088,9.611100196838379,0.0010255674062370958,0.010111029175108591,-0.0005897678815011245,3.699995279312134,2019-08-06 14:46:43:635,166.26339620444,178.1107045265126,0,-46.33113479614258,17.842735290527344,-35.83540725708008
-0.060436297208070755,0.29330894351005554,9.706890106201172,0.0023574731092018,0.013307602706179285,0.004205092610160662,3.7099883556365967,2019-08-06 14:46:43:645,166.52352673318063,178.112552526076,0,-46.33113479614258,17.842735290527344,-35.83540725708008
-0.04127829894423485,0.2645719349384308,9.615889549255371,0.0010255674062370958,0.011442934292906064,0.0023404247170360896,3.719992160797119,2019-08-06 14:46:43:655,166.78170949971084,178.11820459086363,0,-46.33113479614258,17.842735290527344,-35.83540725708008
-0.06762054562568665,0.32683542370796204,9.606310844421387,0.0004928051185493561,0.011975696548084513,0.00899995316684103,3.729984998703003,2019-08-06 14:46:43:665,167.03128961621607,178.11659154550955,0,-46.33113479614258,17.842735290527344,-35.83540725708008
-0.053252048790454865,0.2765457034111023,9.663784980773926,0.0007591862786478714,0.012774840451000838,0.0031395680998037635,3.7399933338165283,2019-08-06 14:46:43:675,167.2771703138547,178.12104969351185,0,-46.33113479614258,17.842735290527344,-35.83540725708008
-0.1035417914390564,0.31246694922447205,9.567995071411133,-3.9957173202045016e-05,0.010377409782549165,0.006336141890948784,3.749990701675415,2019-08-06 14:46:43:685,167.51340129078642,178.12124166870856,0,-46.33113479614258,17.842735290527344,-35.83540725708008
-0.07241004705429077,0.26696670055389404,9.611100196838379,-0.0003063383292368989,0.015172271119452508,0.0007421378864821609,3.7599754333496094,2019-08-06 14:46:43:695,167.74599389590676,178.12716676525497,0,-46.33113479614258,17.842735290527344,-35.83540725708008
-0.03169930353760719,0.2885194420814514,9.623074531555176,-0.002970149702657017,0.013041222098738713,0.003672330354982212,3.7699930667877197,2019-08-06 14:46:43:705,167.9799637382143,178.13194750352358,0,-46.33113479614258,17.842735290527344,-35.83540725708008
-0.053252048790454865,0.30049318075180054,9.587152481079102,0.0010255674062370958,0.00824636128198402,0.0023404247170360896,3.7799723148345947,2019-08-06 14:46:43:715,168.20937880380285,178.13282885027127,0,-46.33113479614258,17.842735290527344,-35.83540725708008
-0.0508572980761528,0.29809844493865967,9.623074531555176,0.005021284645168371,0.009311885272192268,0.007934428656484131,3.789996862411499,2019-08-06 14:46:43:725,168.4338937518327,178.13185969675646,0,-46.33113479614258,17.842735290527344,-35.83540725708008
-0.05564679950475693,0.31246694922447205,9.66139030456543,-3.9957173202045016e-05,0.015172271119452508,0.006336141890948784,3.799978017807007,2019-08-06 14:46:43:735,168.6501126536331,178.1321968140717,0,-46.33113479614258,17.842735290527344,-35.83540725708008
-0.06522579491138458,0.31246694922447205,9.615889549255371,-0.006699486009054812,0.011975696548084513,0.0020740435894468653,3.8099892139434814,2019-08-06 14:46:43:745,168.86260576342409,178.13609557718064,0,-46.33113479614258,17.842735290527344,-35.83540725708008
-0.05804154649376869,0.2813352048397064,9.647021293640137,-0.0016382440647108938,0.013307602706179285,-5.7005565367755386e-05,3.819990634918213,2019-08-06 14:46:43:755,169.0709860387523,178.14088490495598,0,-46.33113479614258,17.842735290527344,-35.83540725708008
-0.024515053257346153,0.34599342942237854,9.618284225463867,-0.0008391006169246387,0.013840364961357736,0.0026068058446253144,3.829989194869995,2019-08-06 14:46:43:765,169.27887539118822,178.13733464665123,0,-46.33113479614258,17.842735290527344,-35.83540725708008
-0.09156804531812668,0.2645719349384308,9.623074531555176,0.0023574731092018,0.014905889471714633,0.0010085190140713856,3.8399980068206787,2019-08-06 14:46:43:775,169.474017278857,178.14176578133007,0,-46.33113479614258,17.842735290527344,-35.83540725708008
-0.0149360541254282,0.34359869360923767,9.658995628356934,-0.003236530830246241,0.011709315940643939,-0.002987198094822727,3.849977970123291,2019-08-06 14:46:43:785,169.67620337267928,178.13999774816975,0,-46.33113479614258,17.842735290527344,-35.83540725708008
-0.0508572980761528,0.2885194420814514,9.62067985534668,0.003955759874737148,0.017303320140166306,0.003405949227392988,3.8599913120269775,2019-08-06 14:46:43:795,169.8668930144124,178.14061852967905,0,-47.53064727783203,18.14261245727539,-36.13528823852539
-0.053252048790454865,0.2909142076969147,9.584757804870605,-0.0003063383292368989,0.016237795629809405,-0.0021880547120550534,3.8699839115142822,2019-08-06 14:46:43:805,170.05407786336372,178.14320816702792,0,-47.53064727783203,18.14261245727539,-36.13528823852539
-0.03409405052661896,0.2957036793231964,9.594337463378906,0.005820428027936045,0.011442934292906064,-0.0027208169672335025,3.879992961883545,2019-08-06 14:46:43:815,170.24249323675684,178.14176620120412,0,-47.53064727783203,18.14261245727539,-36.13528823852539
-0.02930455282330513,0.31246694922447205,9.649415969848633,0.0034229976195586987,0.016770557884987856,-0.0005897678815011245,3.8899948596954346,2019-08-06 14:46:43:825,170.42474489045557,178.13991447923186,0,-47.53064727783203,18.14261245727539,-36.13528823852539
-0.005357054993510246,0.29809844493865967,9.599126815795898,-3.9957173202045016e-05,0.013307602706179285,-0.0024544358396442778,3.899979829788208,2019-08-06 14:46:43:835,170.60814951304582,178.14156390735232,0,-47.53064727783203,18.14261245727539,-36.13528823852539
0.006616693455725908,0.2957036793231964,9.678153038024902,0.001824710854023351,0.01357398435391716,-5.7005565367755386e-05,3.909993886947632,2019-08-06 14:46:43:845,163.5891374666013,178.14270550902816,0,-47.53064727783203,18.14261245727539,-36.13528823852539
-0.0508572980761528,0.2813352048397064,9.656600952148438,0.003955759874737148,0.012774840451000838,-0.0013889113292873795,3.9199798107147217,2019-08-06 14:46:43:855,163.90415675402022,178.1442577322204,0,-47.53064727783203,18.14261245727539,-36.13528823852539
-0.03409405052661896,0.3076774477958679,9.579968452453613,-0.004568436468192365,0.008512742409573244,0.0010085190140713856,3.9299910068511963,2019-08-06 14:46:43:865,164.21721020411613,178.14715018250624,0,-47.53064727783203,18.14261245727539,-36.13528823852539
-0.0029623054433614016,0.2573876976966858,9.596732139587402,-0.003502911957835466,0.01357398435391716,-0.001655292456876604,3.939987897872925,2019-08-06 14:46:43:875,164.52489287632173,178.15544695859418,0,-47.53064727783203,18.14261245727539,-36.13528823852539
-0.02930455282330513,0.29330894351005554,9.546442031860352,0.0026238542367910244,0.009311885272192268,0.0010085190140713856,3.9499948024749756,2019-08-06 14:46:43:885,164.82564521093937,178.1556671860997,0,-47.53064727783203,18.14261245727539,-36.13528823852539
-0.07001529633998871,0.2885194420814514,9.658995628356934,0.0002264239747054862,0.01570503337463096,0.0010085190140713856,3.959987163543701,2019-08-06 14:46:43:895,165.1120144192885,178.15820785694407,0,-47.53064727783203,18.14261245727539,-36.13528823852539
-0.05804154649376869,0.27175620198249817,9.639837265014648,0.0002264239747054862,0.009045504664751694,-0.001655292456876604,3.96999192237854,2019-08-06 14:46:43:905,165.3977931906554,178.16262060337183,0,-47.53064727783203,18.14261245727539,-36.13528823852539
-0.024515053257346153,0.30528268218040466,9.62067985534668,-0.0016382440647108938,0.013307602706179285,0.0018076624618576407,3.9799964427948,2019-08-06 14:46:43:915,165.67944177575305,178.1639385696443,0,-47.53064727783203,18.14261245727539,-36.13528823852539
-0.026909802109003067,0.2837299406528473,9.613494873046875,0.001824710854023351,0.015438651726893083,0.0010085190140713856,3.9899802207946777,2019-08-06 14:46:43:925,165.95399061715145,178.16582647704158,0,-47.53064727783203,18.14261245727539,-36.13528823852539
-0.012541304342448711,0.30049318075180054,9.59194278717041,-0.003236530830246241,0.009311885272192268,0.0028731869722145387,3.999988317489624,2019-08-06 14:46:43:935,166.22817969588854,178.16844160267652,0,-47.53064727783203,18.14261245727539,-36.13528823852539
-0.046067800372838974,0.28612470626831055,9.647021293640137,-0.002171006319889343,0.012774840451000838,0.0028731869722145387,4.009987115859985,2019-08-06 14:46:43:945,166.49097181416406,178.17231445170964,0,-47.53064727783203,18.14261245727539,-36.13528823852539
-0.026909802109003067,0.29809844493865967,9.601521492004395,0.0023574731092018,0.016237795629809405,-0.001655292456876604,4.019989013671875,2019-08-06 14:46:43:955,166.7488215437964,178.17197837588253,0,-47.53064727783203,18.14261245727539,-36.13528823852539
-0.053252048790454865,0.3148616850376129,9.618284225463867,-3.9957173202045016e-05,0.010111029175108591,0.00020937558253977584,4.030002593994141,2019-08-06 14:46:43:965,167.0018157271394,178.17106226711056,0,-47.53064727783203,18.14261245727539,-36.13528823852539
-0.024515053257346153,0.2837299406528473,9.654206275939941,0.004488522389989922,0.009844647527370716,0.00553699850818111,4.039975166320801,2019-08-06 14:46:43:975,167.253356985446,178.17145971948102,0,-47.53064727783203,18.14261245727539,-36.13528823852539
-0.019725553691387177,0.28612470626831055,9.666179656982422,0.0023574731092018,0.010910172037727614,0.0012749002066791914,4.0499937534332275,2019-08-06 14:46:43:985,167.49981397171135,178.172794460639,0,-47.53064727783203,18.14261245727539,-36.13528823852539
-0.060436297208070755,0.31725645065307617,9.575179100036621,-0.0003063383292368989,0.016504176237249982,0.0010085190140713856,4.0599846839904785,2019-08-06 14:46:43:995,167.73332636860385,178.1715564430927,0,-47.53064727783203,18.14261245727539,-36.13528823852539
-0.05804154649376869,0.30528268218040466,9.680547714233398,0.0004928051185493561,0.011975696548084513,0.00020937558253977584,4.069998025894165,2019-08-06 14:46:44:005,167.96505606201984,178.17172297739873,0,-47.53064727783203,18.14261245727539,-36.13528823852539
-0.03169930353760719,0.3076774477958679,9.639837265014648,-0.004568436468192365,0.01410674660909561,0.0007421378864821609,4.079984426498413,2019-08-06 14:46:44:015,168.19407661857966,178.17428809609655,0,-47.53064727783203,18.14261245727539,-36.13528823852539
-0.02930455282330513,0.3220459520816803,9.596732139587402,0.0026238542367910244,0.010111029175108591,0.0028731869722145387,4.089992046356201,2019-08-06 14:46:44:025,168.42101427746616,178.17088785227875,0,-47.53064727783203,18.14261245727539,-36.13528823852539
-0.05804154649376869,0.33162492513656616,9.575179100036621,0.001824710854023351,0.01357398435391716,0.001541281334268416,4.099987030029297,2019-08-06 14:46:44:035,168.63802996794092,178.16677447167564,0,-47.53064727783203,18.14261245727539,-36.13528823852539
-0.02212030254304409,0.2909142076969147,9.58236312866211,-0.0024373874474785677,0.011975696548084513,0.0018076624618576407,4.109990835189819,2019-08-06 14:46:44:045,168.85589720079435,178.17002953561456,0,-46.481075286865234,18.592430114746094,-36.58510208129883
-0.06283104419708252,0.31246694922447205,9.635047912597656,-0.004834817595781589,0.009578266919930143,0.0012749002066791914,4.119991302490234,2019-08-06 14:46:44:055,169.0659283053174,178.1721945136382,0,-46.481075286865234,18.592430114746094,-36.58510208129883
-0.03409405052661896,0.2693614363670349,9.651811599731445,0.003955759874737148,0.012508459843560263,-0.004585484860358075,4.129991292953491,2019-08-06 14:46:44:065,169.2735384483741,178.17455771499533,0,-46.481075286865234,18.592430114746094,-36.58510208129883
-0.03409405052661896,0.2693614363670349,9.613494873046875,0.0020910919816125757,0.01064379143028704,0.004737855125413436,4.1399853229522705,2019-08-06 14:46:44:075,169.47803082527278,178.1777939956107,0,-46.481075286865234,18.592430114746094,-36.58510208129883
-0.08198904246091843,0.3028879463672638,9.62067985534668,-0.0011054818095324445,0.013041222098738713,-0.0027208169672335025,4.149991512298584,2019-08-06 14:46:44:085,169.671377600209,178.1787942685386,0,-46.481075286865234,18.592430114746094,-36.58510208129883
-0.038883551955223083,0.2549929618835449,9.611100196838379,0.0034229976195586987,0.01357398435391716,0.001541281334268416,4.159986972808838,2019-08-06 14:46:44:095,169.86569573802197,178.18290198817897,0,-46.481075286865234,18.592430114746094,-36.58510208129883
-0.03169930353760719,0.30049318075180054,9.637442588806152,0.0004928051185493561,0.009311885272192268,0.0020740435894468653,4.169997692108154,2019-08-06 14:46:44:105,170.0593784962064,178.18324913697793,0,-46.481075286865234,18.592430114746094,-36.58510208129883
-0.03409405052661896,0.31246694922447205,9.611100196838379,0.001824710854023351,0.007713599026805571,0.001541281334268416,4.1799867153167725,2019-08-06 14:46:44:115,170.24979954492662,178.18131890578812,0,-46.481075286865234,18.592430114746094,-36.58510208129883
-0.026909802109003067,0.3028879463672638,9.63265323638916,0.0020910919816125757,0.01570503337463096,0.0028731869722145387,4.189990520477295,2019-08-06 14:46:44:125,170.43278061954786,178.18049777688327,0,-46.481075286865234,18.592430114746094,-36.58510208129883
-0.0771995484828949,0.30528268218040466,9.623074531555176,0.0015583297264341264,0.012508459843560263,0.003405949227392988,4.199994802474976,2019-08-06 14:46:44:135,170.60790579249587,178.17967157686903,0,-46.481075286865234,18.592430114746094,-36.58510208129883
-0.024515053257346153,0.2693614363670349,9.615889549255371,0.0034229976195586987,0.012508459843560263,0.0031395680998037635,4.2099854946136475,2019-08-06 14:46:44:145,170.7858093036694,178.18206679462656,0,-46.481075286865234,18.592430114746094,-36.58510208129883
-0.005357054993510246,0.3028879463672638,9.666179656982422,-0.0008391006169246387,0.012774840451000838,-0.001122530201698155,4.219995021820068,2019-08-06 14:46:44:155,170.9622781548904,178.18300175413373,0,-46.481075286865234,18.592430114746094,-36.58510208129883
-0.017330802977085114,0.24541394412517548,9.63265323638916,0.0015583297264341264,0.011176553685465489,0.003405949227392988,4.229973554611206,2019-08-06 14:46:44:165,171.13470874673555,178.18928008260627,0,-46.481075286865234,18.592430114746094,-36.58510208129883
-0.03648880124092102,0.25978243350982666,9.627863883972168,0.001824710854023351,0.012774840451000838,0.00020937558253977584,4.239997863769531,2019-08-06 14:46:44:175,171.3004811754422,178.1935554176475,0,-46.481075286865234,18.592430114746094,-36.58510208129883
-0.06522579491138458,0.32444068789482117,9.584757804870605,0.0010255674062370958,0.012508459843560263,-0.0019216735844658289,4.249985933303833,2019-08-06 14:46:44:185,171.45965843138558,178.1903351056036,0,-46.481075286865234,18.592430114746094,-36.58510208129883
-0.02930455282330513,0.2909142076969147,9.706890106201172,-0.004834817595781589,0.007713599026805571,0.0007421378864821609,4.259994983673096,2019-08-06 14:46:44:195,171.62267072361038,178.19491294249607,0,-46.481075286865234,18.592430114746094,-36.58510208129883
-0.0149360541254282,0.27175620198249817,9.647021293640137,0.001824710854023351,0.013307602706179285,0.004471473997824211,4.2699830532073975,2019-08-06 14:46:44:205,171.7809798542718,178.19771947184486,0,-46.481075286865234,18.592430114746094,-36.58510208129883
0.006616693455725908,0.3100721836090088,9.623074531555176,-0.0011054818095324445,0.011709315940643939,0.007401666401305682,4.279991149902344,2019-08-06 14:46:44:215,164.7395680844794,178.1974756904229,0,-46.481075286865234,18.592430114746094,-36.58510208129883
-0.03409405052661896,0.3100721836090088,9.656600952148438,0.0012919485988449018,0.014639508864274061,0.0007421378864821609,4.289974689483643,2019-08-06 14:46:44:225,165.03252438226392,178.1960193827742,0,-46.481075286865234,18.592430114746094,-36.58510208129883
-0.0005675556603819132,0.28612470626831055,9.551231384277344,0.001824710854023351,0.012242078195822388,-0.005917390498304197,4.2999958992004395,2019-08-06 14:46:44:235,165.32491731211863,178.19675450313642,0,-46.481075286865234,18.592430114746094,-36.58510208129883
-0.07001529633998871,0.27175620198249817,9.625469207763672,0.0020910919816125757,0.013041222098738713,0.004471473997824211,4.30998420715332,2019-08-06 14:46:44:245,165.60276969971963,178.19930255850255,0,-46.481075286865234,18.592430114746094,-36.58510208129883
-0.046067800372838974,0.28612470626831055,9.670969009399414,-0.0005727194893354142,0.006914455123889247,0.007668047528894907,4.320002317428589,2019-08-06 14:46:44:255,165.8813662731887,178.20174556823142,0,-46.481075286865234,18.592430114746094,-36.58510208129883
-0.05564679950475693,0.34599342942237854,9.625469207763672,-0.0008391006169246387,0.011709315940643939,-0.0032535792224119516,4.329976797103882,2019-08-06 14:46:44:265,166.15055626396935,178.19700769231508,0,-46.481075286865234,18.592430114746094,-36.58510208129883
-0.053252048790454865,0.29330894351005554,9.64462661743164,0.0007591862786478714,0.012508459843560263,0.0026068058446253144,4.339980602264404,2019-08-06 14:46:44:275,166.41419196427543,178.1978026557999,0,-46.481075286865234,18.592430114746094,-36.58510208129883
-0.038883551955223083,0.2957036793231964,9.663784980773926,-0.0011054818095324445,0.015438651726893083,0.001541281334268416,4.349992513656616,2019-08-06 14:46:44:285,166.67261829512861,178.19941495432752,0,-46.481075286865234,18.592430114746094,-36.58510208129883
-0.06283104419708252,0.31965118646621704,9.584757804870605,0.004754903517579147,0.0074472173790676955,0.0012749002066791914,4.359977722167969,2019-08-06 14:46:44:295,166.9274787894152,178.19455866455735,0,-46.631011962890625,18.14261245727539,-36.43516540527344
0.00422194367274642,0.31246694922447205,9.613494873046875,0.0015583297264341264,0.011709315940643939,0.007401666401305682,4.3699915409088135,2019-08-06 14:46:44:305,159.98284861310745,178.19255875189305,0,-46.631011962890625,18.14261245727539,-36.43516540527344
-0.07959429919719696,0.29809844493865967,9.706890106201172,0.0034229976195586987,0.012508459843560263,0.0012749002066791914,4.379986763000488,2019-08-06 14:46:44:315,160.3667754758365,178.19160649329905,0,-46.631011962890625,18.14261245727539,-36.43516540527344
-0.04127829894423485,0.33162492513656616,9.596732139587402,0.0010255674062370958,0.011442934292906064,0.0010085190140713856,4.389983177185059,2019-08-06 14:46:44:325,160.74808819683557,178.18761617671882,0,-46.631011962890625,18.14261245727539,-36.43516540527344
-0.06522579491138458,0.2909142076969147,9.608705520629883,0.0023574731092018,0.013840364961357736,0.0007421378864821609,4.399988412857056,2019-08-06 14:46:44:335,161.1175724356252,178.18785617262392,0,-46.631011962890625,18.14261245727539,-36.43516540527344
-0.060436297208070755,0.2957036793231964,9.63265323638916,-3.9957173202045016e-05,0.010377409782549165,0.0007421378864821609,4.409986257553101,2019-08-06 14:46:44:345,161.48220583861206,178.18895514891523,0,-46.631011962890625,18.14261245727539,-36.43516540527344
-0.06522579491138458,0.32444068789482117,9.58236312866211,0.0007591862786478714,0.012508459843560263,-0.0003233867214026093,4.419996976852417,2019-08-06 14:46:44:355,161.83773074456795,178.18596558850953,0,-46.631011962890625,18.14261245727539,-36.43516540527344
-0.017330802977085114,0.28612470626831055,9.584757804870605,0.0002264239747054862,0.013307602706179285,0.001541281334268416,4.429986000061035,2019-08-06 14:46:44:365,162.19144013120462,178.18792150159788,0,-46.631011962890625,18.14261245727539,-36.43516540527344
-0.007751804776489735,0.29809844493865967,9.687732696533203,-0.0019046251923001184,0.009311885272192268,0.0031395680998037635,4.439992189407349,2019-08-06 14:46:44:375,162.54146255776794,178.18998366026096,0,-46.631011962890625,18.14261245727539,-36.43516540527344
-0.02212030254304409,0.2765457034111023,9.62067985534668,0.00555404690034682,0.011442934292906064,-0.001122530201698155,4.449987173080444,2019-08-06 14:46:44:385,162.88157660131978,178.19013677380042,0,-46.631011962890625,18.14261245727539,-36.43516540527344
-0.04367304965853691,0.30049318075180054,9.658995628356934,-0.0003063383292368989,0.010377409782549165,0.0031395680998037635,4.459986686706543,2019-08-06 14:46:44:395,163.21293724094747,178.19086788220397,0,-46.631011962890625,18.14261245727539,-36.43516540527344
-0.010146554559469223,0.26696670055389404,9.687732696533203,0.0010255674062370958,0.01357398435391716,-5.7005565367755386e-05,4.469995975494385,2019-08-06 14:46:44:405,163.5398494556847,178.19490390997973,0,-46.631011962890625,18.14261245727539,-36.43516540527344
-0.07480479776859283,0.2765457034111023,9.627863883972168,-3.9957173202045016e-05,0.01064379143028704,0.0023404247170360896,4.480001926422119,2019-08-06 14:46:44:415,163.85416929154795,178.1981226511913,0,-46.631011962890625,18.14261245727539,-36.43516540527344
-0.024515053257346153,0.31246694922447205,9.627863883972168,-0.0024373874474785677,0.010910172037727614,0.0012749002066791914,4.48998498916626,2019-08-06 14:46:44:425,164.16805244106177,178.19834946798622,0,-46.631011962890625,18.14261245727539,-36.43516540527344
-0.02212030254304409,0.2909142076969147,9.642231941223145,-0.002703768575067792,0.008512742409573244,0.0012749002066791914,4.499994516372681,2019-08-06 14:46:44:435,164.47727809779244,178.20133933966682,0,-46.631011962890625,18.14261245727539,-36.43516540527344
-0.038883551955223083,0.27894043922424316,9.635047912597656,0.0007591862786478714,0.007979980154394795,0.0007421378864821609,4.509994029998779,2019-08-06 14:46:44:445,164.77862753198448,178.20372060887365,0,-46.631011962890625,18.14261245727539,-36.43516540527344
-0.06762054562568665,0.27175620198249817,9.658995628356934,-0.0011054818095324445,0.013041222098738713,-5.7005565367755386e-05,4.519979476928711,2019-08-06 14:46:44:455,165.06772083265778,178.2080341449529,0,-46.631011962890625,18.14261245727539,-36.43516540527344
-0.007751804776489735,0.33162492513656616,9.59194278717041,-0.003502911957835466,0.011709315940643939,-0.0027208169672335025,4.52998423576355,2019-08-06 14:46:44:465,165.35886244162805,178.20623899162936,0,-46.631011962890625,18.14261245727539,-36.43516540527344
-0.03169930353760719,0.29809844493865967,9.625469207763672,0.0010255674062370958,0.010910172037727614,0.001541281334268416,4.539977550506592,2019-08-06 14:46:44:475,165.641789441555,178.20606135391665,0,-46.631011962890625,18.14261245727539,-36.43516540527344
