ACCELEROMETER X (m/s²),ACCELEROMETER Y (m/s²),ACCELEROMETER Z (m/s²),GYROSCOPE X (rad/s),GYROSCOPE Y (rad/s),GYROSCOPE Z (rad/s),Pitch (Deg),Roll (Deg),Heading (Deg),Time since start in ms ,YYYY-MO-DD HH-MI-SS_SSS
0.019610606133937836,0.016401641070842743,9.834202766418457,-0.005320963088613342,-0.003019430146242442,-0.006440030660745744,-3.5977149068358467,3.598088825375206,0,0.0,2019-08-07 13:16:08:274
-0.006731641478836536,-0.0027563569601625204,9.771939277648926,-0.007452012629475789,-0.006216004197461787,-0.0037762191247791726,0.07479466569204396,-0.07193768045846616,0,0.0038526058197021484,2019-08-07 13:16:08:278
0.05074235051870346,-0.03628285229206085,9.776728630065918,-0.005587344736351217,-0.003019430146242442,-0.008038317426281092,-3.5203427184217873,-3.66548551011236,0,0.006277561187744141,2019-08-07 13:16:08:281
-0.04025813564658165,-0.031493354588747025,9.872518539428711,-0.0029235329403103213,-0.0024866678910639927,-0.0051081250227996205,0.14591119764250893,-7.187909162775995,0,0.01000070571899414,2019-08-07 13:16:08:284
0.09624259918928146,-0.031493354588747025,9.75278091430664,-0.005853725863940442,-0.004884098039367014,-0.006440030660745744,-3.4446426353058865,-10.639184264390613,0,0.01385354995727539,2019-08-07 13:16:08:288
0.03876860439777374,-0.02909860387444496,9.791096687316895,-0.006120106991529666,-0.0022202867634747683,-0.004042600252368397,-6.970910386440236,-14.022162326751822,0,0.01627659797668457,2019-08-07 13:16:08:291
0.03397910296916962,0.018796389922499657,9.85096549987793,-0.011714110670903381,-0.0027530490186532175,-0.008837460809048764,-10.426964916698857,-10.141460452761814,0,0.019994020462036133,2019-08-07 13:16:08:294
-0.011521141044795513,0.02119114063680172,9.855754852294922,-0.006919250374297341,-0.0046177169117777896,-0.005640887277978069,-6.61876624587012,-6.339598310800328,0,0.02384662628173828,2019-08-07 13:16:08:298
0.02200535498559475,0.011612141504883766,9.82222843170166,-0.0077183937570650145,-0.003019430146242442,-0.008038317426281092,-10.083310667743268,-2.612849751984325,0,0.02687239646911621,2019-08-07 13:16:08:301
0.026794854551553726,0.011612141504883766,9.848570823669434,-0.008517537139832687,-0.005150479166956239,-0.0027106946144222744,-13.477618573297002,1.0395580773269066,0,0.030012845993041992,2019-08-07 13:16:08:304
-0.011521141044795513,0.025980640202760696,9.870123863220215,-0.006386488119118891,-0.0006219999979394207,-0.0037762191247791726,-9.609268929433364,4.617135380684554,0,0.03387451171875,2019-08-07 13:16:08:308
0.014821105636656284,0.0020331426057964563,9.81025505065918,-0.005320963088613342,-0.007814290962997135,-0.00857107968145954,-13.014294709771356,8.125275347900072,0,0.0362849235534668,2019-08-07 13:16:08:311
0.0028473574202507734,-0.005151106510311365,9.846176147460938,-0.005853725863940442,-0.0006219999979394207,-0.008038317426281092,-16.35354761990919,4.3645910435413775,0,0.040001869201660156,2019-08-07 13:16:08:314
0.05074235051870346,-0.019519604742527008,9.728833198547363,-0.006652869246708115,-0.003019430146242442,-0.007239174043513418,-19.619847522114213,0.6810360027132374,0,0.04385042190551758,2019-08-07 13:16:08:318
0.010031606070697308,0.009217391721904278,9.853360176086426,-0.0077183937570650145,-0.00435133604426289,-0.004042600252368397,-22.82569039660345,4.267396132005788,0,0.0462796688079834,2019-08-07 13:16:08:321
0.03876860439777374,-0.024309104308485985,9.855754852294922,-0.004788200833434893,-0.00435133604426289,-0.005907268405567294,-25.963754305135357,0.5858811606214047,0,0.050023555755615234,2019-08-07 13:16:08:324
0.0746898502111435,-0.02909860387444496,9.829413414001465,-0.008783917747273263,-0.0038185737890844406,-0.005640887277978069,-29.034928699330436,-3.020504237600673,0,0.05395674705505371,2019-08-07 13:16:08:328
0.019610606133937836,0.025980640202760696,9.896466255187988,-0.00425543883833077,-0.0046177169117777896,-0.006706411788334968,-32.05135315803287,0.6374562338407115,0,0.056294918060302734,2019-08-07 13:16:08:331
0.019610606133937836,0.018796389922499657,9.82222843170166,-0.005054581961024118,-0.00435133604426289,-0.005374506150388846,-35.007135366977316,4.223562984736273,0,0.05999016761779785,2019-08-07 13:16:08:334
0.053137101233005524,-0.017124855890870094,9.7982816696167,-0.006919250374297341,-0.008879815473354034,-0.005640887277978069,-37.89885917326762,0.5425898919297008,0,0.06383919715881348,2019-08-07 13:16:08:338
-0.0019421420292928815,0.02837538905441761,9.709675788879395,-0.006120106991529666,-8.92376858697129e-05,-0.007239174043513418,-33.54109596567002,4.129433918865382,0,0.0668790340423584,2019-08-07 13:16:08:341
0.05074235051870346,0.018796389922499657,9.807860374450684,-0.005587344736351217,-0.0054168602945454634,-0.007505555171102641,-36.4633920245535,7.645632668309476,0,0.07001399993896484,2019-08-07 13:16:08:344
0.053137101233005524,-0.04346710070967674,9.774333953857422,-0.006652869246708115,-0.007281528707818685,-0.012034034340119461,-39.32632060570368,3.899254044555779,0,0.07386374473571777,2019-08-07 13:16:08:348
0.04116335138678551,-0.019519604742527008,9.824623107910156,-0.007984774884654239,-0.004884098039367014,-0.006440030660745744,-42.134329528159,0.22463042653777965,0,0.07628321647644043,2019-08-07 13:16:08:351
0.03397910296916962,-0.024309104308485985,9.76954460144043,-0.0034562954555630953,-0.0035521926614952163,-0.00617364953315652,-44.88691820929899,-3.376291638158035,0,0.07998919486999512,2019-08-07 13:16:08:354
0.00045260769547894597,-0.05065134912729263,9.786307334899902,-0.005320963088613342,-0.0064823853250510115,-0.00857107968145954,-47.58772499054011,-6.901684208992658,0,0.08384060859680176,2019-08-07 13:16:08:358
0.06271609663963318,-0.014730105176568031,9.788702011108398,-0.006919250374297341,-0.005949623069872562,-0.009902985319405663,-50.22752487348808,-10.360642396668098,0,0.08714485168457031,2019-08-07 13:16:08:362
0.00045260769547894597,-0.038677603006362915,9.815044403076172,-0.009050299395011138,-0.0027530490186532175,-0.004841743895210396,-52.82242877511318,-13.747294044705736,0,0.0903325080871582,2019-08-07 13:16:08:365
0.02200535498559475,0.03555963933467865,9.82222843170166,-0.0077183937570650145,-0.0024866678910639927,-0.010435747574584113,-55.362994455622584,-9.875197800794016,0,0.09332966804504395,2019-08-07 13:16:08:368
0.060321349650621414,0.04753338545560837,9.79349136352539,-0.0031899140678995457,-0.0038185737890844406,-0.0077719362986918665,-57.84797889857762,-6.08267275825764,0,0.09658360481262207,2019-08-07 13:16:08:371
0.024400103837251663,0.006822641938924789,9.831808090209961,-0.005853725863940442,-0.0022202867634747683,-0.0077719362986918665,-60.287750612827146,-2.360694426137895,0,0.0999913215637207,2019-08-07 13:16:08:374
0.024400103837251663,-0.014730105176568031,9.86054515838623,-0.008251156012243464,-0.0035521926614952163,-0.011234891477500435,-62.67839021567646,-5.909980600477924,0,0.1038508415222168,2019-08-07 13:16:08:378
0.05074235051870346,-0.04107235372066498,9.714465141296387,-0.007984774884654239,-0.007015147580229461,-0.011767653732678886,-65.01764365402022,-9.385577944600042,0,0.10688018798828125,2019-08-07 13:16:08:381
0.07229509949684143,0.009217391721904278,9.779123306274414,-0.007185631501886564,-0.0024866678910639927,-0.010169366967143538,-67.30838178779676,-5.597681894292116,0,0.11001443862915039,2019-08-07 13:16:08:384
-0.011521141044795513,-0.009940605610609055,9.82222843170166,-0.005853725863940442,-0.0054168602945454634,-0.006972792915924193,-62.36238676858483,-9.083302546881276,0,0.11386609077453613,2019-08-07 13:16:08:388
0.04595285281538963,-0.024309104308485985,9.767149925231934,-0.007185631501886564,-0.0035521926614952163,-0.006706411788334968,-64.7092651503395,-12.497808284525085,0,0.11628556251525879,2019-08-07 13:16:08:391
0.04116335138678551,-0.0722040981054306,9.795886039733887,-0.006386488119118891,-0.0027530490186532175,-0.00857107968145954,-67.0096926558265,-15.838079061108465,0,0.11998558044433594,2019-08-07 13:16:08:394
0.06511084735393524,-0.012335355393588543,9.738412857055664,-0.008251156012243464,-0.0035521926614952163,-0.0077719362986918665,-69.26107011336602,-19.11808382801939,0,0.12383222579956055,2019-08-07 13:16:08:398
0.017215855419635773,-0.021914353594183922,9.855754852294922,-0.007984774884654239,-0.0046177169117777896,-0.007239174043513418,-71.47305249950603,-22.3318002999965,0,0.12689661979675293,2019-08-07 13:16:08:401
0.053137101233005524,-0.04346710070967674,9.788702011108398,-0.0077183937570650145,-0.005150479166956239,-0.00963660471196509,-73.63646651878915,-25.47872039645696,0,0.13002419471740723,2019-08-07 13:16:08:404
0.04595285281538963,0.018796389922499657,9.872518539428711,-0.008783917747273263,-0.00435133604426289,-0.005907268405567294,-75.75745950507603,-21.369422248769094,0,0.13388752937316895,2019-08-07 13:16:08:408
0.019610606133937836,0.023585889488458633,9.745596885681152,-0.005054581961024118,-0.0024866678910639927,-0.008038317426281092,-77.83966958749926,-17.34412643793059,0,0.13628578186035156,2019-08-07 13:16:08:411
-0.006731641478836536,0.0020331426057964563,9.815044403076172,-0.009316680002451712,-0.007547909835407911,-0.008837460809048764,-72.6820949106487,-13.39554681143801,0,0.1399836540222168,2019-08-07 13:16:08:414
0.053137101233005524,-0.005151106510311365,9.865334510803223,-0.006652869246708115,-0.0056832419422833385,-0.006706411788334968,-74.82105147326065,-16.725598373907047,0,0.14383625984191895,2019-08-07 13:16:08:418
-0.009126391261816025,-0.0027563569601625204,9.862939834594727,-0.006120106991529666,-0.0024866678910639927,-0.006440030660745744,-69.7252666097967,-19.98972219816919,0,0.14687418937683105,2019-08-07 13:16:08:421
-0.030679138377308846,0.014006891287863255,9.776728630065918,-0.006652869246708115,-0.0054168602945454634,-0.004042600252368397,-64.73340193478548,-15.990396340536007,0,0.15001463890075684,2019-08-07 13:16:08:424
0.07947934418916702,-0.06023034825921059,9.843781471252441,-0.009316680002451712,-0.003019430146242442,-0.009370223064227214,-67.02882787676504,-19.261559046229422,0,0.15387225151062012,2019-08-07 13:16:08:428
0.014821105636656284,-0.04825660213828087,9.836597442626953,-0.007185631501886564,-0.0054168602945454634,-0.00857107968145954,-69.28579014259594,-22.46973179364529,0,0.15628743171691895,2019-08-07 13:16:08:431
-0.011521141044795513,-0.03628285229206085,9.843781471252441,-0.008783917747273263,-0.010211721631448806,-0.006440030660745744,-64.2992926078914,-25.614287403248028,0,0.1599898338317871,2019-08-07 13:16:08:434
0.05074235051870346,-0.0027563569601625204,9.776728630065918,-0.0077183937570650145,-0.004084954916673665,-0.008304698553870315,-66.60647707115417,-28.70001150159299,0,0.16383647918701172,2019-08-07 13:16:08:438
0.0028473574202507734,-0.06262510269880295,9.800676345825195,-0.007984774884654239,-0.0024866678910639927,-0.007505555171102641,-68.87358863897869,-31.71732130333839,0,0.1668872833251953,2019-08-07 13:16:08:441
-0.07378463447093964,-0.024309104308485985,9.788702011108398,-0.007984774884654239,-0.0056832419422833385,-0.006706411788334968,-63.903753976704934,-34.67872369854304,0,0.17002201080322266,2019-08-07 13:16:08:444
-0.013915890827775002,0.018796389922499657,9.884491920471191,-0.008251156012243464,-0.0046177169117777896,-0.004575362767621172,-59.026282992856224,-30.38552504614425,0,0.17391419410705566,2019-08-07 13:16:08:448
0.00045260769547894597,-0.024309104308485985,9.94196605682373,-0.007185631501886564,-0.0027530490186532175,-0.006972792915924193,-61.44533948458585,-33.37405822270888,0,0.17627978324890137,2019-08-07 13:16:08:451
-0.023494889959692955,-0.06023034825921059,9.733622550964355,-0.0077183937570650145,-0.004084954916673665,-0.009902985319405663,-56.618347935554816,-36.29787891185658,0,0.17998886108398438,2019-08-07 13:16:08:454
0.02200535498559475,-0.021914353594183922,9.78151798248291,-0.0077183937570650145,-0.0064823853250510115,-0.0035098379971899483,-59.08199995768859,-39.16768344899018,0,0.18384361267089844,2019-08-07 13:16:08:458
-0.023494889959692955,0.02837538905441761,9.70249080657959,-0.0005261027594980092,-0.008080672090586358,-0.005640887277978069,-54.30175350772579,-34.78759112188306,0,0.1868879795074463,2019-08-07 13:16:08:461
0.0076368567533791065,-0.024309104308485985,9.817439079284668,-0.006919250374297341,-0.004884098039367014,-0.005907268405567294,-56.81396292677521,-37.68777769958547,0,0.19003891944885254,2019-08-07 13:16:08:464
0.05074235051870346,0.04753338545560837,9.716859817504883,-0.007452012629475789,-0.0038185737890844406,-0.005907268405567294,-59.27086736119364,-33.33800352910923,0,0.19392061233520508,2019-08-07 13:16:08:468
0.014821105636656284,-0.05544085055589676,9.795886039733887,-0.005054581961024118,-0.0054168602945454634,-0.007239174043513418,-61.6829952222849,-36.264085289062606,0,0.19629120826721191,2019-08-07 13:16:08:471
0.012426355853676796,-0.021914353594183922,9.803071022033691,-0.0031899140678995457,-0.006748766452640236,-0.0032434568696007235,-64.04647677971234,-39.135577382897424,0,0.20000147819519043,2019-08-07 13:16:08:474
-0.021100139245390892,-0.08417784422636032,9.827017784118652,-0.008517537139832687,-0.004084954916673665,-0.005374506150388846,-59.16712244297001,-41.9412043594309,0,0.20386099815368652,2019-08-07 13:16:08:478
-0.009126391261816025,0.004427892155945301,9.827017784118652,-0.0034562954555630953,-0.0046177169117777896,-0.004575362767621172,-54.38421669406797,-37.50242691592727,0,0.20628118515014648,2019-08-07 13:16:08:481
0.026794854551553726,-0.0267038531601429,9.913228988647461,-0.007452012629475789,-0.006216004197461787,-0.008038317426281092,-56.89213687816775,-40.34773528694842,0,0.21000051498413086,2019-08-07 13:16:08:484
-0.045047637075185776,-0.024309104308485985,9.779123306274414,-0.007452012629475789,-0.0046177169117777896,-0.005640887277978069,-52.15857478334993,-43.13632150391385,0,0.21384954452514648,2019-08-07 13:16:08:488
0.04116335138678551,-0.045861851423978806,9.829413414001465,-0.009050299395011138,-0.0011547622531178697,-0.006706411788334968,-54.71040638983042,-45.86669600860559,0,0.2169046401977539,2019-08-07 13:16:08:491
-0.07138988375663757,-0.017124855890870094,9.767149925231934,-0.005587344736351217,-0.0038185737890844406,-0.006440030660745744,-50.02389816763894,-48.546364328634,0,0.22005581855773926,2019-08-07 13:16:08:494
-0.06420563161373138,0.014006891287863255,9.846176147460938,-0.007452012629475789,-0.004084954916673665,-0.006706411788334968,-45.43001130927546,-43.97545973313643,0,0.22389745712280273,2019-08-07 13:16:08:498
0.014821105636656284,-0.05544085055589676,9.707281112670898,-0.006120106991529666,-0.0056832419422833385,-0.00963660471196509,-48.11889998707545,-46.68858593598326,0,0.22628378868103027,2019-08-07 13:16:08:501
-0.045047637075185776,0.023585889488458633,9.78151798248291,-0.004521819705845669,-0.003019430146242442,-0.004841743895210396,-43.561171420701115,-42.1566369838599,0,0.22998738288879395,2019-08-07 13:16:08:504
0.014821105636656284,-0.0267038531601429,9.83899211883545,-0.009316680002451712,-0.009945339983710931,-0.0051081250227996205,-46.286070285523955,-44.908378600791316,0,0.2338402271270752,2019-08-07 13:16:08:508
-0.045047637075185776,-0.017124855890870094,9.803071022033691,-0.006652869246708115,-0.0027530490186532175,-0.006972792915924193,-41.76514467517096,-47.60707360238553,0,0.23688030242919922,2019-08-07 13:16:08:511
0.014821105636656284,0.011612141504883766,9.805465698242188,-0.004788200833434893,-0.008613434345764809,-0.004841743895210396,-44.52659327926416,-43.05544619725351,0,0.24001574516296387,2019-08-07 13:16:08:514
-0.030679138377308846,0.006822641938924789,9.829413414001465,-0.005853725863940442,-0.005150479166956239,-0.00963660471196509,-40.038522574334685,-38.593864950745555,0,0.24387264251708984,2019-08-07 13:16:08:518
-0.023494889959692955,-0.0075458562932908535,9.750386238098145,-0.009316680002451712,-0.0056832419422833385,-0.008304698553870315,-35.639743022313965,-41.4198379936659,0,0.24628663063049316,2019-08-07 13:16:08:521
0.019610606133937836,-0.0003616072062868625,9.82222843170166,-0.0037226765831523197,-0.0019539056358855436,-0.009103842456786639,-38.52425434829217,-44.190625640145484,0,0.2499866485595703,2019-08-07 13:16:08:524
-0.06420563161373138,0.02119114063680172,9.755175590515137,-0.00425543883833077,-0.0022202867634747683,-0.005907268405567294,-34.16083145945331,-39.708382867545616,0,0.25383496284484863,2019-08-07 13:16:08:528
-0.01870539039373398,-0.012335355393588543,9.805465698242188,-0.007984774884654239,0.00044352460994534954,-0.008304698553870315,-29.879862577233705,-42.51166205387247,0,0.2563142776489258,2019-08-07 13:16:08:531
-0.011521141044795513,-0.014730105176568031,9.7982816696167,-0.0029235329403103213,-0.003285811533905992,-0.006972792915924193,-25.682933471839487,-45.259101752003104,0,0.2599959373474121,2019-08-07 13:16:08:534
-0.011521141044795513,-0.06262510269880295,9.891676902770996,-0.010115823905368035,-0.003019430146242442,-0.00857107968145954,-21.569957443749985,-47.944480421955504,0,0.2638418674468994,2019-08-07 13:16:08:538
-0.009126391261816025,-0.012335355393588543,9.807860374450684,-0.008251156012243464,-0.0035521926614952163,-0.008837460809048764,-17.53901903951172,-50.582743002152945,0,0.2668778896331787,2019-08-07 13:16:08:541
-0.009126391261816025,0.06190188601613045,9.817439079284668,-0.0037226765831523197,-0.005150479166956239,-0.008038317426281092,-13.58839762988338,-45.977658340667,0,0.27001166343688965,2019-08-07 13:16:08:544
-0.08575838059186935,0.03555963933467865,9.94196605682373,-0.009050299395011138,-0.007281528707818685,-0.010435747574584113,-9.724936381373924,-41.46024295728517,0,0.27387022972106934,2019-08-07 13:16:08:548
-0.04265288636088371,-0.02909860387444496,9.834202766418457,-0.008517537139832687,-0.006748766452640236,-0.010169366967143538,-5.934492832999167,-44.22649281278414,0,0.27628445625305176,2019-08-07 13:16:08:551
-0.06899513304233551,0.04753338545560837,9.819833755493164,-0.006386488119118891,-0.003285811533905992,-0.010702129222321988,-2.2231705921077904,-39.74618115016288,0,0.27998948097229004,2019-08-07 13:16:08:554
-0.01870539039373398,-0.0075458562932908535,9.85096549987793,-0.005054581961024118,-0.0056832419422833385,-0.011767653732678886,1.4203465598169425,-42.549286127232364,0,0.2838428020477295,2019-08-07 13:16:08:558
-0.04025813564658165,-0.0075458562932908535,9.747991561889648,-0.009050299395011138,-0.004084954916673665,-0.014697845616011706,4.987905380571362,-45.29586641501444,0,0.28688693046569824,2019-08-07 13:16:08:561
-0.07138988375663757,-0.0075458562932908535,9.786307334899902,-0.005587344736351217,-0.005150479166956239,-0.010968509829762562,8.480700461779694,-47.98807577724784,0,0.2900416851043701,2019-08-07 13:16:08:564
-0.11689012497663498,-0.0027563569601625204,9.795886039733887,-0.005587344736351217,-0.0046177169117777896,-0.010169366967143538,11.898409765255272,-50.626786219026926,0,0.2938845157623291,2019-08-07 13:16:08:568
-0.08336362987756729,-0.08178309351205826,9.843781471252441,-0.009316680002451712,-0.00435133604426289,-0.012300415987857336,15.251329624034469,-53.20346239150561,0,0.2963082790374756,2019-08-07 13:16:08:571
-0.0761793851852417,0.04753338545560837,9.81025505065918,-0.006386488119118891,-0.003285811533905992,-0.011234891477500435,18.538085959930427,-48.54362154095389,0,0.2999999523162842,2019-08-07 13:16:08:574
-0.052231885492801666,-0.05065134912729263,9.889281272888184,-0.008251156012243464,-0.0064823853250510115,-0.009902985319405663,21.7626723347974,-51.16509747423336,0,0.3038473129272461,2019-08-07 13:16:08:578
0.019610606133937836,0.009217391721904278,9.8797025680542,-0.0034562954555630953,-0.0035521926614952163,-0.010435747574584113,17.730296867859302,-46.54227750042716,0,0.3068726062774658,2019-08-07 13:16:08:581
0.019610606133937836,-0.005151106510311365,9.807860374450684,-0.005320963088613342,-0.0046177169117777896,-0.01602975177410648,13.77879735719608,-49.2098907686306,0,0.3100166320800781,2019-08-07 13:16:08:584
0.0028473574202507734,-0.021914353594183922,9.891676902770996,-0.010648586160546484,-0.007015147580229461,-0.013898702753392682,9.905073595657804,-51.82084344998861,0,0.31388139724731445,2019-08-07 13:16:08:588
-0.03546863794326782,0.05711238458752632,9.771939277648926,-0.004788200833434893,-0.0027530490186532175,-0.014431465008571131,13.303184640844783,-47.19047726051488,0,0.3162863254547119,2019-08-07 13:16:08:591
0.026794854551553726,0.02119114063680172,9.743202209472656,-0.006120106991529666,-0.005949623069872562,-0.012566796595297908,9.441509513285071,-42.64788740671667,0,0.3199896812438965,2019-08-07 13:16:08:594
0.005242106970399618,0.025980640202760696,9.73122787475586,-0.005587344736351217,-0.0022202867634747683,-0.013898702753392682,5.653776677222656,-38.19678096683229,0,0.3238403797149658,2019-08-07 13:16:08:598
0.0483475998044014,-0.024309104308485985,9.759964942932129,-0.005587344736351217,-0.008080672090586358,-0.01150127208494101,1.9477594368657591,-41.0290357470961,0,0.3268859386444092,2019-08-07 13:16:08:601
-0.030679138377308846,-0.012335355393588543,9.846176147460938,-0.0077183937570650145,-0.004884098039367014,-0.010968509829762562,5.506094158093342,-43.80565973619779,0,0.33002328872680664,2019-08-07 13:16:08:604
0.05553185194730759,-0.038677603006362915,9.719254493713379,0.00027304068828824584,-0.0014211433807070943,-0.010702129222321988,1.8028302533151184,-46.52504611925511,0,0.33391761779785156,2019-08-07 13:16:08:608
0.024400103837251663,-0.0027563569601625204,9.78151798248291,-0.006919250374297341,-0.0022202867634747683,-0.012833178243035783,-1.8300724679457536,-49.193301737774696,0,0.3362870216369629,2019-08-07 13:16:08:611
0.0076368567533791065,-0.0003616072062868625,9.774333953857422,-0.005054581961024118,-0.004084954916673665,-0.012833178243035783,-5.39172532790075,-51.80834109431913,0,0.3399944305419922,2019-08-07 13:16:08:614
0.03397910296916962,-0.05783560127019882,9.803071022033691,-0.007185631501886564,-0.0038185737890844406,-0.012034034340119461,-8.879091984416618,-54.36385768841211,0,0.34385108947753906,2019-08-07 13:16:08:618
0.0483475998044014,0.04753338545560837,9.83899211883545,-0.010648586160546484,-0.003285811533905992,-0.013099558850476358,-12.295431770403795,-49.68066620235621,0,0.34627676010131836,2019-08-07 13:16:08:621
0.04355810210108757,0.0714808851480484,9.738412857055664,-0.006919250374297341,-0.005949623069872562,-0.012034034340119461,-15.643156617937246,-45.09402050970365,0,0.3499917984008789,2019-08-07 13:16:08:624
0.0028473574202507734,-0.02909860387444496,9.824623107910156,-0.007452012629475789,-0.0019539056358855436,-0.011234891477500435,-18.929538807392,-47.78713448767592,0,0.35384345054626465,2019-08-07 13:16:08:628
-0.013915890827775002,-0.0267038531601429,9.692912101745605,-0.007984774884654239,-0.0038185737890844406,-0.010968509829762562,-14.951984152272452,-50.426961292912424,0,0.35668396949768066,2019-08-07 13:16:08:631
0.0076368567533791065,-0.05544085055589676,9.755175590515137,-0.001058865047185749,-0.00435133604426289,-0.011234891477500435,-18.25120948942952,-53.01170574570799,0,0.36011338233947754,2019-08-07 13:16:08:635
-0.009126391261816025,-0.02909860387444496,9.836597442626953,-0.007984774884654239,-0.003285811533905992,-0.012566796595297908,-14.28654102486963,-55.54636262647524,0,0.36394786834716797,2019-08-07 13:16:08:638
0.053137101233005524,0.04034913703799248,9.812649726867676,-0.006919250374297341,-0.006748766452640236,-0.013099558850476358,-17.593716112217766,-50.83923601046558,0,0.36629343032836914,2019-08-07 13:16:08:641
0.02918960340321064,-0.0003616072062868625,9.776728630065918,-0.006652869246708115,-0.004884098039367014,-0.011234891477500435,-20.83740720565246,-53.42102860694878,0,0.36998844146728516,2019-08-07 13:16:08:644
0.05553185194730759,-0.05544085055589676,9.86054515838623,-0.007984774884654239,-0.008879815473354034,-0.012833178243035783,-24.012256804706613,-55.94441278702501,0,0.37389707565307617,2019-08-07 13:16:08:648
0.05792659893631935,0.006822641938924789,9.726438522338867,-0.0026571518127210965,-0.003019430146242442,-0.012300415987857336,-27.12478071595848,-51.22597066347396,0,0.3762943744659424,2019-08-07 13:16:08:651
0.04116335138678551,-0.019519604742527008,9.846176147460938,-0.006386488119118891,-0.0056832419422833385,-0.010702129222321988,-30.17631556628367,-53.79785475054423,0,0.3799886703491211,2019-08-07 13:16:08:654
0.03637385368347168,-0.009940605610609055,9.83899211883545,-0.006386488119118891,-0.0054168602945454634,-0.011234891477500435,-33.16735082423784,-56.31932262185571,0,0.3839409351348877,2019-08-07 13:16:08:658
0.05074235051870346,-0.005151106510311365,9.759964942932129,-0.008517537139832687,-0.00435133604426289,-0.013898702753392682,-36.09733542003691,-58.790940037171424,0,0.38685011863708496,2019-08-07 13:16:08:661
0.02200535498559475,0.004427892155945301,9.925203323364258,-0.007185631501886564,-0.0056832419422833385,-0.010702129222321988,-38.971839991260595,-54.014357871829,0,0.39000916481018066,2019-08-07 13:16:08:664
0.031584352254867554,0.02119114063680172,9.726438522338867,-0.006919250374297341,-0.0054168602945454634,-0.009370223064227214,-41.78751916347539,-49.33508184003425,0,0.3938326835632324,2019-08-07 13:16:08:668
0.0028473574202507734,0.04034913703799248,9.66178035736084,-0.009316680002451712,-0.006216004197461787,-0.008837460809048764,-44.550372001633704,-44.7515783396629,0,0.396867036819458,2019-08-07 13:16:08:671
0.005242106970399618,-0.0075458562932908535,9.788702011108398,-0.004521819705845669,-0.0019539056358855436,-0.014697845616011706,-47.25840692569054,-47.45486738946103,0,0.40000224113464355,2019-08-07 13:16:08:674
-0.013915890827775002,0.04753338545560837,9.786307334899902,-0.004788200833434893,-0.00435133604426289,-0.00963660471196509,-42.71392794510115,-42.910301151399615,0,0.403850793838501,2019-08-07 13:16:08:678
0.014821105636656284,0.006822641938924789,9.872518539428711,-0.009050299395011138,-0.007547909835407911,-0.01150127208494101,-45.45664500133253,-38.451347366201105,0,0.40688061714172363,2019-08-07 13:16:08:681
0.060321349650621414,-0.053046099841594696,9.865334510803223,-0.006386488119118891,-0.0054168602945454634,-0.00963660471196509,-48.13955098159812,-41.27503347023798,0,0.4100189208984375,2019-08-07 13:16:08:684
0.04116335138678551,0.04992813616991043,9.75278091430664,-0.01038220555310591,-0.004084954916673665,-0.008304698553870315,-50.77103097420585,-36.853130830417435,0,0.413909912109375,2019-08-07 13:16:08:688
0.06271609663963318,0.011612141504883766,9.865334510803223,-0.005054581961024118,-0.0046177169117777896,-0.011767653732678886,-53.34771027794069,-32.51674347764156,0,0.41628313064575195,2019-08-07 13:16:08:691
0.026794854551553726,0.0020331426057964563,9.841386795043945,-0.005587344736351217,-0.0064823853250510115,-0.011767653732678886,-55.87628798967821,-28.265483345613433,0,0.4199869632720947,2019-08-07 13:16:08:694
-0.0019421420292928815,-0.019519604742527008,9.795886039733887,-0.006120106991529666,-0.005150479166956239,-0.010435747574584113,-51.157876010079285,-31.296567272170186,0,0.42383694648742676,2019-08-07 13:16:08:698
0.010031606070697308,0.02837538905441761,9.7982816696167,-0.006919250374297341,-0.005150479166956239,-0.006440030660745744,-53.732662378095576,-27.072768321433724,0,0.42688989639282227,2019-08-07 13:16:08:701
0.03637385368347168,-0.021914353594183922,9.79349136352539,-0.006919250374297341,-0.006216004197461787,-0.009902985319405663,-56.252658599786805,-30.127530455701603,0,0.4300258159637451,2019-08-07 13:16:08:704
0.012426355853676796,0.03555963933467865,9.764754295349121,-0.006386488119118891,-0.0054168602945454634,-0.00617364953315652,-58.7249629022568,-25.927756579121734,0,0.43391942977905273,2019-08-07 13:16:08:708
-0.04025813564658165,0.0020331426057964563,9.800676345825195,-0.005320963088613342,-0.005150479166956239,-0.010435747574584113,-53.954487454253595,-21.808733322579464,0,0.4362819194793701,2019-08-07 13:16:08:711
0.017215855419635773,-0.0003616072062868625,9.79349136352539,-0.0077183937570650145,-0.003019430146242442,-0.008837460809048764,-56.47275520496292,-24.970910739909726,0,0.4399867057800293,2019-08-07 13:16:08:714
0.0746898502111435,-0.045861851423978806,9.853360176086426,-0.006919250374297341,-0.008080672090586358,-0.00857107968145954,-58.93286830068215,-28.06466412105157,0,0.4438343048095703,2019-08-07 13:16:08:718
0.04595285281538963,0.011612141504883766,9.771939277648926,-0.007452012629475789,-0.006216004197461787,-0.011767653732678886,-61.34775753795512,-23.90345609993969,0,0.4468848705291748,2019-08-07 13:16:08:721
0.06271609663963318,-0.012335355393588543,9.800676345825195,-0.009583061650189587,-0.006748766452640236,-0.013898702753392682,-63.712280353907644,-27.022256020772666,0,0.45002317428588867,2019-08-07 13:16:08:724
0.04116335138678551,0.037954386323690414,9.894071578979492,-0.005587344736351217,-0.0046177169117777896,-0.010435747574584113,-66.03225675908826,-22.884983960313345,0,0.4539206027984619,2019-08-07 13:16:08:728
0.06511084735393524,0.014006891287863255,9.707281112670898,-0.006919250374297341,-0.0038185737890844406,-0.008837460809048764,-68.30341925518174,-18.828020259619322,0,0.4562821388244629,2019-08-07 13:16:08:731
-0.0019421420292928815,-0.019519604742527008,9.76954460144043,-0.005320963088613342,-0.006748766452640236,-0.007239174043513418,-63.33617450165047,-22.04806321400166,0,0.4599876403808594,2019-08-07 13:16:08:734
0.04595285281538963,-0.005151106510311365,9.759964942932129,-0.007984774884654239,-0.008347053218175584,-0.010435747574584113,-65.66224783904832,-25.204767728697846,0,0.46384501457214355,2019-08-07 13:16:08:738
0.11061109602451324,-0.0267038531601429,9.767149925231934,-0.009050299395011138,-0.0054168602945454634,-0.006972792915924193,-67.93510397166192,-28.29599862906058,0,0.4668769836425781,2019-08-07 13:16:08:741
0.053137101233005524,0.037954386323690414,9.819833755493164,-0.005320963088613342,-0.006216004197461787,-0.006972792915924193,-70.16910273817696,-24.133567412366066,0,0.47002410888671875,2019-08-07 13:16:08:744
-0.004336891695857048,0.004427892155945301,9.843781471252441,-0.006386488119118891,-0.0054168602945454634,-0.008304698553870315,-65.16496933919585,-20.049930450800954,0,0.4741542339324951,2019-08-07 13:16:08:749
0.05074235051870346,-0.017124855890870094,9.815044403076172,-0.0039890577107415445,-0.00435133604426289,-0.00963660471196509,-67.45519414124598,-23.24642678210944,0,0.4764120578765869,2019-08-07 13:16:08:751
0.06271609663963318,-0.012335355393588543,9.79349136352539,-0.00425543883833077,-0.003285811533905992,-0.008038317426281092,-69.698094553242,-26.379203351591773,0,0.47997593879699707,2019-08-07 13:16:08:754
0.019610606133937836,-0.04825660213828087,9.853360176086426,-0.007984774884654239,-0.006748766452640236,-0.008837460809048764,-71.90039318058008,-29.444281224424323,0,0.48382568359375,2019-08-07 13:16:08:758
-0.011521141044795513,-0.021914353594183922,9.762359619140625,-0.004788200833434893,-0.006748766452640236,-0.0077719362986918665,-66.86258259448748,-32.45200375098209,0,0.4868738651275635,2019-08-07 13:16:08:761
0.04355810210108757,-0.012335355393588543,9.759964942932129,-0.008517537139832687,-0.004884098039367014,-0.00617364953315652,-69.1193561752929,-35.40001446444181,0,0.49001216888427734,2019-08-07 13:16:08:764
0.026794854551553726,-0.021914353594183922,9.776728630065918,-0.006386488119118891,-0.0011547622531178697,-0.013365940498214234,-71.33357111381146,-38.288022277008004,0,0.49398136138916016,2019-08-07 13:16:08:768
0.08666359633207321,-0.017124855890870094,9.819833755493164,-0.0077183937570650145,-0.0054168602945454634,-0.009902985319405663,-73.49608451150569,-41.119262739312504,0,0.4962904453277588,2019-08-07 13:16:08:771
-0.0019421420292928815,-0.02909860387444496,9.848570823669434,-0.006919250374297341,-0.001687524508296319,-0.006706411788334968,-68.42603824895542,-43.89205444316817,0,0.49998998641967773,2019-08-07 13:16:08:774
0.0076368567533791065,-0.012335355393588543,9.762359619140625,-0.007452012629475789,-0.004884098039367014,-0.005907268405567294,-70.65554411817665,-46.61112224919939,0,0.5039169788360596,2019-08-07 13:16:08:778
0.05792659893631935,-0.04107235372066498,9.894071578979492,-0.0039890577107415445,-0.007015147580229461,-0.009103842456786639,-72.83479009985295,-49.27361165198426,0,0.5062887668609619,2019-08-07 13:16:08:781
0.024400103837251663,-0.05544085055589676,9.709675788879395,-0.006652869246708115,-0.0064823853250510115,-0.006440030660745744,-74.97386833747105,-51.88021475215857,0,0.5099875926971436,2019-08-07 13:16:08:784
-0.037863388657569885,-0.005151106510311365,9.779123306274414,-0.0039890577107415445,-0.00435133604426289,-0.01150127208494101,-69.87785641897219,-54.44111636997373,0,0.5139632225036621,2019-08-07 13:16:08:788
0.02918960340321064,-0.0267038531601429,9.726438522338867,-0.006120106991529666,-0.0046177169117777896,-0.00617364953315652,-72.07625316407422,-56.948343223628015,0,0.5163049697875977,2019-08-07 13:16:08:791
0.02200535498559475,-0.09615159779787064,9.755175590515137,-0.008517537139832687,-0.0056832419422833385,-0.005907268405567294,-74.23096155448462,-59.396311108468495,0,0.520007848739624,2019-08-07 13:16:08:794
0.09624259918928146,0.0020331426057964563,9.745596885681152,-0.008517537139832687,-0.0056832419422833385,-0.012034034340119461,-76.3337976261811,-54.60678266171367,0,0.523857831954956,2019-08-07 13:16:08:798
0.02200535498559475,0.037954386323690414,9.872518539428711,-0.008517537139832687,-0.001687524508296319,-0.00857107968145954,-78.40433830126814,-49.91789560895431,0,0.5262765884399414,2019-08-07 13:16:08:801
0.04116335138678551,-0.03388810157775879,9.903650283813477,-0.008251156012243464,-0.006216004197461787,-0.010702129222321988,-80.43019387912955,-52.51389789037557,0,0.5299863815307617,2019-08-07 13:16:08:804
-0.045047637075185776,-0.0075458562932908535,9.843781471252441,-0.008517537139832687,-0.0027530490186532175,-0.006440030660745744,-75.22623848998224,-55.06089920522389,0,0.5338385105133057,2019-08-07 13:16:08:808
-0.037863388657569885,-0.0027563569601625204,9.81025505065918,-0.008251156012243464,-0.003285811533905992,-0.004308981379957623,-70.12557674254222,-57.557953768384806,0,0.536872148513794,2019-08-07 13:16:08:811
0.07708460092544556,-0.021914353594183922,9.755175590515137,-0.004788200833434893,-0.0035521926614952163,-0.005907268405567294,-72.3133850370216,-60.00337742485661,0,0.5400078296661377,2019-08-07 13:16:08:814
0.06271609663963318,-0.012335355393588543,9.812649726867676,-0.006652869246708115,-0.0064823853250510115,-0.006972792915924193,-74.45838824483349,-62.400427162686,0,0.5438685417175293,2019-08-07 13:16:08:818
0.0028473574202507734,0.0020331426057964563,9.779123306274414,-0.006919250374297341,-0.0027530490186532175,-0.008304698553870315,-76.56851329633787,-57.551718065843204,0,0.5462849140167236,2019-08-07 13:16:08:821
0.07708460092544556,-0.0075458562932908535,9.786307334899902,-0.006919250374297341,-0.0022202867634747683,-0.005374506150388846,-78.62765554647613,-59.99836178595713,0,0.5499870777130127,2019-08-07 13:16:08:824
0.014821105636656284,-0.014730105176568031,9.75278091430664,-0.0039890577107415445,-0.004884098039367014,-0.005640887277978069,-80.65230544853232,-62.395801693755715,0,0.5538361072540283,2019-08-07 13:16:08:828
0.0028473574202507734,-0.03388810157775879,9.817439079284668,-0.006919250374297341,-0.0024866678910639927,-0.006706411788334968,-82.63850065106601,-64.74274387119218,0,0.556889533996582,2019-08-07 13:16:08:831
0.05553185194730759,0.006822641938924789,9.738412857055664,-0.009583061650189587,-0.007814290962997135,-0.006972792915924193,-84.57782097145535,-59.847005181777334,0,0.5600240230560303,2019-08-07 13:16:08:834
-0.021100139245390892,-0.02909860387444496,9.807860374450684,-0.005587344736351217,-0.0024866678910639927,-0.009902985319405663,-79.28818606375222,-62.24544354794538,0,0.5639183521270752,2019-08-07 13:16:08:838
0.060321349650621414,-0.019519604742527008,9.791096687316895,-0.006386488119118891,-0.005949623069872562,-0.009902985319405663,-81.29457188125578,-64.59740135969992,0,0.5662853717803955,2019-08-07 13:16:08:841
0.017215855419635773,-0.0075458562932908535,9.776728630065918,-0.004788200833434893,-0.0056832419422833385,-0.006440030660745744,-83.26547852889438,-66.90357129877302,0,0.5699958801269531,2019-08-07 13:16:08:844
-0.023494889959692955,-0.0027563569601625204,9.774333953857422,-0.006386488119118891,-0.004084954916673665,-0.006706411788334968,-78.00203959327901,-69.16379492259242,0,0.5738492012023926,2019-08-07 13:16:08:848
-0.016310639679431915,-0.019519604742527008,9.824623107910156,-0.008517537139832687,-0.0056832419422833385,-0.0077719362986918665,-72.84312518363694,-71.37707925457433,0,0.5762810707092285,2019-08-07 13:16:08:851
0.02918960340321064,-0.005151106510311365,9.831808090209961,-0.0077183937570650145,-0.0046177169117777896,-0.008837460809048764,-74.98189783108238,-73.547328076667,0,0.5799942016601562,2019-08-07 13:16:08:854
-0.0019421420292928815,-0.07699359953403473,9.85096549987793,-0.005320963088613342,-0.0008883811255286454,-0.007505555171102641,-69.88229365267792,-75.66627456662232,0,0.5838460922241211,2019-08-07 13:16:08:858
0.06511084735393524,-0.03628285229206085,9.86054515838623,-0.006919250374297341,-0.005150479166956239,-0.00617364953315652,-72.0762067868839,-77.74755786109591,0,0.5868697166442871,2019-08-07 13:16:08:861
0.03397910296916962,0.05711238458752632,9.78151798248291,-0.004788200833434893,-0.00435133604426289,-0.009902985319405663,-74.22992885628331,-72.59844666517917,0,0.590034008026123,2019-08-07 13:16:08:864
-0.05941613391041756,-0.038677603006362915,9.786307334899902,-0.010115823905368035,-0.004884098039367014,-0.0035098379971899483,-69.15123169305357,-74.73976218595706,0,0.593883752822876,2019-08-07 13:16:08:868
-0.009126391261816025,-0.024309104308485985,9.90125560760498,-0.005320963088613342,-0.0035521926614952163,-0.012833178243035783,-64.16877819963238,-76.84142690481664,0,0.596315860748291,2019-08-07 13:16:08:871
0.019610606133937836,0.06908613443374634,9.805465698242188,-0.006120106991529666,-0.0027530490186532175,-0.006706411788334968,-66.48254212772964,-71.71140770712276,0,0.5999948978424072,2019-08-07 13:16:08:874
-0.0019421420292928815,0.023585889488458633,9.81025505065918,-0.008251156012243464,-0.005949623069872562,-0.008038317426281092,-61.551832852981164,-66.67815207948881,0,0.6038422584533691,2019-08-07 13:16:08:878
-0.006731641478836536,0.037954386323690414,9.834202766418457,-0.0026571518127210965,-0.004884098039367014,-0.012300415987857336,-56.7207487062616,-61.748559014038825,0,0.6068756580352783,2019-08-07 13:16:08:881
0.060321349650621414,-0.012335355393588543,9.783912658691406,-0.006652869246708115,-0.0046177169117777896,-0.007239174043513418,-59.178456177221335,-64.11097226429966,0,0.6100099086761475,2019-08-07 13:16:08:884
0.0028473574202507734,-0.0075458562932908535,9.762359619140625,-0.005320963088613342,-0.00435133604426289,-0.009370223064227214,-61.59361415401233,-66.42671923620351,0,0.61385178565979,2019-08-07 13:16:08:888
0.014821105636656284,-0.021914353594183922,9.747991561889648,-0.0077183937570650145,-0.004884098039367014,-0.01150127208494101,-63.95930913400564,-68.69451759754106,0,0.6163694858551025,2019-08-07 13:16:08:891
-0.03307388722896576,-0.012335355393588543,9.791096687316895,-0.007452012629475789,-0.0054168602945454634,-0.0077719362986918665,-59.08288595471769,-70.91765950527156,0,0.6200118064880371,2019-08-07 13:16:08:894
0.019610606133937836,-0.0027563569601625204,9.788702011108398,-0.005320963088613342,-0.006748766452640236,-0.009370223064227214,-61.49725730868889,-73.09766284627268,0,0.6244325637817383,2019-08-07 13:16:08:899
-0.004336891695857048,-0.07699359953403473,9.846176147460938,-0.00425543883833077,-0.0008883811255286454,-0.008837460809048764,-56.66770497352021,-75.22621299061592,0,0.6266763210296631,2019-08-07 13:16:08:901
-0.009126391261816025,-0.053046099841594696,9.898860931396484,-0.006386488119118891,-0.00435133604426289,-0.011767653732678886,-51.93455059484815,-77.31429055742764,0,0.6301829814910889,2019-08-07 13:16:08:905
-0.0019421420292928815,-0.021914353594183922,9.745596885681152,-0.007452012629475789,-0.0024866678910639927,-0.010169366967143538,-47.29555315067186,-79.36382533093138,0,0.6340131759643555,2019-08-07 13:16:08:908
0.024400103837251663,-0.021914353594183922,9.788702011108398,-0.005320963088613342,-0.0014211433807070943,-0.010702129222321988,-49.9465980670251,-81.37328092582162,0,0.6363644599914551,2019-08-07 13:16:08:911
0.031584352254867554,-0.0003616072062868625,9.73122787475586,-0.0029235329403103213,-0.0054168602945454634,-0.010169366967143538,-52.54267839768018,-83.34508812669159,0,0.6405348777770996,2019-08-07 13:16:08:915
0.03397910296916962,-0.005151106510311365,9.774333953857422,-0.007452012629475789,-0.003285811533905992,-0.009370223064227214,-55.08711860045825,-85.27594358317013,0,0.6444516181945801,2019-08-07 13:16:08:919
0.014821105636656284,0.025980640202760696,9.747991561889648,-0.006120106991529666,-0.007015147580229461,-0.004308981379957623,-57.58265434297008,-79.97262421156057,0,0.6469385623931885,2019-08-07 13:16:08:921
0.03397910296916962,-0.0267038531601429,9.762359619140625,-0.0034562954555630953,-0.007281528707818685,-0.013632321105654805,-60.02552660506192,-81.96933177731985,0,0.6505734920501709,2019-08-07 13:16:08:925
-0.04265288636088371,-0.02909860387444496,9.815044403076172,-0.006120106991529666,-0.0008883811255286454,-0.007239174043513418,-55.229824429055384,-83.92536723805871,0,0.6540091037750244,2019-08-07 13:16:08:928
0.060321349650621414,-0.0027563569601625204,9.762359619140625,-0.007452012629475789,-0.0038185737890844406,-0.012833178243035783,-57.71764494128418,-85.84555569512945,0,0.6563527584075928,2019-08-07 13:16:08:931
0.04355810210108757,-0.0267038531601429,9.841386795043945,-0.007984774884654239,-0.003285811533905992,-0.011767653732678886,-60.15754471930053,-87.72389367005178,0,0.6600141525268555,2019-08-07 13:16:08:934
0.07229509949684143,-0.014730105176568031,9.817439079284668,-0.004788200833434893,-0.00435133604426289,-0.008304698553870315,-62.545113365649165,-89.56676976352084,0,0.6634609699249268,2019-08-07 13:16:08:938
0.0483475998044014,-0.03388810157775879,9.783912658691406,-0.007984774884654239,-0.0035521926614952163,-0.010702129222321988,-64.88792232010611,-91.37005764634593,0,0.6666007041931152,2019-08-07 13:16:08:941
0.05553185194730759,-0.04825660213828087,9.759964942932129,-0.006652869246708115,-0.0038185737890844406,-0.010435747574584113,-67.18291325225569,-93.13571767338922,0,0.670008659362793,2019-08-07 13:16:08:944
0.017215855419635773,-0.02909860387444496,9.805465698242188,-0.005320963088613342,-0.0054168602945454634,-0.007505555171102641,-69.43619519614403,-94.86857341036242,0,0.6734538078308105,2019-08-07 13:16:08:948
0.06990034878253937,-0.04825660213828087,9.807860374450684,-0.007185631501886564,-0.0006219999979394207,-0.00857107968145954,-71.63919540722117,-96.56430331466119,0,0.6765780448913574,2019-08-07 13:16:08:951
0.04595285281538963,-0.06023034825921059,9.831808090209961,-0.009316680002451712,-0.005150479166956239,-0.008837460809048764,-73.80006965735896,-98.2242138236316,0,0.6799874305725098,2019-08-07 13:16:08:954
0.03397910296916962,0.02119114063680172,9.829413414001465,-0.007452012629475789,-0.00435133604426289,-0.004575362767621172,-75.91926413794017,-92.66075656485724,0,0.6834371089935303,2019-08-07 13:16:08:958
-0.02588963881134987,0.023585889488458633,9.783912658691406,-0.008251156012243464,-0.006748766452640236,-0.010702129222321988,-70.80272873568373,-87.20885827957642,0,0.6865572929382324,2019-08-07 13:16:08:961
0.04355810210108757,0.0020331426057964563,9.803071022033691,-0.0039890577107415445,-0.0064823853250510115,-0.005374506150388846,-72.98033514689247,-81.86415117202372,0,0.6899843215942383,2019-08-07 13:16:08:964
0.05792659893631935,-0.0075458562932908535,9.755175590515137,-0.006919250374297341,-0.0024866678910639927,-0.010968509829762562,-75.11344243568801,-83.82464168983203,0,0.6934335231781006,2019-08-07 13:16:08:968
0.053137101233005524,-0.019519604742527008,9.805465698242188,-0.007452012629475789,-0.005150479166956239,-0.00857107968145954,-77.20406108337932,-85.74456162495666,0,0.6965548992156982,2019-08-07 13:16:08:971
-0.011521141044795513,-0.019519604742527008,9.779123306274414,-0.0039890577107415445,-0.003019430146242442,-0.007505555171102641,-72.06074670271123,-87.62661260546541,0,0.6999948024749756,2019-08-07 13:16:08:974
0.03637385368347168,-0.0075458562932908535,9.843781471252441,-0.007984774884654239,-0.004084954916673665,-0.0077719362986918665,-74.21450586958801,-89.47165454868184,0,0.7034461498260498,2019-08-07 13:16:08:978
0.0675055980682373,-0.031493354588747025,9.733622550964355,-0.006120106991529666,-0.003285811533905992,-0.006706411788334968,-76.3216926353508,-91.27744103155898,0,0.7065680027008057,2019-08-07 13:16:08:981
-0.05462663620710373,0.011612141504883766,9.829413414001465,-0.006919250374297341,-0.0054168602945454634,-0.005640887277978069,-71.20058917692077,-85.85192015525132,0,0.7099804878234863,2019-08-07 13:16:08:984
0.09863734245300293,-0.024309104308485985,9.817439079284668,-0.006386488119118891,-0.004084954916673665,-0.008038317426281092,-73.36427360985715,-87.73080771090302,0,0.7134289741516113,2019-08-07 13:16:08:988
-0.023494889959692955,0.0020331426057964563,9.872518539428711,-0.006652869246708115,-0.004884098039367014,-0.004841743895210396,-68.2988574377769,-82.37525912732389,0,0.7165567874908447,2019-08-07 13:16:08:991
-0.0498371347784996,0.02837538905441761,9.75278091430664,-0.006919250374297341,-0.0024866678910639927,-0.006706411788334968,-63.3382572143158,-77.12975593065656,0,0.7199852466583252,2019-08-07 13:16:08:994
0.017215855419635773,-0.045861851423978806,9.889281272888184,-0.008783917747273263,-0.004084954916673665,-0.004308981379957623,-65.66870670731653,-79.18014684115528,0,0.7234315872192383,2019-08-07 13:16:08:998
0.04355810210108757,-0.06023034825921059,9.894071578979492,-0.007185631501886564,-0.006216004197461787,-0.007505555171102641,-67.94919666457344,-81.18830689516598,0,0.726557731628418,2019-08-07 13:16:09:001
0.10582159459590912,-0.045861851423978806,9.819833755493164,-0.006120106991529666,-0.00435133604426289,-0.005640887277978069,-70.17702598465313,-83.15800968007781,0,0.7299895286560059,2019-08-07 13:16:09:004
0.04355810210108757,0.04274388775229454,9.83899211883545,-0.005587344736351217,-0.0035521926614952163,-0.00617364953315652,-72.36772651067635,-77.89874880052075,0,0.7334284782409668,2019-08-07 13:16:09:008
-0.009126391261816025,-0.03388810157775879,9.853360176086426,-0.005587344736351217,-0.006748766452640236,-0.005374506150388846,-67.31905460825209,-79.93486338171778,0,0.7397058010101318,2019-08-07 13:16:09:014
-0.045047637075185776,0.02837538905441761,9.762359619140625,-0.005320963088613342,-0.008080672090586358,-0.0051081250227996205,-62.3735652130488,-74.73660215555402,0,0.749394416809082,2019-08-07 13:16:09:024
0.07229509949684143,-0.0027563569601625204,9.824623107910156,-0.007984774884654239,-0.0006219999979394207,-0.0032434568696007235,-64.71752314501751,-76.83976905522049,0,0.7533636093139648,2019-08-07 13:16:09:028
0.04595285281538963,0.0020331426057964563,9.757570266723633,-0.007452012629475789,-0.00435133604426289,-0.004841743895210396,-67.01691913604736,-71.70174485412481,0,0.7568709850311279,2019-08-07 13:16:09:031
-0.04744238778948784,-0.012335355393588543,9.73122787475586,-0.005853725863940442,-0.004884098039367014,-0.0016451699740282137,-62.081145534716676,-73.86503270369077,0,0.7605969905853271,2019-08-07 13:16:09:035
0.010031606070697308,-0.0267038531601429,9.764754295349121,-0.007185631501886564,-0.0064823853250510115,-0.006706411788334968,-64.43701452285904,-75.98312305023605,0,0.7642533779144287,2019-08-07 13:16:09:039
-0.06181088462471962,0.004427892155945301,9.81025505065918,-0.007984774884654239,-0.005949623069872562,-0.004308981379957623,-59.55469828936847,-70.86290972181416,0,0.7666356563568115,2019-08-07 13:16:09:041
0.02200535498559475,-0.012335355393588543,9.78151798248291,-0.009316680002451712,-0.0024866678910639927,-0.004308981379957623,-61.960539717953964,-73.0423830877373,0,0.7701210975646973,2019-08-07 13:16:09:045
-0.01870539039373398,0.04753338545560837,9.834202766418457,-0.008517537139832687,-0.003019430146242442,-0.005907268405567294,-57.12293875501133,-67.98546683202477,0,0.7734818458557129,2019-08-07 13:16:09:048
0.012426355853676796,-0.03388810157775879,9.75278091430664,-0.005054581961024118,-0.00435133604426289,-0.0035098379971899483,-59.5782947498423,-70.22093340423928,0,0.7764499187469482,2019-08-07 13:16:09:051
0.05553185194730759,0.018796389922499657,9.874913215637207,-0.005853725863940442,-0.0027530490186532175,-0.0011124077188497644,-61.97972518291741,-65.21750595505782,0,0.7800703048706055,2019-08-07 13:16:09:054
0.0076368567533791065,-0.0075458562932908535,9.831808090209961,-0.006919250374297341,-8.92376858697129e-05,-0.006972792915924193,-64.33922437706306,-67.5110192818008,0,0.7833058834075928,2019-08-07 13:16:09:058
-0.011521141044795513,-0.014730105176568031,9.805465698242188,-0.007185631501886564,-0.0038185737890844406,-0.002977075742011499,-59.45310697452064,-69.7577991249333,0,0.7864742279052734,2019-08-07 13:16:09:061
-0.0019421420292928815,-0.024309104308485985,9.86054515838623,-0.009316680002451712,-0.0054168602945454634,-0.004042600252368397,-54.66318460201782,-71.95795039210977,0,0.7900445461273193,2019-08-07 13:16:09:064
-0.028284389525651932,-0.012335355393588543,9.795886039733887,-0.006919250374297341,-0.0035521926614952163,-0.0051081250227996205,-49.97257905188193,-74.11608123690107,0,0.7933061122894287,2019-08-07 13:16:09:068
0.05074235051870346,-0.0003616072062868625,9.85096549987793,-0.005320963088613342,-0.006216004197461787,-0.004841743895210396,-52.566123395562435,-76.2327746416542,0,0.7964620590209961,2019-08-07 13:16:09:071
-0.023494889959692955,0.014006891287863255,9.841386795043945,-0.007452012629475789,-0.0035521926614952163,-0.004575362767621172,-47.91682460727121,-71.10825636116944,0,0.8000319004058838,2019-08-07 13:16:09:074
0.03876860439777374,0.023585889488458633,9.803071022033691,-0.005054581961024118,-0.0038185737890844406,-0.007505555171102641,-50.55325707057184,-66.0879226557761,0,0.8032932281494141,2019-08-07 13:16:09:078
0.017215855419635773,-0.03628285229206085,9.807860374450684,-0.007984774884654239,-0.007015147580229461,-0.006972792915924193,-53.13892271526861,-68.3604934370856,0,0.8064863681793213,2019-08-07 13:16:09:081
-0.016310639679431915,-0.02909860387444496,9.819833755493164,-0.006919250374297341,-0.004884098039367014,-0.004575362767621172,-48.47707286438364,-70.58850703015824,0,0.8100407123565674,2019-08-07 13:16:09:084
0.0076368567533791065,-0.012335355393588543,9.903650283813477,-0.006120106991529666,-0.0038185737890844406,-0.006440030660745744,-51.105950192022284,-72.77419158159147,0,0.8132941722869873,2019-08-07 13:16:09:088
0.024400103837251663,-0.031493354588747025,9.783912658691406,-0.0029235329403103213,-0.006216004197461787,-0.00617364953315652,-53.679859649065875,-74.91449536381405,0,0.8164851665496826,2019-08-07 13:16:09:091
0.00045260769547894597,0.004427892155945301,9.867729187011719,-0.005587344736351217,-0.0056832419422833385,-0.00617364953315652,-56.20507170118939,-69.8156006678168,0,0.820051908493042,2019-08-07 13:16:09:094
0.026794854551553726,-0.014730105176568031,9.829413414001465,-0.00425543883833077,-0.0046177169117777896,-0.004575362767621172,-58.67700375669973,-72.01679476757735,0,0.8233022689819336,2019-08-07 13:16:09:098
0.03397910296916962,-0.014730105176568031,9.824623107910156,-0.009050299395011138,-0.0014211433807070943,-0.004042600252368397,-61.09924715412868,-74.1731275792134,0,0.8264768123626709,2019-08-07 13:16:09:101
-0.023494889959692955,0.03555963933467865,9.803071022033691,-0.008783917747273263,-0.004084954916673665,-0.006706411788334968,-56.27919132433801,-69.09206429166017,0,0.8300399780273438,2019-08-07 13:16:09:104
-0.016310639679431915,-0.038677603006362915,9.83899211883545,-0.006386488119118891,-0.004084954916673665,-0.004575362767621172,-51.55476160947276,-71.30455279300394,0,0.8332903385162354,2019-08-07 13:16:09:108
-0.03307388722896576,-0.019519604742527008,9.874913215637207,-0.005320963088613342,-0.008613434345764809,-0.008038317426281092,-46.92595655985734,-73.47524046880561,0,0.8364906311035156,2019-08-07 13:16:09:111
-0.057021383196115494,0.03316488862037659,9.827017784118652,-0.006120106991529666,-0.0006219999979394207,-0.009370223064227214,-42.39396199811933,-68.4083775179603,0,0.8400566577911377,2019-08-07 13:16:09:114
0.03397910296916962,-0.02909860387444496,9.805465698242188,-0.007984774884654239,-0.00435133604426289,-0.008837460809048764,-45.14132016098313,-70.63535668643631,0,0.8432967662811279,2019-08-07 13:16:09:118
-0.013915890827775002,0.030770137906074524,9.891676902770996,-0.009316680002451712,-0.0046177169117777896,-0.008837460809048764,-40.6392838670232,-65.62455569741003,0,0.8464670181274414,2019-08-07 13:16:09:121
-0.004336891695857048,0.04034913703799248,9.78151798248291,-0.0031899140678995457,-0.0046177169117777896,-0.010702129222321988,-36.22608096698979,-60.71615231009455,0,0.8500356674194336,2019-08-07 13:16:09:124
-0.011521141044795513,0.0020331426057964563,9.836597442626953,-0.009050299395011138,-0.0054168602945454634,-0.012833178243035783,-31.901913394806815,-55.90041521748545,0,0.8532843589782715,2019-08-07 13:16:09:128
-0.01870539039373398,0.004427892155945301,9.870123863220215,-0.0077183937570650145,-0.0046177169117777896,-0.008837460809048764,-27.66521906393428,-51.18153743415621,0,0.8564767837524414,2019-08-07 13:16:09:131
-0.09294263273477554,-0.038677603006362915,9.757570266723633,-0.006386488119118891,-0.005949623069872562,-0.010968509829762562,-23.521637146937046,-53.752084660227005,0,0.8600456714630127,2019-08-07 13:16:09:134
-0.04265288636088371,0.03555963933467865,9.767149925231934,-0.005320963088613342,-0.00435133604426289,-0.009902985319405663,-19.45541545332426,-49.0802450952485,0,0.8632917404174805,2019-08-07 13:16:09:138
-0.030679138377308846,-0.005151106510311365,9.886886596679688,-0.005587344736351217,-0.00435133604426289,-0.013099558850476358,-15.469087996501193,-51.69704811928828,0,0.8664634227752686,2019-08-07 13:16:09:141
-0.03307388722896576,-0.045861851423978806,9.843781471252441,-0.0037226765831523197,-0.005949623069872562,-0.009902985319405663,-11.562360352940383,-54.25702007381196,0,0.8700435161590576,2019-08-07 13:16:09:144
-0.006731641478836536,-0.045861851423978806,9.759964942932129,-0.008783917747273263,-0.0035521926614952163,-0.009103842456786639,-7.731255348048875,-56.76489230456088,0,0.8732931613922119,2019-08-07 13:16:09:148
0.014821105636656284,-0.04346710070967674,9.83899211883545,-0.0037226765831523197,-0.006216004197461787,-0.014165083360833256,-11.17379532336299,-59.223868002476955,0,0.8764698505401611,2019-08-07 13:16:09:151
0.06511084735393524,0.006822641938924789,9.85096549987793,-0.010648586160546484,-0.005150479166956239,-0.014165083360833256,-14.54171447996531,-54.43805267096634,0,0.8800349235534668,2019-08-07 13:16:09:154
-0.045047637075185776,0.014006891287863255,9.791096687316895,-0.005587344736351217,-0.006748766452640236,-0.010702129222321988,-10.65491001042422,-49.74990237637353,0,0.8833134174346924,2019-08-07 13:16:09:158
-0.04744238778948784,-0.021914353594183922,9.767149925231934,-0.0039890577107415445,-0.0035521926614952163,-0.010968509829762562,-6.846777408438027,-52.35165895635754,0,0.8863239288330078,2019-08-07 13:16:09:161
0.019610606133937836,-0.014730105176568031,9.767149925231934,-0.008517537139832687,-0.0056832419422833385,-0.013365940498214234,-10.306333878154806,-54.901088345820185,0,0.8901069164276123,2019-08-07 13:16:09:165
-0.004336891695857048,0.0020331426057964563,9.69051742553711,-0.004788200833434893,-0.007015147580229461,-0.011234891477500435,-6.499528099803224,-50.202493437444154,0,0.8931329250335693,2019-08-07 13:16:09:168
-0.009126391261816025,-0.03628285229206085,9.7982816696167,-0.002390770685131872,-0.004884098039367014,-0.010968509829762562,-2.7697338914019434,-52.79377393692743,0,0.8963088989257812,2019-08-07 13:16:09:171
0.04595285281538963,0.011612141504883766,9.764754295349121,-0.006386488119118891,-0.004884098039367014,-0.013365940498214234,-6.3079142974980975,-48.13791134137827,0,0.9000730514526367,2019-08-07 13:16:09:174
-0.0019421420292928815,-0.031493354588747025,9.829413414001465,-0.007452012629475789,-0.0038185737890844406,-0.014697845616011706,-2.581334788965824,-50.770217746845745,0,0.9030935764312744,2019-08-07 13:16:09:178
0.0028473574202507734,0.023585889488458633,9.759964942932129,-0.008251156012243464,-0.005949623069872562,-0.013632321105654805,-6.1282495452414185,-46.156023463484175,0,0.906458854675293,2019-08-07 13:16:09:181
0.00045260769547894597,0.04274388775229454,9.795886039733887,-0.006652869246708115,-0.005150479166956239,-0.012034034340119461,-9.604527299906913,-41.636476676676445,0,0.9102773666381836,2019-08-07 13:16:09:185
-0.05941613391041756,-0.005151106510311365,9.786307334899902,-0.008251156012243464,-0.0054168602945454634,-0.013365940498214234,-5.818337435438245,-44.40153469431676,0,0.9137508869171143,2019-08-07 13:16:09:188
0.02200535498559475,0.04992813616991043,9.819833755493164,-0.007185631501886564,-0.007015147580229461,-0.011234891477500435,-9.298207192203572,-39.91810560163074,0,0.9167861938476562,2019-08-07 13:16:09:191
0.05792659893631935,-0.0075458562932908535,9.829413414001465,-0.005054581961024118,-0.0035521926614952163,-0.013632321105654805,-12.704816190975205,-42.717904956827496,0,0.9201645851135254,2019-08-07 13:16:09:195
-0.030679138377308846,-0.02909860387444496,9.815044403076172,-0.006919250374297341,-0.0054168602945454634,-0.014964227263749581,-8.85334619698413,-45.45892909633682,0,0.9233059883117676,2019-08-07 13:16:09:198
-0.0019421420292928815,0.004427892155945301,9.877307891845703,-0.006386488119118891,-0.0046177169117777896,-0.014431465008571131,-5.075722776261826,-40.949182935507764,0,0.926321268081665,2019-08-07 13:16:09:201
-0.011521141044795513,-0.017124855890870094,9.815044403076172,-0.007452012629475789,-0.0064823853250510115,-0.010702129222321988,-1.374181940330399,-43.72662330730266,0,0.9300892353057861,2019-08-07 13:16:09:205
0.0076368567533791065,-0.02909860387444496,9.791096687316895,-0.005320963088613342,-0.0046177169117777896,-0.014697845616011706,-4.945019358283284,-46.44778052693936,0,0.9331173896789551,2019-08-07 13:16:09:208
0.04595285281538963,-0.017124855890870094,9.827017784118652,-0.006120106991529666,-0.0064823853250510115,-0.01150127208494101,-8.439609534838798,-49.11574136179166,0,0.9362795352935791,2019-08-07 13:16:09:211
0.08905834704637527,-0.012335355393588543,9.817439079284668,-0.00425543883833077,-0.0054168602945454634,-0.012833178243035783,-11.859276470652052,-51.73108639555085,0,0.9400475025177002,2019-08-07 13:16:09:214
0.03876860439777374,-0.0075458562932908535,9.724043846130371,-0.006120106991529666,-0.0046177169117777896,-0.01150127208494101,-15.216738482168092,-54.29453655349109,0,0.943070650100708,2019-08-07 13:16:09:217
0.04355810210108757,-0.017124855890870094,9.81025505065918,-0.005853725863940442,-0.004884098039367014,-0.013099558850476358,-18.506448361290776,-56.80560583930568,0,0.9462337493896484,2019-08-07 13:16:09:221
0.053137101233005524,-0.0722040981054306,9.815044403076172,-0.007452012629475789,-0.0035521926614952163,-0.011767653732678886,-21.729363585033596,-59.259486252774124,0,0.9500043392181396,2019-08-07 13:16:09:224
0.019610606133937836,0.05471763759851456,9.759964942932129,-0.010115823905368035,-0.007547909835407911,-0.013099558850476358,-24.8911908685998,-54.479001391163095,0,0.9530315399169922,2019-08-07 13:16:09:227
-0.016310639679431915,-0.005151106510311365,9.747991561889648,-0.007452012629475789,-0.004084954916673665,-0.012566796595297908,-20.794538459116644,-56.98745498533181,0,0.9562838077545166,2019-08-07 13:16:09:231
0.024400103837251663,-0.009940605610609055,9.81025505065918,-0.007984774884654239,-0.003285811533905992,-0.009902985319405663,-23.975102344261217,-59.44485529197497,0,0.9600520133972168,2019-08-07 13:16:09:234
0.04595285281538963,0.018796389922499657,9.75278091430664,-0.0037226765831523197,-0.0038185737890844406,-0.013632321105654805,-27.089553256171627,-54.65753516636264,0,0.9630732536315918,2019-08-07 13:16:09:237
-0.0019421420292928815,0.011612141504883766,9.83899211883545,-0.005054581961024118,-0.0046177169117777896,-0.011234891477500435,-22.947168429907048,-49.96483936182749,0,0.9662356376647949,2019-08-07 13:16:09:241
0.053137101233005524,-0.017124855890870094,9.7982816696167,-0.005320963088613342,-0.0035521926614952163,-0.012833178243035783,-26.08135721827089,-52.56256093432764,0,0.9695119857788086,2019-08-07 13:16:09:244
0.026794854551553726,-0.02909860387444496,9.836597442626953,-0.007984774884654239,-0.005949623069872562,-0.013632321105654805,-29.15544717567686,-55.106361158533495,0,0.9729886054992676,2019-08-07 13:16:09:247
0.012426355853676796,0.0020331426057964563,9.829413414001465,-0.0077183937570650145,-0.0027530490186532175,-0.013099558850476358,-32.170363083763846,-50.402994926957675,0,0.9763944149017334,2019-08-07 13:16:09:251
0.03876860439777374,-0.06262510269880295,9.764754295349121,-0.004788200833434893,-0.008879815473354034,-0.014964227263749581,-35.12057783851841,-52.98660000516374,0,0.9800615310668945,2019-08-07 13:16:09:254
0.07947934418916702,-0.012335355393588543,9.841386795043945,-0.008517537139832687,-0.005150479166956239,-0.012566796595297908,-38.00780441485557,-55.523599987209224,0,0.983891487121582,2019-08-07 13:16:09:258
0.04595285281538963,0.018796389922499657,9.805465698242188,-0.006919250374297341,-0.00435133604426289,-0.010702129222321988,-40.84167791530528,-50.814370266071464,0,0.9863479137420654,2019-08-07 13:16:09:261
0.03876860439777374,-0.024309104308485985,9.779123306274414,-0.0039890577107415445,-0.007015147580229461,-0.00963660471196509,-43.61880995804947,-53.394386197252345,0,0.9901344776153564,2019-08-07 13:16:09:265
0.05074235051870346,-0.0027563569601625204,9.795886039733887,-0.005320963088613342,-0.003285811533905992,-0.011234891477500435,-46.33980819346837,-55.925058966408194,0,0.9938733577728271,2019-08-07 13:16:09:268
-0.006731641478836536,-0.0267038531601429,9.647412300109863,-0.009316680002451712,-0.0006219999979394207,-0.012566796595297908,-41.81368864054258,-58.401543998863865,0,0.997394323348999,2019-08-07 13:16:09:272
-0.01870539039373398,-0.005151106510311365,9.841386795043945,-0.007185631501886564,-0.0054168602945454634,-0.00963660471196509,-37.378324578900795,-60.83123087682825,0,1.0015642642974854,2019-08-07 13:16:09:276
0.053137101233005524,-0.04346710070967674,9.819833755493164,-0.00425543883833077,-0.0027530490186532175,-0.012833178243035783,-40.223975713348736,-63.208634869471254,0,1.0053269863128662,2019-08-07 13:16:09:280
0.05792659893631935,-0.02909860387444496,9.788702011108398,-0.006652869246708115,-0.007547909835407911,-0.007505555171102641,-43.01087384902654,-65.53943284276893,0,1.0096714496612549,2019-08-07 13:16:09:284
-0.009126391261816025,-0.05783560127019882,9.831808090209961,-0.007452012629475789,-8.92376858697129e-05,-0.010702129222321988,-38.55170234361189,-67.8204231572059,0,1.0132091045379639,2019-08-07 13:16:09:288
0.014821105636656284,-0.053046099841594696,9.719254493713379,-0.008517537139832687,-0.005949623069872562,-0.007239174043513418,-41.37753537837931,-70.05577705899898,0,1.0173563957214355,2019-08-07 13:16:09:292
0.03876860439777374,-0.0075458562932908535,9.767149925231934,-0.006120106991529666,-0.0046177169117777896,-0.009103842456786639,-44.14434971275167,-72.25233619440137,0,1.0215468406677246,2019-08-07 13:16:09:296
0.05074235051870346,-0.017124855890870094,9.767149925231934,-0.005587344736351217,-0.007547909835407911,-0.010435747574584113,-46.853906221615176,-74.40409349405775,0,1.025329828262329,2019-08-07 13:16:09:300
-0.011521141044795513,-0.038677603006362915,9.803071022033691,-0.004788200833434893,-0.0038185737890844406,-0.01150127208494101,-42.31724819300834,-76.51032853695564,0,1.0296516418457031,2019-08-07 13:16:09:304
0.04595285281538963,0.02119114063680172,9.728833198547363,-0.005853725863940442,-0.00435133604426289,-0.00963660471196509,-45.064625412769,-71.38145394044673,0,1.0331931114196777,2019-08-07 13:16:09:308
0.07229509949684143,-0.04346710070967674,9.800676345825195,-0.005054581961024118,-0.0035521926614952163,-0.01150127208494101,-47.754245748109064,-73.547839891104,0,1.0363738536834717,2019-08-07 13:16:09:311
0.06511084735393524,-0.04346710070967674,9.82222843170166,-0.006120106991529666,-0.003285811533905992,-0.010169366967143538,-50.390893719531036,-75.67056215743582,0,1.040010929107666,2019-08-07 13:16:09:314
0.05553185194730759,-0.038677603006362915,9.827017784118652,-0.008517537139832687,-0.0035521926614952163,-0.009370223064227214,-52.9759235370823,-77.75101775111304,0,1.0434045791625977,2019-08-07 13:16:09:318
-0.021100139245390892,-0.0027563569601625204,9.805465698242188,-0.008251156012243464,-0.0024866678910639927,-0.00963660471196509,-48.318430943335805,-79.79421532949704,0,1.046555757522583,2019-08-07 13:16:09:321
0.0675055980682373,-0.021914353594183922,9.831808090209961,-0.006652869246708115,-0.005150479166956239,-0.008304698553870315,-50.94319476461554,-81.79448545340563,0,1.0500128269195557,2019-08-07 13:16:09:324
0.024400103837251663,-0.019519604742527008,9.795886039733887,-0.0077183937570650145,-0.0056832419422833385,-0.008038317426281092,-53.52038980604593,-83.75483642888965,0,1.0534183979034424,2019-08-07 13:16:09:328
0.06990034878253937,0.059507135301828384,9.903650283813477,-0.008251156012243464,-0.005150479166956239,-0.008304698553870315,-56.04096098452274,-78.48512990191104,0,1.056645393371582,2019-08-07 13:16:09:331
0.06511084735393524,-0.019519604742527008,9.855754852294922,-0.005320963088613342,-0.005949623069872562,-0.007505555171102641,-58.51145596422633,-80.5121601038185,0,1.0599846839904785,2019-08-07 13:16:09:334
0.05553185194730759,-0.021914353594183922,9.807860374450684,-0.010115823905368035,-0.005150479166956239,-0.005640887277978069,-60.93374036883421,-82.49739559636478,0,1.0634369850158691,2019-08-07 13:16:09:338
0.07229509949684143,0.004427892155945301,9.815044403076172,-0.005054581961024118,-0.0046177169117777896,-0.0032434568696007235,-63.30580177583235,-77.247063326471,0,1.066612720489502,2019-08-07 13:16:09:341
0.0746898502111435,-0.017124855890870094,9.767149925231934,-0.006120106991529666,-0.004884098039367014,-0.010968509829762562,-65.62999883481214,-79.29895482154619,0,1.0699827671051025,2019-08-07 13:16:09:344
-0.045047637075185776,-0.0027563569601625204,9.86054515838623,-0.005320963088613342,-0.004884098039367014,-0.004841743895210396,-60.72168616168102,-81.3116228856937,0,1.0734386444091797,2019-08-07 13:16:09:348
0.06271609663963318,0.06190188601613045,9.836597442626953,-0.007185631501886564,-0.003285811533905992,-0.00963660471196509,-63.09936635223401,-76.09133307326509,0,1.076582670211792,2019-08-07 13:16:09:351
0.02918960340321064,-0.05544085055589676,9.81025505065918,-0.005320963088613342,-0.0064823853250510115,-0.004042600252368397,-65.43273291847493,-78.16201555581124,0,1.0799798965454102,2019-08-07 13:16:09:354
0.026794854551553726,-0.04107235372066498,9.714465141296387,-0.007452012629475789,-0.004084954916673665,-0.006972792915924193,-67.72012378744299,-80.19248235398626,0,1.0834405422210693,2019-08-07 13:16:09:358
0.06511084735393524,-0.0722040981054306,9.829413414001465,-0.008251156012243464,-0.0035521926614952163,-0.004841743895210396,-69.95750944499657,-82.17877202005029,0,1.0865557193756104,2019-08-07 13:16:09:361
0.012426355853676796,-0.07699359953403473,9.776728630065918,-0.006386488119118891,-0.003019430146242442,-0.0051081250227996205,-72.15632054937196,-84.1249409638451,0,1.0899899005889893,2019-08-07 13:16:09:364
0.0076368567533791065,-0.009940605610609055,9.779123306274414,-0.009316680002451712,-0.0027530490186532175,-0.008304698553870315,-74.31176532714572,-86.0394704305285,0,1.0934438705444336,2019-08-07 13:16:09:368
0.03397910296916962,-0.017124855890870094,9.747991561889648,-0.005320963088613342,-0.004084954916673665,-0.0051081250227996205,-76.42081084854802,-87.91572381091429,0,1.0966038703918457,2019-08-07 13:16:09:371
0.026794854551553726,0.004427892155945301,9.724043846130371,-0.005320963088613342,-0.00435133604426289,-0.002977075742011499,-78.48841277258086,-82.55692319119575,0,1.0999774932861328,2019-08-07 13:16:09:374
0.024400103837251663,0.023585889488458633,9.824623107910156,-0.008251156012243464,-0.007814290962997135,-0.006440030660745744,-80.51428076093279,-77.30693305310086,0,1.1034367084503174,2019-08-07 13:16:09:378
-0.006731641478836536,-0.014730105176568031,9.736018180847168,-0.007452012629475789,-0.0064823853250510115,-0.007505555171102641,-75.30364741092195,-79.35775011572402,0,1.1065688133239746,2019-08-07 13:16:09:381
0.03397910296916962,0.025980640202760696,9.836597442626953,-0.0029235329403103213,-0.0019539056358855436,-0.006706411788334968,-77.39324192523445,-74.17306189655736,0,1.1099791526794434,2019-08-07 13:16:09:384
-0.04025813564658165,-0.0027563569601625204,9.829413414001465,-0.006120106991529666,-0.00435133604426289,-0.005907268405567294,-72.24922669962903,-76.28809271634091,0,1.1134321689605713,2019-08-07 13:16:09:388
0.005242106970399618,0.004427892155945301,9.71207046508789,-0.006386488119118891,-0.0038185737890844406,-0.0032434568696007235,-74.4029492820451,-71.16172542716541,0,1.116577386856079,2019-08-07 13:16:09:391
0.026794854551553726,-0.019519604742527008,9.78151798248291,-0.011181348415724934,-0.0056832419422833385,-0.004042600252368397,-76.5106676140929,-73.33407219195365,0,1.1199731826782227,2019-08-07 13:16:09:394
-0.030679138377308846,0.004427892155945301,9.82222843170166,-0.006652869246708115,-0.003285811533905992,-0.006972792915924193,-71.38339611035981,-68.26661689530322,0,1.1234276294708252,2019-08-07 13:16:09:398
0.060321349650621414,-0.03388810157775879,9.834202766418457,-0.005587344736351217,-0.003285811533905992,-0.0016451699740282137,-73.54811896039362,-70.49634876914196,0,1.1265738010406494,2019-08-07 13:16:09:401
0.08187409490346909,0.004427892155945301,9.747991561889648,-0.005587344736351217,-0.007015147580229461,-0.005640887277978069,-75.66619157077743,-65.48587455825705,0,1.1299772262573242,2019-08-07 13:16:09:404
0.03637385368347168,0.03316488862037659,9.807860374450684,-0.009316680002451712,-0.0027530490186532175,-0.004575362767621172,-77.7480802446109,-60.57821219722198,0,1.133455753326416,2019-08-07 13:16:09:408
-0.04025813564658165,0.02837538905441761,9.824623107910156,-0.006120106991529666,-0.0027530490186532175,-0.0035098379971899483,-72.59733814282852,-55.76889926562739,0,1.136535406112671,2019-08-07 13:16:09:411
0.08666359633207321,0.07866512984037399,9.8797025680542,-0.004521819705845669,-0.007547909835407911,-0.006706411788334968,-74.7338781819264,-51.06176957850313,0,1.139984130859375,2019-08-07 13:16:09:414
0.04116335138678551,-0.06262510269880295,9.738412857055664,-0.00425543883833077,-0.0035521926614952163,-0.002177932229206663,-76.83366991271856,-53.63234213706443,0,1.1434288024902344,2019-08-07 13:16:09:418
0.03397910296916962,0.037954386323690414,9.74080753326416,-0.004788200833434893,-0.004084954916673665,-0.0032434568696007235,-78.89226143593541,-48.963295473642184,0,1.1466453075408936,2019-08-07 13:16:09:421
0.024400103837251663,0.011612141504883766,9.846176147460938,-0.005853725863940442,-0.0064823853250510115,-0.006972792915924193,-80.91035869034724,-44.384281311711305,0,1.1499910354614258,2019-08-07 13:16:09:424
0.0675055980682373,0.018796389922499657,9.738412857055664,-0.0077183937570650145,-0.006748766452640236,-0.004042600252368397,-82.88289942857925,-39.897310542427306,0,1.1534450054168701,2019-08-07 13:16:09:428
0.00045260769547894597,0.004427892155945301,9.767149925231934,-0.008517537139832687,-0.0056832419422833385,-0.004841743895210396,-84.82417613653286,-35.49836682883011,0,1.1566169261932373,2019-08-07 13:16:09:431
-0.023494889959692955,-0.017124855890870094,9.76954460144043,-0.0037226765831523197,-0.0024866678910639927,-0.005640887277978069,-79.52997948559675,-38.385688798608236,0,1.159975528717041,2019-08-07 13:16:09:434
0.012426355853676796,-0.005151106510311365,9.918018341064453,-0.006386488119118891,-0.007814290962997135,-0.0051081250227996205,-81.53643065529725,-41.21614289950646,0,1.1634249687194824,2019-08-07 13:16:09:438
0.0028473574202507734,-0.019519604742527008,9.757570266723633,-0.005320963088613342,-0.0054168602945454634,-0.0077719362986918665,-83.50441580176339,-43.988592689470195,0,1.1665544509887695,2019-08-07 13:16:09:441
0.0028473574202507734,0.014006891287863255,9.697701454162598,-0.007452012629475789,-0.0054168602945454634,-0.007505555171102641,-85.4329470125562,-39.509039675244395,0,1.1699869632720947,2019-08-07 13:16:09:444
0.014821105636656284,0.02837538905441761,9.779123306274414,-0.006386488119118891,-0.0056832419422833385,-0.00857107968145954,-87.32144783860558,-35.120943845874656,0,1.1734449863433838,2019-08-07 13:16:09:448
0.017215855419635773,-0.03388810157775879,9.776728630065918,-0.004788200833434893,-0.005949623069872562,-0.00244431348683305,-89.17194354478951,-38.01370194984527,0,1.1766104698181152,2019-08-07 13:16:09:451
0.010031606070697308,-0.038677603006362915,9.743202209472656,-0.005320963088613342,-0.004884098039367014,-0.006440030660745744,-90.98640115565823,-40.847872688545316,0,1.179978609085083,2019-08-07 13:16:09:454
-0.023494889959692955,0.0020331426057964563,9.745596885681152,-0.009316680002451712,-0.0006219999979394207,-0.006440030660745744,-85.56931482749862,-36.429343430028176,0,1.1834402084350586,2019-08-07 13:16:09:458
0.07229509949684143,0.03316488862037659,9.786307334899902,-0.008783917747273263,-0.004884098039367014,-0.00857107968145954,-87.4486026610789,-32.10309196975324,0,1.1865787506103516,2019-08-07 13:16:09:461
-0.023494889959692955,-0.038677603006362915,9.759964942932129,-0.0039890577107415445,-0.0046177169117777896,-0.010702129222321988,-82.10150742051468,-35.05572734873248,0,1.1899793148040771,2019-08-07 13:16:09:464
0.04595285281538963,-0.03388810157775879,9.805465698242188,-0.005320963088613342,-0.006216004197461787,-0.009370223064227214,-84.05289401119467,-37.949614126866734,0,1.1934547424316406,2019-08-07 13:16:09:468
-0.02588963881134987,-0.0027563569601625204,9.695306777954102,-0.0034562954555630953,-0.004884098039367014,-0.006440030660745744,-78.77402922851455,-40.78968261486069,0,1.1966156959533691,2019-08-07 13:16:09:471
0.012426355853676796,-0.05544085055589676,9.867729187011719,-0.008517537139832687,-0.008879815473354034,-0.008837460809048764,-80.79542410652385,-43.565837924180464,0,1.1999881267547607,2019-08-07 13:16:09:474
-0.04265288636088371,0.011612141504883766,9.82222843170166,-0.004521819705845669,-0.005949623069872562,-0.0077719362986918665,-75.58333824384638,-39.09499924304823,0,1.2034409046173096,2019-08-07 13:16:09:478
-0.03546863794326782,-0.045861851423978806,9.812649726867676,-0.007185631501886564,-0.003285811533905992,-0.00963660471196509,-70.47523353396389,-41.9064753380375,0,1.2065842151641846,2019-08-07 13:16:09:481
-0.004336891695857048,-0.012335355393588543,9.800676345825195,-0.005054581961024118,-0.00435133604426289,-0.009103842456786639,-65.46540416027331,-44.665937345774395,0,1.2099885940551758,2019-08-07 13:16:09:484
0.07229509949684143,0.018796389922499657,9.767149925231934,-0.008783917747273263,-0.007281528707818685,-0.008837460809048764,-67.74620087598632,-40.17311877198811,0,1.2134456634521484,2019-08-07 13:16:09:488
0.05792659893631935,-0.0003616072062868625,9.747991561889648,-0.002390770685131872,-0.004884098039367014,-0.010169366967143538,-69.98359815041243,-42.96918837297869,0,1.2166154384613037,2019-08-07 13:16:09:491
-0.04025813564658165,0.02119114063680172,9.805465698242188,-0.006652869246708115,-0.0046177169117777896,-0.01150127208494101,-64.9877588584883,-38.5110246908657,0,1.2199788093566895,2019-08-07 13:16:09:494
0.060321349650621414,0.004427892155945301,9.815044403076172,-0.004788200833434893,-0.0019539056358855436,-0.009902985319405663,-67.28058233426492,-34.140392726457904,0,1.2234320640563965,2019-08-07 13:16:09:498
0.03876860439777374,-0.021914353594183922,9.803071022033691,-0.007452012629475789,-0.0054168602945454634,-0.00963660471196509,-69.52948184023639,-37.05370657951182,0,1.226578712463379,2019-08-07 13:16:09:501
0.017215855419635773,-0.0027563569601625204,9.803071022033691,-0.010115823905368035,-0.0046177169117777896,-0.011767653732678886,-71.73599541269779,-39.910372896749145,0,1.2299895286560059,2019-08-07 13:16:09:504
-0.045047637075185776,0.011612141504883766,9.74080753326416,-0.0037226765831523197,-0.0022202867634747683,-0.011234891477500435,-66.70614091227428,-35.51280384182846,0,1.2334706783294678,2019-08-07 13:16:09:508
0.026794854551553726,-0.045861851423978806,9.815044403076172,-0.009316680002451712,-0.0054168602945454634,-0.012300415987857336,-68.96797396749253,-38.39561825080027,0,1.2364816665649414,2019-08-07 13:16:09:511
0.03876860439777374,-0.009940605610609055,9.858149528503418,-0.00425543883833077,-0.001687524508296319,-0.010169366967143538,-71.18377713893629,-41.22571597136324,0,1.239973783493042,2019-08-07 13:16:09:514
0.02200535498559475,-0.021914353594183922,9.791096687316895,-0.007984774884654239,-0.006216004197461787,-0.012566796595297908,-73.35632072269854,-43.99708841729943,0,1.2434275150299072,2019-08-07 13:16:09:518
-0.0019421420292928815,-0.02909860387444496,9.747991561889648,-0.006919250374297341,-0.0022202867634747683,-0.009370223064227214,-68.28903303078934,-46.71251191052006,0,1.2465524673461914,2019-08-07 13:16:09:521
-0.03546863794326782,0.03316488862037659,9.79349136352539,-0.005054581961024118,-0.00435133604426289,-0.012034034340119461,-63.326563457210675,-42.18116760919302,0,1.2499864101409912,2019-08-07 13:16:09:524
0.06271609663963318,0.0020331426057964563,9.867729187011719,-0.005054581961024118,-0.0056832419422833385,-0.01602975177410648,-65.65164746597037,-37.73680048161478,0,1.253438949584961,2019-08-07 13:16:09:528
-0.03546863794326782,0.0020331426057964563,9.71207046508789,-0.010648586160546484,-0.005150479166956239,-0.012300415987857336,-60.741883188086,-33.3804100966282,0,1.2566070556640625,2019-08-07 13:16:09:531
0.026794854551553726,-0.014730105176568031,9.815044403076172,-0.006919250374297341,-0.0046177169117777896,-0.014165083360833256,-63.123043593524606,-36.3097731068041,0,1.2599763870239258,2019-08-07 13:16:09:534
0.06511084735393524,-0.08417784422636032,9.75278091430664,-0.008251156012243464,-0.004084954916673665,-0.013099558850476358,-65.45214091782555,-39.172088292060764,0,1.263427734375,2019-08-07 13:16:09:538
0.031584352254867554,-0.04346710070967674,9.85096549987793,-0.007185631501886564,-0.006748766452640236,-0.010968509829762562,-67.73819615121016,-41.9822828495973,0,1.2666680812835693,2019-08-07 13:16:09:541
-0.03546863794326782,0.011612141504883766,9.827017784118652,-0.006919250374297341,-0.006748766452640236,-0.011234891477500435,-62.786300142756474,-37.54269121785849,0,1.2700142860412598,2019-08-07 13:16:09:544
0.00045260769547894597,-0.053046099841594696,9.827017784118652,-0.0039890577107415445,-0.0056832419422833385,-0.011767653732678886,-65.12942067594693,-40.384879248219235,0,1.273463487625122,2019-08-07 13:16:09:548
0.026794854551553726,-0.005151106510311365,9.803071022033691,-0.006919250374297341,-0.0038185737890844406,-0.01150127208494101,-67.42304149627216,-43.175386097842335,0,1.2765352725982666,2019-08-07 13:16:09:551
0.024400103837251663,-0.005151106510311365,9.719254493713379,-0.005853725863940442,-0.0046177169117777896,-0.012034034340119461,-69.67080793060833,-45.91013531082835,0,1.2799906730651855,2019-08-07 13:16:09:554
0.02200535498559475,-0.03628285229206085,9.836597442626953,-0.006386488119118891,-0.0054168602945454634,-0.01150127208494101,-71.8737814125849,-48.58647161378858,0,1.2834324836730957,2019-08-07 13:16:09:558
-0.02588963881134987,-0.0027563569601625204,9.779123306274414,-0.0021243895575426474,-0.004884098039367014,-0.009902985319405663,-66.83847481285186,-51.214043078941046,0,1.2865855693817139,2019-08-07 13:16:09:561
0.03397910296916962,-0.02909860387444496,9.771939277648926,-0.006652869246708115,-0.007281528707818685,-0.012034034340119461,-69.09633156719192,-53.78508071428328,0,1.2899832725524902,2019-08-07 13:16:09:564
0.03397910296916962,-0.03628285229206085,9.824623107910156,-0.006652869246708115,-0.0056832419422833385,-0.012300415987857336,-71.30934058500995,-56.3038581822101,0,1.2934339046478271,2019-08-07 13:16:09:568
0.012426355853676796,0.06908613443374634,9.82222843170166,-0.007984774884654239,-0.0046177169117777896,-0.008837460809048764,-73.48088847951009,-51.584430610340455,0,1.296579360961914,2019-08-07 13:16:09:571
0.06511084735393524,-0.024309104308485985,9.889281272888184,-0.005587344736351217,-0.003019430146242442,-0.010968509829762562,-75.60314915330541,-54.148857521145736,0,1.2999825477600098,2019-08-07 13:16:09:574
0.03637385368347168,-0.0027563569601625204,9.74080753326416,-0.008251156012243464,-0.0014211433807070943,-0.012833178243035783,-77.68653164155567,-56.663956544951326,0,1.3034350872039795,2019-08-07 13:16:09:578
-0.0019421420292928815,-0.031493354588747025,9.759964942932129,-0.005587344736351217,-0.005949623069872562,-0.009370223064227214,-72.53196819526964,-59.12598355384046,0,1.3066105842590332,2019-08-07 13:16:09:581
0.017215855419635773,-0.0027563569601625204,9.759964942932129,-0.006120106991529666,-0.005150479166956239,-0.009902985319405663,-74.67833256534955,-61.54198175626369,0,1.3099818229675293,2019-08-07 13:16:09:584
0.09145309776067734,0.014006891287863255,9.726438522338867,-0.004788200833434893,-0.007547909835407911,-0.01150127208494101,-76.77252516020218,-56.71186198092467,0,1.3134422302246094,2019-08-07 13:16:09:588
0.017215855419635773,0.004427892155945301,9.82222843170166,-0.007984774884654239,-0.004084954916673665,-0.007239174043513418,-78.83434053358584,-51.976722953255276,0,1.316605806350708,2019-08-07 13:16:09:591
0.05074235051870346,0.052322886884212494,9.843781471252441,-0.0039890577107415445,-0.006216004197461787,-0.013365940498214234,-80.85057061318722,-47.34252450929796,0,1.3199758529663086,2019-08-07 13:16:09:594
0.05553185194730759,-0.02909860387444496,9.803071022033691,-0.007984774884654239,-0.004084954916673665,-0.0051081250227996205,-82.82627418894573,-49.99072103073117,0,1.3234364986419678,2019-08-07 13:16:09:598
0.04355810210108757,0.0020331426057964563,9.834202766418457,-0.006120106991529666,-0.004084954916673665,-0.009902985319405663,-84.76395506004026,-45.39006760216962,0,1.3265674114227295,2019-08-07 13:16:09:601
0.06271609663963318,0.0020331426057964563,9.865334510803223,-0.008783917747273263,-0.00435133604426289,-0.01150127208494101,-86.66055547749829,-40.880815321726764,0,1.3299880027770996,2019-08-07 13:16:09:604
0.03397910296916962,-0.014730105176568031,9.728833198547363,-0.008517537139832687,-0.004084954916673665,-0.010435747574584113,-88.52255066789363,-43.659813729344684,0,1.3334386348724365,2019-08-07 13:16:09:608
-0.011521141044795513,0.02119114063680172,9.788702011108398,-0.007452012629475789,-0.006748766452640236,-0.009902985319405663,-83.15225670222314,-39.18778234192251,0,1.3365833759307861,2019-08-07 13:16:09:611
0.05553185194730759,-0.06501984596252441,9.815044403076172,-0.008517537139832687,-0.0054168602945454634,-0.007239174043513418,-85.0816956803372,-41.99481206616526,0,1.3399782180786133,2019-08-07 13:16:09:614
0.017215855419635773,-0.0003616072062868625,9.800676345825195,-0.006919250374297341,-0.004084954916673665,-0.010169366967143538,-86.97725629091438,-44.75353107017235,0,1.3434336185455322,2019-08-07 13:16:09:618
0.05553185194730759,-0.07938835024833679,9.853360176086426,-0.006919250374297341,-0.003019430146242442,-0.00617364953315652,-88.83070638719785,-47.44797530959555,0,1.3466579914093018,2019-08-07 13:16:09:621
0.019610606133937836,-0.045861851423978806,9.829413414001465,-0.005054581961024118,-0.005150479166956239,-0.008304698553870315,-90.65084633304733,-50.09272740481385,0,1.3499765396118164,2019-08-07 13:16:09:624
0.00045260769547894597,-0.03388810157775879,9.762359619140625,-0.0077183937570650145,-0.005949623069872562,-0.007239174043513418,-92.43662201103784,-52.68539763176742,0,1.3534317016601562,2019-08-07 13:16:09:628
0.04116335138678551,0.004427892155945301,9.762359619140625,-0.009050299395011138,-0.007547909835407911,-0.007505555171102641,-94.18174745025921,-48.03063825383766,0,1.3565235137939453,2019-08-07 13:16:09:631
0.03637385368347168,0.011612141504883766,9.862939834594727,-0.006120106991529666,-0.004884098039367014,-0.006440030660745744,-95.89293636277425,-43.47018409477573,0,1.3599879741668701,2019-08-07 13:16:09:634
0.03397910296916962,0.011612141504883766,9.812649726867676,-0.004521819705845669,-0.0046177169117777896,-0.007505555171102641,-97.57021353698103,-39.00125902572117,0,1.3634438514709473,2019-08-07 13:16:09:638
-0.03307388722896576,-0.053046099841594696,9.815044403076172,-0.0034562954555630953,-0.004884098039367014,-0.007505555171102641,-92.02180124438144,-41.814425471440735,0,1.3666141033172607,2019-08-07 13:16:09:641
0.02918960340321064,-0.009940605610609055,9.755175590515137,-0.005853725863940442,-0.003019430146242442,-0.00244431348683305,-93.77736564810722,-44.575862753465884,0,1.3699805736541748,2019-08-07 13:16:09:644
0.014821105636656284,-0.0027563569601625204,9.829413414001465,-0.007452012629475789,-0.004884098039367014,-0.005374506150388846,-95.49914320099798,-47.282578818922744,0,1.3734347820281982,2019-08-07 13:16:09:648
0.07229509949684143,-0.014730105176568031,9.762359619140625,-0.006919250374297341,-0.0054168602945454634,-0.006972792915924193,-97.17972293248667,-49.93398282174197,0,1.3765630722045898,2019-08-07 13:16:09:651
-0.023494889959692955,0.006822641938924789,9.841386795043945,-0.00425543883833077,-0.0046177169117777896,-0.005907268405567294,-91.63797739507555,-45.335280372800874,0,1.3799831867218018,2019-08-07 13:16:09:654
-0.004336891695857048,-0.021914353594183922,9.7982816696167,-0.004521819705845669,-0.003285811533905992,-0.004841743895210396,-86.20508713960606,-48.02513400184662,0,1.3834407329559326,2019-08-07 13:16:09:658
0.02918960340321064,-0.005151106510311365,9.79349136352539,-0.005587344736351217,-0.0024866678910639927,-0.00244431348683305,-88.07713137176665,-50.66304305367678,0,1.3865821361541748,2019-08-07 13:16:09:661
-0.04265288636088371,-0.014730105176568031,9.889281272888184,-0.007185631501886564,-0.0038185737890844406,-0.006706411788334968,-82.71980258616969,-53.246704471314146,0,1.3899798393249512,2019-08-07 13:16:09:664
-0.004336891695857048,-0.019519604742527008,9.8797025680542,-0.0077183937570650145,-0.005949623069872562,-0.008304698553870315,-77.4647482002959,-55.777999749719704,0,1.393456220626831,2019-08-07 13:16:09:668
0.010031606070697308,-0.04107235372066498,9.783912658691406,-0.0077183937570650145,-0.003285811533905992,-0.0051081250227996205,-79.51369582526804,-58.25626102709404,0,1.396613359451294,2019-08-07 13:16:09:671
-0.030679138377308846,-0.0722040981054306,9.81025505065918,-0.009050299395011138,-0.0056832419422833385,-0.005907268405567294,-74.32592965676419,-60.68098877480847,0,1.39998459815979,2019-08-07 13:16:09:674
0.024400103837251663,-0.0003616072062868625,9.747991561889648,-0.004521819705845669,-0.006216004197461787,-0.006440030660745744,-76.43533704140768,-63.066449408407024,0,1.4034390449523926,2019-08-07 13:16:09:678
0.0028473574202507734,0.02119114063680172,9.726438522338867,-0.008251156012243464,-0.008879815473354034,-0.008304698553870315,-78.50472639582146,-58.20615963572368,0,1.4065847396850586,2019-08-07 13:16:09:681
-0.004336891695857048,0.011612141504883766,9.812649726867676,-0.0039890577107415445,-0.0035521926614952163,-0.005907268405567294,-73.33446158932249,-53.442632534918474,0,1.409977674484253,2019-08-07 13:16:09:684
0.02918960340321064,0.014006891287863255,9.937176704406738,-0.0018580084299534227,-0.0022202867634747683,-0.005374506150388846,-75.46397490401209,-48.77503406349096,0,1.413438320159912,2019-08-07 13:16:09:688
0.02200535498559475,-0.02909860387444496,9.767149925231934,-0.007452012629475789,-0.0046177169117777896,-0.004841743895210396,-77.55129884120906,-51.39480448956802,0,1.4165809154510498,2019-08-07 13:16:09:691
-0.02588963881134987,0.0020331426057964563,9.865334510803223,-0.002390770685131872,-0.0046177169117777896,-0.006440030660745744,-72.40239942700317,-46.766688608463944,0,1.4199774265289307,2019-08-07 13:16:09:694
-0.06420563161373138,0.009217391721904278,9.819833755493164,-0.0039890577107415445,-0.0035521926614952163,-0.007239174043513418,-67.36115578211952,-42.231657880622805,0,1.423426628112793,2019-08-07 13:16:09:698
0.012426355853676796,0.06669138371944427,9.877307891845703,-0.0039890577107415445,-0.0035521926614952163,-0.008837460809048764,-69.6118540881935,-37.79404653537117,0,1.4266200065612793,2019-08-07 13:16:09:701
-0.021100139245390892,0.037954386323690414,9.805465698242188,-0.005587344736351217,-0.0024866678910639927,-0.002177932229206663,-64.62161328910577,-33.441546010255514,0,1.429983139038086,2019-08-07 13:16:09:704
-0.03546863794326782,0.03555963933467865,9.762359619140625,-0.006120106991529666,-0.006748766452640236,-0.006706411788334968,-59.732035494016934,-29.17570216461722,0,1.4334371089935303,2019-08-07 13:16:09:708
-0.004336891695857048,0.02837538905441761,9.747991561889648,-0.005587344736351217,-0.0022202867634747683,-0.010169366967143538,-54.93751374099539,-24.994540149535418,0,1.4365723133087158,2019-08-07 13:16:09:711
0.03397910296916962,0.03555963933467865,9.827017784118652,-0.005853725863940442,-0.005150479166956239,-0.006972792915924193,-57.43381626789213,-20.89767644955106,0,1.4399781227111816,2019-08-07 13:16:09:714
0.04355810210108757,0.025980640202760696,9.697701454162598,-0.005320963088613342,-0.0024866678910639927,-0.0051081250227996205,-59.87951096255605,-16.881761431278413,0,1.4434304237365723,2019-08-07 13:16:09:718
0.09145309776067734,-0.07699359953403473,9.750386238098145,-0.0039890577107415445,-0.00435133604426289,-0.009103842456786639,-62.270408053280164,-20.134376428855514,0,1.446561336517334,2019-08-07 13:16:09:721
0.04595285281538963,0.011612141504883766,9.807860374450684,-0.009583061650189587,-0.007547909835407911,-0.007505555171102641,-64.61818268305217,-16.131206839279812,0,1.4499785900115967,2019-08-07 13:16:09:724
0.0076368567533791065,0.03555963933467865,9.795886039733887,-0.006386488119118891,-0.006748766452640236,-0.0051081250227996205,-66.92361736235023,-12.211504342686235,0,1.4534311294555664,2019-08-07 13:16:09:728
0.053137101233005524,-0.03388810157775879,9.807860374450684,-0.004788200833434893,-8.92376858697129e-05,-0.006972792915924193,-69.17892092883713,-15.56246730568363,0,1.4565837383270264,2019-08-07 13:16:09:731
0.026794854551553726,-0.05544085055589676,9.771939277648926,-0.006120106991529666,-0.0035521926614952163,-0.00857107968145954,-71.39152313312033,-18.843549846053705,0,1.4599792957305908,2019-08-07 13:16:09:734
0.0028473574202507734,-0.05544085055589676,9.791096687316895,-0.006919250374297341,-0.0022202867634747683,-0.007505555171102641,-73.56292849650359,-22.05884737797821,0,1.4634358882904053,2019-08-07 13:16:09:738
0.06271609663963318,0.0020331426057964563,9.800676345825195,-0.005587344736351217,-0.0022202867634747683,-0.006440030660745744,-75.68394531607913,-18.016922152737532,0,1.466578722000122,2019-08-07 13:16:09:741
-0.009126391261816025,-0.038677603006362915,9.819833755493164,-0.005320963088613342,-0.005150479166956239,-0.0077719362986918665,-70.57034879311438,-21.251055152797,0,1.4699764251708984,2019-08-07 13:16:09:744
-0.021100139245390892,0.03555963933467865,9.831808090209961,-0.0077183937570650145,-0.0064823853250510115,-0.009103842456786639,-65.56014318641563,-17.228680842563676,0,1.4734323024749756,2019-08-07 13:16:09:748
-0.004336891695857048,0.0451386384665966,9.771939277648926,-0.006386488119118891,-0.003019430146242442,-0.009103842456786639,-60.6489176712889,-13.288276811015509,0,1.4765655994415283,2019-08-07 13:16:09:751
0.024400103837251663,-0.0267038531601429,9.83899211883545,-0.0037226765831523197,-0.003285811533905992,-0.006440030660745744,-63.032468937990444,-16.618689013050123,0,1.4799726009368896,2019-08-07 13:16:09:754
0.053137101233005524,-0.014730105176568031,9.759964942932129,-0.005853725863940442,-0.0054168602945454634,-0.007239174043513418,-65.36452801054008,-19.88344807474148,0,1.4834339618682861,2019-08-07 13:16:09:758
0.019610606133937836,0.030770137906074524,9.736018180847168,-0.0077183937570650145,-0.003019430146242442,-0.007505555171102641,-67.65439708124094,-15.888040190361135,0,1.4865732192993164,2019-08-07 13:16:09:761
0.017215855419635773,0.023585889488458633,9.848570823669434,-0.004521819705845669,-0.004884098039367014,-0.008837460809048764,-69.8983733757825,-11.972160219581479,0,1.489974021911621,2019-08-07 13:16:09:764
-0.011521141044795513,0.004427892155945301,9.889281272888184,-0.007452012629475789,-0.0054168602945454634,-0.00963660471196509,-64.9006837696272,-8.131775773786554,0,1.4934496879577637,2019-08-07 13:16:09:768
0.0675055980682373,-0.024309104308485985,9.882097244262695,-0.005054581961024118,-0.005150479166956239,-0.010435747574584113,-67.19392882847684,-11.565424896633004,0,1.4966084957122803,2019-08-07 13:16:09:771
0.053137101233005524,-0.024309104308485985,9.776728630065918,-0.0077183937570650145,-0.0027530490186532175,-0.008038317426281092,-69.44330160942069,-14.929807670880173,0,1.4999761581420898,2019-08-07 13:16:09:774
0.0483475998044014,0.016401641070842743,9.726438522338867,-0.010115823905368035,-0.006748766452640236,-0.013365940498214234,-71.64742276944828,-11.031170087469212,0,1.5034511089324951,2019-08-07 13:16:09:778
0.03876860439777374,0.05711238458752632,9.78151798248291,-0.007452012629475789,-0.0046177169117777896,-0.008038317426281092,-73.80911457523717,-7.215917345969417,0,1.506605863571167,2019-08-07 13:16:09:781
-0.0019421420292928815,-0.024309104308485985,9.853360176086426,-0.005853725863940442,-0.004884098039367014,-0.01150127208494101,-68.73223204631418,-10.667661971035308,0,1.5099828243255615,2019-08-07 13:16:09:784
0.0938478484749794,-0.021914353594183922,9.805465698242188,-0.006652869246708115,-0.0038185737890844406,-0.006706411788334968,-70.94587897442148,-14.050456300397443,0,1.5134398937225342,2019-08-07 13:16:09:788
0.02918960340321064,-0.04825660213828087,9.831808090209961,-0.006386488119118891,-0.001687524508296319,-0.014165083360833256,-73.12326177632659,-17.362696826889405,0,1.5165798664093018,2019-08-07 13:16:09:791
0.05074235051870346,0.02837538905441761,9.855754852294922,-0.009583061650189587,-0.0003556188378409054,-0.010169366967143538,-75.25482897793071,-13.416913146796453,0,1.5199787616729736,2019-08-07 13:16:09:794
0.0028473574202507734,-0.0075458562932908535,9.874913215637207,-0.0015916273023641983,-0.0035521926614952163,-0.009902985319405663,-77.3487122617284,-16.747390197103627,0,1.5234367847442627,2019-08-07 13:16:09:798
0.05792659893631935,-0.021914353594183922,9.709675788879395,-0.006919250374297341,-0.0038185737890844406,-0.010968509829762562,-79.3942271947019,-20.00863386934832,0,1.5265827178955078,2019-08-07 13:16:09:801
0.02200535498559475,-0.005151106510311365,9.913228988647461,-0.008517537139832687,-0.0038185737890844406,-0.00963660471196509,-81.40307100774227,-23.206242025682517,0,1.529977798461914,2019-08-07 13:16:09:804
0.0675055980682373,-0.031493354588747025,9.805465698242188,-0.006386488119118891,-0.005150479166956239,-0.010968509829762562,-83.3661221327097,-26.337198559792974,0,1.533430576324463,2019-08-07 13:16:09:808
0.03397910296916962,0.02119114063680172,9.846176147460938,-0.005853725863940442,-0.0038185737890844406,-0.015763370126368605,-85.29417584413463,-22.211894816947165,0,1.5365521907806396,2019-08-07 13:16:09:811
0.06271609663963318,-0.014730105176568031,9.759964942932129,-0.0029235329403103213,-0.0056832419422833385,-0.009103842456786639,-87.17983251851552,-25.36536344779425,0,1.5399880409240723,2019-08-07 13:16:09:814
0.07229509949684143,-0.02909860387444496,9.709675788879395,-0.006919250374297341,-0.0019539056358855436,-0.010702129222321988,-89.02732418459202,-28.453277334966554,0,1.5434491634368896,2019-08-07 13:16:09:818
0.03397910296916962,-0.019519604742527008,9.771939277648926,-0.0077183937570650145,-0.004884098039367014,-0.009370223064227214,-90.84191612669369,-31.480536875464217,0,1.546647071838379,2019-08-07 13:16:09:821
0.07229509949684143,-0.031493354588747025,9.76954460144043,-0.00425543883833077,-0.00435133604426289,-0.013099558850476358,-92.61578498774364,-34.44643692754795,0,1.5499751567840576,2019-08-07 13:16:09:824
0.15132184326648712,-0.05544085055589676,9.815044403076172,-0.005320963088613342,-0.00435133604426289,-0.012833178243035783,-94.34495883305273,-37.35000232858149,0,1.5534331798553467,2019-08-07 13:16:09:828
0.08426884561777115,-0.038677603006362915,9.803071022033691,-0.00425543883833077,-0.0014211433807070943,-0.010435747574584113,-96.0479593122394,-40.197732238774584,0,1.5565674304962158,2019-08-07 13:16:09:831
0.010031606070697308,0.04274388775229454,9.78151798248291,-0.005853725863940442,-0.007015147580229461,-0.008837460809048764,-97.7244836475606,-35.79766584911879,0,1.5599725246429443,2019-08-07 13:16:09:834
0.08187409490346909,-0.0075458562932908535,9.870123863220215,-0.01038220555310591,-0.004084954916673665,-0.009103842456786639,-99.35969576608099,-38.678821270604786,0,1.563429355621338,2019-08-07 13:16:09:838
0.07947934418916702,0.030770137906074524,9.85096549987793,-0.004788200833434893,-0.00435133604426289,-0.010169366967143538,-100.96248918739992,-34.30797971669025,0,1.5665702819824219,2019-08-07 13:16:09:841
0.05792659893631935,0.025980640202760696,9.74080753326416,-0.004788200833434893,-0.0027530490186532175,-0.007505555171102641,-102.53589891821684,-30.023961590373705,0,1.5699732303619385,2019-08-07 13:16:09:844
0.04595285281538963,-0.005151106510311365,9.704886436462402,-0.010648586160546484,-0.0046177169117777896,-0.010169366967143538,-104.07886022669607,-33.02081066027804,0,1.5734243392944336,2019-08-07 13:16:09:848
0.014821105636656284,-0.038677603006362915,9.697701454162598,-0.006120106991529666,-0.0035521926614952163,-0.010435747574584113,-105.59490632775544,-35.95474671190347,0,1.5765597820281982,2019-08-07 13:16:09:851
0.03397910296916962,-0.031493354588747025,9.812649726867676,-0.004788200833434893,-0.004884098039367014,-0.007239174043513418,-107.07809908138715,-38.831051416508004,0,1.579991340637207,2019-08-07 13:16:09:854
0.08666359633207321,-0.02909860387444496,9.812649726867676,-0.006386488119118891,-0.0046177169117777896,-0.008038317426281092,-108.5255231945676,-41.64979633518281,0,1.5834379196166992,2019-08-07 13:16:09:858
0.06271609663963318,-0.031493354588747025,9.78151798248291,-0.007452012629475789,-0.007015147580229461,-0.008304698553870315,-109.94642751685537,-44.41179578601483,0,1.5865809917449951,2019-08-07 13:16:09:861
0.0076368567533791065,0.025980640202760696,9.867729187011719,-0.005853725863940442,-0.003019430146242442,-0.010435747574584113,-111.3460364725499,-39.925460938893686,0,1.5899763107299805,2019-08-07 13:16:09:864
0.03397910296916962,0.04753338545560837,9.815044403076172,-0.005054581961024118,-0.0046177169117777896,-0.010169366967143538,-112.71424939813296,-35.53151689849444,0,1.593444585800171,2019-08-07 13:16:09:868
0.10582159459590912,-0.03628285229206085,9.736018180847168,-0.006919250374297341,-0.007814290962997135,-0.008837460809048764,-114.04612437700169,-38.41538935887466,0,1.596602201461792,2019-08-07 13:16:09:871
0.024400103837251663,-0.07459884881973267,9.800676345825195,-0.0039890577107415445,-0.007814290962997135,-0.005640887277978069,-115.36086538743483,-41.23760213664942,0,1.5999834537506104,2019-08-07 13:16:09:874
0.005242106970399618,-0.017124855890870094,9.678544044494629,-0.006919250374297341,-0.0035521926614952163,-0.008304698553870315,-116.65233827748246,-44.009480173433964,0,1.6034386157989502,2019-08-07 13:16:09:878
0.02200535498559475,-0.019519604742527008,9.815044403076172,-0.007984774884654239,-0.0056832419422833385,-0.005640887277978069,-117.91571070110759,-46.7255902774393,0,1.6066088676452637,2019-08-07 13:16:09:881
0.005242106970399618,-0.021914353594183922,9.771939277648926,-0.005587344736351217,-0.0035521926614952163,-0.00617364953315652,-119.15610983124014,-49.387451762877454,0,1.6099777221679688,2019-08-07 13:16:09:884
0.0746898502111435,-0.0027563569601625204,9.86054515838623,-0.005320963088613342,-8.92376858697129e-05,-0.00617364953315652,-120.36429062127719,-51.998350386826814,0,1.6134319305419922,2019-08-07 13:16:09:888
0.07229509949684143,-0.017124855890870094,9.872518539428711,-0.006120106991529666,-0.007015147580229461,-0.0077719362986918665,-121.54737167087714,-54.55531222316276,0,1.6165847778320312,2019-08-07 13:16:09:891
0.0746898502111435,-0.02909860387444496,9.817439079284668,-0.002390770685131872,-0.0006219999979394207,-0.006972792915924193,-122.70758774081031,-57.06035335155988,0,1.6199829578399658,2019-08-07 13:16:09:894
0.060321349650621414,-0.06501984596252441,9.74080753326416,-0.0077183937570650145,-0.0024866678910639927,-0.007239174043513418,-123.84585636718164,-59.50999679214266,0,1.6234455108642578,2019-08-07 13:16:09:898
0.0746898502111435,-0.021914353594183922,9.78151798248291,-0.005587344736351217,-0.0038185737890844406,-0.00857107968145954,-124.95951059064271,-61.916236317524216,0,1.6266114711761475,2019-08-07 13:16:09:901
0.03876860439777374,0.011612141504883766,9.846176147460938,-0.008517537139832687,-0.0054168602945454634,-0.005907268405567294,-126.05478581587796,-57.077655041580726,0,1.6299736499786377,2019-08-07 13:16:09:904
0.05792659893631935,-0.021914353594183922,9.934782028198242,-0.005054581961024118,-0.0003556188378409054,-0.00617364953315652,-127.12693975587909,-59.53259431285184,0,1.6334264278411865,2019-08-07 13:16:09:908
-0.011521141044795513,-0.02909860387444496,9.764754295349121,-0.006919250374297341,-0.004084954916673665,-0.004575362767621172,-120.98505082350822,-61.93733829219806,0,1.6364877223968506,2019-08-07 13:16:09:911
0.11779534071683884,-0.038677603006362915,9.800676345825195,-0.006919250374297341,-0.003285811533905992,-0.005374506150388846,-122.15093317231394,-64.29271226595819,0,1.6399805545806885,2019-08-07 13:16:09:914
0.03397910296916962,-0.05544085055589676,9.786307334899902,-0.004788200833434893,-0.003019430146242442,-0.0027106946144222744,-123.30325237524453,-66.59928256553727,0,1.6440114974975586,2019-08-07 13:16:09:918
-0.06899513304233551,-0.053046099841594696,9.815044403076172,-0.009849443297927462,-0.005150479166956239,-0.006972792915924193,-117.24456541777926,-68.85980909705725,0,1.6463525295257568,2019-08-07 13:16:09:921
-0.016310639679431915,-0.021914353594183922,9.788702011108398,-0.007984774884654239,-0.00435133604426289,-0.008038317426281092,-111.30056119069089,-71.07817153122173,0,1.6505367755889893,2019-08-07 13:16:09:925
0.04355810210108757,-0.0267038531601429,9.771939277648926,-0.004521819705845669,-0.0024866678910639927,-0.00617364953315652,-112.66889467419512,-73.25248116834182,0,1.6544575691223145,2019-08-07 13:16:09:929
0.02200535498559475,-0.0003616072062868625,9.827017784118652,-0.0034562954555630953,-0.0046177169117777896,-0.004308981379957623,-114.01234495154596,-75.38693593226377,0,1.6567940711975098,2019-08-07 13:16:09:931
-0.0498371347784996,-0.053046099841594696,9.906044960021973,-0.008517537139832687,-0.005150479166956239,-0.006972792915924193,-108.1368489630256,-77.47138389311105,0,1.6603007316589355,2019-08-07 13:16:09:935
0.0076368567533791065,0.006822641938924789,9.788702011108398,-0.006386488119118891,0.00044352460994534954,-0.005374506150388846,-109.5733024774477,-72.3215381151221,0,1.663693904876709,2019-08-07 13:16:09:938
-0.030679138377308846,-0.0267038531601429,9.937176704406738,-0.0037226765831523197,-0.003285811533905992,-0.006972792915924193,-103.7849087784879,-74.47150066252505,0,1.6662166118621826,2019-08-07 13:16:09:941
0.010031606070697308,0.030770137906074524,9.757570266723633,-0.004788200833434893,-0.0064823853250510115,-0.00617364953315652,-105.306639413184,-69.38465523511996,0,1.6700439453125,2019-08-07 13:16:09:944
0.0028473574202507734,-0.02909860387444496,9.800676345825195,-0.0077183937570650145,-0.0056832419422833385,-0.006440030660745744,-106.7990585642924,-71.59204540023643,0,1.6735384464263916,2019-08-07 13:16:09:948
0.03397910296916962,0.018796389922499657,9.786307334899902,-0.006386488119118891,-0.0035521926614952163,-0.005907268405567294,-108.25858261388746,-66.56147761610518,0,1.6761257648468018,2019-08-07 13:16:09:951
0.053137101233005524,0.052322886884212494,9.812649726867676,-0.006120106991529666,-0.007281528707818685,-0.006972792915924193,-109.68560685047103,-61.635014411597886,0,1.6800363063812256,2019-08-07 13:16:09:954
0.04355810210108757,0.09303363412618637,9.812649726867676,-0.005587344736351217,-0.003285811533905992,-0.0037762191247791726,-111.08614265452293,-56.81204673161492,0,1.683642864227295,2019-08-07 13:16:09:958
0.03397910296916962,0.02119114063680172,9.870123863220215,-0.008517537139832687,-0.007547909835407911,-0.006440030660745744,-112.45939499349305,-52.077047479283436,0,1.6861908435821533,2019-08-07 13:16:09:961
0.024400103837251663,-0.0003616072062868625,9.719254493713379,-0.005054581961024118,-0.007015147580229461,-0.005374506150388846,-113.80582214002419,-54.634377238475075,0,1.6900196075439453,2019-08-07 13:16:09:964
0.012426355853676796,-0.0267038531601429,9.71207046508789,-0.006919250374297341,-0.006748766452640236,-0.004575362767621172,-115.12693193661887,-57.13719832370217,0,1.6934702396392822,2019-08-07 13:16:09:968
-0.04265288636088371,-0.024309104308485985,9.704886436462402,-0.006120106991529666,-0.0056832419422833385,-0.005374506150388846,-109.22860147164695,-59.59069230176994,0,1.6960651874542236,2019-08-07 13:16:09:970
0.00045260769547894597,-0.0722040981054306,9.805465698242188,-0.006652869246708115,-0.0056832419422833385,-0.005640887277978069,-110.6427559561874,-61.989011638226025,0,1.69989013671875,2019-08-07 13:16:09:974
0.04355810210108757,0.006822641938924789,9.776728630065918,-0.005320963088613342,-0.0054168602945454634,-0.006440030660745744,-112.02366147951932,-57.14891714083597,0,1.7036185264587402,2019-08-07 13:16:09:978
0.0076368567533791065,-0.009940605610609055,9.812649726867676,-0.006386488119118891,-0.00435133604426289,-0.0035098379971899483,-113.38166718341624,-59.603854401541,0,1.7061939239501953,2019-08-07 13:16:09:981
0.024400103837251663,0.009217391721904278,9.79349136352539,-0.006386488119118891,-0.003285811533905992,-0.0037762191247791726,-114.71047059513097,-54.8114792332773,0,1.7100327014923096,2019-08-07 13:16:09:984
-0.01870539039373398,0.030770137906074524,9.882097244262695,-0.0039890577107415445,-0.006216004197461787,-0.0077719362986918665,-108.81722353771916,-50.118043318387045,0,1.7134900093078613,2019-08-07 13:16:09:988
-0.0019421420292928815,-0.021914353594183922,9.874913215637207,-0.006652869246708115,-0.0046177169117777896,-0.005374506150388846,-103.04043581388177,-52.712176140106436,0,1.7160687446594238,2019-08-07 13:16:09:990
-0.006731641478836536,0.02837538905441761,9.896466255187988,-0.006386488119118891,-0.0035521926614952163,-0.009103842456786639,-97.37964545808457,-48.05984982578899,0,1.7198846340179443,2019-08-07 13:16:09:994
0.024400103837251663,0.04992813616991043,9.747991561889648,-0.0021243895575426474,-0.0038185737890844406,-0.006706411788334968,-99.02838573180175,-43.50407780502558,0,1.7236087322235107,2019-08-07 13:16:09:998
-0.016310639679431915,0.0020331426057964563,9.805465698242188,-0.0031899140678995457,-0.005150479166956239,-0.00617364953315652,-93.448977701624,-39.03377153941408,0,1.7261898517608643,2019-08-07 13:16:10:001
0.060321349650621414,-0.02909860387444496,9.762359619140625,-0.006652869246708115,-0.006748766452640236,-0.00617364953315652,-95.17146668597528,-41.84825014201982,0,1.7300188541412354,2019-08-07 13:16:10:004
-0.011521141044795513,-0.0003616072062868625,9.867729187011719,-0.009316680002451712,-0.0046177169117777896,-0.006706411788334968,-89.66847853966947,-44.60943390046246,0,1.7334773540496826,2019-08-07 13:16:10:008
-0.05462663620710373,-0.012335355393588543,9.695306777954102,-0.006652869246708115,-0.005150479166956239,-0.005907268405567294,-84.28081147334258,-47.314813456975045,0,1.736084222793579,2019-08-07 13:16:10:010
-0.006731641478836536,-0.03388810157775879,9.805465698242188,-0.006652869246708115,-0.0008883811255286454,-0.009370223064227214,-78.9957862509862,-49.963091426966535,0,1.7400071620941162,2019-08-07 13:16:10:014
-0.011521141044795513,0.03555963933467865,9.800676345825195,-0.007185631501886564,-0.00435133604426289,-0.008304698553870315,-73.81634003370374,-45.366538105803365,0,1.7435989379882812,2019-08-07 13:16:10:018
-0.016310639679431915,0.052322886884212494,9.812649726867676,-0.007452012629475789,-0.0038185737890844406,-0.006706411788334968,-68.74136547452133,-40.864239301569846,0,1.746175765991211,2019-08-07 13:16:10:021
-0.011521141044795513,0.006822641938924789,9.783912658691406,-0.005054581961024118,-0.0022202867634747683,-0.007505555171102641,-63.76740772423196,-36.44666125863994,0,1.7500245571136475,2019-08-07 13:16:10:024
-0.021100139245390892,-0.0027563569601625204,9.82222843170166,-0.009849443297927462,-0.007015147580229461,-0.006440030660745744,-58.89316014431361,-39.31549546999186,0,1.7534799575805664,2019-08-07 13:16:10:028
-0.028284389525651932,-0.0267038531601429,9.812649726867676,-0.0034562954555630953,-0.005150479166956239,-0.008304698553870315,-54.11785095942879,-42.125564476479774,0,1.7560698986053467,2019-08-07 13:16:10:030
-0.03307388722896576,-0.0027563569601625204,9.767149925231934,-0.004521819705845669,-0.006748766452640236,-0.008837460809048764,-49.43792627791403,-44.88175961729926,0,1.7598910331726074,2019-08-07 13:16:10:034
0.03876860439777374,-0.04346710070967674,9.867729187011719,-0.008783917747273263,-0.008347053218175584,-0.006706411788334968,-52.042919568209655,-47.57723923846002,0,1.7636165618896484,2019-08-07 13:16:10:038
0.0076368567533791065,0.014006891287863255,9.747991561889648,-0.00425543883833077,-0.0056832419422833385,-0.005907268405567294,-54.60034782909517,-43.026730318898665,0,1.7661724090576172,2019-08-07 13:16:10:041
0.005242106970399618,0.004427892155945301,9.791096687316895,-0.006120106991529666,-0.008080672090586358,-0.006972792915924193,-57.10597812722832,-38.565389114506615,0,1.7700276374816895,2019-08-07 13:16:10:044
-0.06420563161373138,-0.017124855890870094,9.855754852294922,-0.0029235329403103213,-0.009678958335973056,-0.005640887277978069,-52.369444741920816,-41.391522751256204,0,1.773484706878662,2019-08-07 13:16:10:048
0.00045260769547894597,-0.014730105176568031,9.755175590515137,-0.008783917747273263,-0.009412577728532483,-0.007505555171102641,-54.92063562194656,-44.16068623615541,0,1.776071310043335,2019-08-07 13:16:10:050
0.026794854551553726,-0.07938835024833679,9.7982816696167,-0.007984774884654239,-0.004884098039367014,-0.009103842456786639,-57.41804204694961,-46.86647618695122,0,1.7798898220062256,2019-08-07 13:16:10:054
-0.0498371347784996,-0.06023034825921059,9.795886039733887,-0.008517537139832687,-0.005949623069872562,-0.006440030660745744,-52.674268708142755,-49.52032247662552,0,1.7836086750030518,2019-08-07 13:16:10:058
-0.01870539039373398,-0.024309104308485985,9.807860374450684,-0.006120106991529666,-0.0046177169117777896,-0.008304698553870315,-48.02230135201722,-52.12619123533813,0,1.7861828804016113,2019-08-07 13:16:10:061
-0.07138988375663757,-0.0075458562932908535,9.870123863220215,-0.007452012629475789,-8.92376858697129e-05,-0.006706411788334968,-43.47012411625502,-54.6811723141096,0,1.7900521755218506,2019-08-07 13:16:10:064
-0.028284389525651932,0.004427892155945301,9.807860374450684,-0.007452012629475789,-0.0038185737890844406,-0.007505555171102641,-39.003283551418505,-49.98661677411176,0,1.7935161590576172,2019-08-07 13:16:10:068
-0.030679138377308846,-0.04825660213828087,9.76954460144043,-0.006386488119118891,-0.0054168602945454634,-0.006972792915924193,-34.62603594636438,-52.58030412325331,0,1.7960820198059082,2019-08-07 13:16:10:070
0.031584352254867554,0.018796389922499657,9.815044403076172,-0.010115823905368035,-0.005949623069872562,-0.0037762191247791726,-37.52853257136433,-47.92869043275909,0,1.7999589443206787,2019-08-07 13:16:10:074
-0.0953373834490776,-0.03388810157775879,9.843781471252441,-0.005320963088613342,-0.006216004197461787,-0.005640887277978069,-33.187782794404356,-50.56507858626089,0,1.8036177158355713,2019-08-07 13:16:10:078
0.017215855419635773,-0.017124855890870094,9.788702011108398,-0.005853725863940442,-0.006748766452640236,-0.006440030660745744,-36.121049027938525,-53.15093723764029,0,1.8061583042144775,2019-08-07 13:16:10:081
0.010031606070697308,0.025980640202760696,9.803071022033691,-0.006386488119118891,-0.0046177169117777896,-0.004841743895210396,-38.99645186184125,-48.48956749614513,0,1.8100287914276123,2019-08-07 13:16:10:084
-0.011521141044795513,0.025980640202760696,9.788702011108398,-0.008517537139832687,-0.004084954916673665,-0.006972792915924193,-34.61708100709986,-43.9211692100126,0,1.8134753704071045,2019-08-07 13:16:10:088
-0.05462663620710373,-0.07938835024833679,9.834202766418457,-0.010648586160546484,-0.006748766452640236,-0.006440030660745744,-30.33011133388336,-46.631928175889755,0,1.816096544265747,2019-08-07 13:16:10:091
-0.0498371347784996,-0.03388810157775879,9.771939277648926,-0.006120106991529666,-0.005949623069872562,-0.005374506150388846,-26.128043831400245,-49.29396876412314,0,1.8200161457061768,2019-08-07 13:16:10:094
0.00045260769547894597,0.011612141504883766,9.800676345825195,-0.006919250374297341,-0.007015147580229461,-0.006706411788334968,-29.20401241852045,-44.70804886652477,0,1.8236150741577148,2019-08-07 13:16:10:098
-0.03546863794326782,0.004427892155945301,9.815044403076172,-0.007984774884654239,-0.0056832419422833385,-0.005374506150388846,-25.0232617285053,-40.21326483004201,0,1.826157808303833,2019-08-07 13:16:10:101
-0.009126391261816025,0.06669138371944427,9.853360176086426,-0.006386488119118891,-0.006216004197461787,-0.00963660471196509,-20.92250629164995,-35.81536677615147,0,1.8300302028656006,2019-08-07 13:16:10:104
-0.01870539039373398,-0.005151106510311365,9.795886039733887,-0.010648586160546484,-0.0038185737890844406,-0.006972792915924193,-16.905503476473665,-38.69639096904363,0,1.8334853649139404,2019-08-07 13:16:10:108
-0.037863388657569885,0.014006891287863255,9.829413414001465,-0.005853725863940442,-0.0054168602945454634,-0.007239174043513418,-12.9709782109412,-34.32319989544168,0,1.836211919784546,2019-08-07 13:16:10:111
-0.04265288636088371,-0.0075458562932908535,9.848570823669434,-0.0077183937570650145,-0.0054168602945454634,-0.00857107968145954,-9.115351520269163,-37.234190929150586,0,1.8400583267211914,2019-08-07 13:16:10:114
-0.037863388657569885,-0.031493354588747025,9.800676345825195,-0.007185631501886564,-0.005150479166956239,-0.00617364953315652,-5.336462928850543,-40.08441770981273,0,1.843545913696289,2019-08-07 13:16:10:118
-0.006731641478836536,-0.0027563569601625204,9.836597442626953,-0.007185631501886564,-0.0038185737890844406,-0.005907268405567294,-1.6299647050950048,-42.88136732441072,0,1.846125841140747,2019-08-07 13:16:10:121
-0.06660038232803345,-0.005151106510311365,9.762359619140625,-0.005853725863940442,-0.0064823853250510115,-0.006972792915924193,1.9962342208805766,-45.621855638277914,0,1.8500192165374756,2019-08-07 13:16:10:124
-0.08336362987756729,-0.009940605610609055,9.939571380615234,-0.005587344736351217,-0.007814290962997135,-0.0077719362986918665,5.548214001177547,-48.30718918094495,0,1.8534722328186035,2019-08-07 13:16:10:128
-0.05462663620710373,-0.08657259494066238,9.757570266723633,-0.008517537139832687,-0.006216004197461787,-0.005640887277978069,9.0320116666673,-50.92926569008318,0,1.8568449020385742,2019-08-07 13:16:10:131
-0.07138988375663757,-0.021914353594183922,9.867729187011719,-0.0077183937570650145,-0.0038185737890844406,-0.009370223064227214,12.443760933139016,-53.506761677592195,0,1.8600149154663086,2019-08-07 13:16:10:134
-0.02588963881134987,-0.019519604742527008,9.707281112670898,-0.006386488119118891,-0.0064823853250510115,-0.009103842456786639,15.793088629676316,-56.033081739933635,0,1.8634741306304932,2019-08-07 13:16:10:138
-0.0498371347784996,-0.017124855890870094,9.771939277648926,-0.007984774884654239,-0.004084954916673665,-0.00617364953315652,19.0719763259856,-58.50925161553265,0,1.8660621643066406,2019-08-07 13:16:10:140
-0.045047637075185776,-0.014730105176568031,9.874913215637207,-0.005853725863940442,-0.006748766452640236,-0.009370223064227214,22.286756092785733,-60.936102401361886,0,1.869879961013794,2019-08-07 13:16:10:144
-0.04265288636088371,0.009217391721904278,9.827017784118652,-0.005853725863940442,-0.0046177169117777896,-0.010702129222321988,25.437010741406787,-56.117233865076905,0,1.8735957145690918,2019-08-07 13:16:10:148
-0.06181088462471962,-0.019519604742527008,9.771939277648926,-0.004788200833434893,-0.0054168602945454634,-0.005907268405567294,28.5218101306402,-58.59190381870865,0,1.8761858940124512,2019-08-07 13:16:10:151
-0.07857413589954376,0.018796389922499657,9.815044403076172,-0.010914967808284359,-0.008080672090586358,-0.009370223064227214,31.5439419591004,-53.8199079872886,0,1.8800239562988281,2019-08-07 13:16:10:154
-0.06899513304233551,-0.014730105176568031,9.764754295349121,-0.008251156012243464,-0.004084954916673665,-0.007239174043513418,34.50575733674116,-56.340183861540694,0,1.8834717273712158,2019-08-07 13:16:10:158
-0.045047637075185776,-0.038677603006362915,9.795886039733887,-0.005054581961024118,-0.0024866678910639927,-0.004575362767621172,37.41075877837015,-58.80807073041775,0,1.886237621307373,2019-08-07 13:16:10:161
-0.013915890827775002,-0.019519604742527008,9.78151798248291,-0.01038220555310591,-0.008347053218175584,-0.008038317426281092,40.262697884513535,-61.227402931590696,0,1.890045166015625,2019-08-07 13:16:10:164
-0.03546863794326782,-0.02909860387444496,9.714465141296387,-0.006386488119118891,-0.0064823853250510115,-0.008304698553870315,43.054532107762675,-63.59816920492249,0,1.8935399055480957,2019-08-07 13:16:10:168
-0.04025813564658165,-0.04346710070967674,9.872518539428711,-0.006652869246708115,-0.0054168602945454634,-0.008304698553870315,45.789556352791905,-65.92019316925442,0,1.8961296081542969,2019-08-07 13:16:10:171
-0.08336362987756729,-0.012335355393588543,9.870123863220215,-0.004788200833434893,-0.007015147580229461,-0.010435747574584113,48.46562208889209,-68.19930939293423,0,1.900026798248291,2019-08-07 13:16:10:174
-0.02588963881134987,-0.012335355393588543,9.819833755493164,-0.0031899140678995457,-0.007015147580229461,-0.007505555171102641,51.0946495696397,-70.43326483600741,0,1.90348219871521,2019-08-07 13:16:10:178
-0.07378463447093964,-0.0075458562932908535,9.733622550964355,-0.011181348415724934,-0.0056832419422833385,-0.010968509829762562,53.66489666840976,-72.62208528817453,0,1.9060719013214111,2019-08-07 13:16:10:180
0.014821105636656284,-0.02909860387444496,9.728833198547363,-0.005853725863940442,-0.0038185737890844406,-0.009902985319405663,48.99416333486177,-74.76496087252646,0,1.909891128540039,2019-08-07 13:16:10:184
-0.057021383196115494,-0.005151106510311365,9.774333953857422,-0.007452012629475789,-0.005150479166956239,-0.008837460809048764,51.60866908698882,-76.86750387077186,0,1.913604736328125,2019-08-07 13:16:10:188
