ACCELEROMETER X (m/s²),ACCELEROMETER Y (m/s²),ACCELEROMETER Z (m/s²),GYROSCOPE X (rad/s),GYROSCOPE Y (rad/s),GYROSCOPE Z (rad/s),Time since start in ms ,YYYY-MO-DD HH-MI-SS_SSS,Pitch (Deg),Roll (Deg),Heading (Deg),MagX,MagY,MagZ
-0.1292661875486374,-0.15536896884441376,9.790069580078125,0.001974417047728495,-0.004010634517057691,0.029287009292412958,0.0,2019-07-25 12:03:34:665,3.5848704310986688,-3.581815780011482,0,-35.53553009033203,24.14017105102539,-30.13772964477539
0.1006297767162323,-0.13860571384429932,9.797253608703613,0.002507179432944107,0.011439472183488963,0.027422340879139737,0.010037660598754883,2019-07-25 12:03:34:675,-0.0815048752206935,-7.0953818936322595,0,-35.53553009033203,24.14017105102539,-30.13772964477539
0.1341562718153,0.014658262953162193,9.84993839263916,0.001974417047728495,0.006910992494323493,0.02262747954223639,0.020009994506835938,2019-07-25 12:03:34:685,-3.6681381364665175,-3.3562851230927224,0,-35.53553009033203,24.14017105102539,-30.13772964477539
0.15091952681541443,0.057763759046792984,9.802042961120605,-0.0006893944232194946,0.003448037575589248,0.02609043368074766,0.030032873153686523,2019-07-25 12:03:34:695,-7.179073898856412,0.30447571921932726,0,-35.53553009033203,24.14017105102539,-30.13772964477539
5.028974192100577e-05,-0.16015847027301788,9.936149597167969,-0.003353205894167484,-0.002412347751522343,0.017299856990451903,0.03999686241149902,2019-07-25 12:03:34:705,-10.634136968850488,-3.2812686089498513,0,-35.53553009033203,24.14017105102539,-30.13772964477539
-0.37353065609931946,-0.4283704161643982,10.053492546081543,-0.011344639721844222,-0.010403782359422057,0.01250499669384586,0.05002713203430176,2019-07-25 12:03:34:715,-6.858150974196086,-6.760457023121637,0,-35.53553009033203,24.14017105102539,-30.13772964477539
-0.24181942641735077,-0.3086329400539398,10.022360801696777,-0.013475689782855318,-0.0029451100067007917,0.021029193816998346,0.06001615524291992,2019-07-25 12:03:34:725,-3.146979371718222,-10.182412931602688,0,-35.53553009033203,24.14017105102539,-30.13772964477539
-0.09095019847154617,0.07692175358533859,9.933754920959473,-0.0006893944232194946,0.004247180958356922,0.023959384660033865,0.06999325752258301,2019-07-25 12:03:34:735,0.5030895562460098,-6.387251653295785,0,-35.53553009033203,24.14017105102539,-30.13772964477539
-0.08616069704294205,0.13200099766254425,9.84993839263916,0.012363281153745416,-0.0018795853663067313,0.02236109893479582,0.08000349998474121,2019-07-25 12:03:34:745,4.084060780422512,-2.6818114212332764,0,-35.53553009033203,24.14017105102539,-30.13772964477539
0.019208287820219994,0.15834324061870575,9.55298900604248,-0.0025540625113998103,0.007710135877091167,0.03221720013544848,0.09000039100646973,2019-07-25 12:03:34:755,0.4003557804662634,0.954266358584408,0,-35.53553009033203,24.14017105102539,-30.13772964477539
-0.1484241932630539,-0.16494795680046082,9.84993839263916,0.01369518731184019,0.001050607232230483,0.006378230239145044,0.10001230239868164,2019-07-25 12:03:34:765,3.9744920791745444,-2.6533301449346833,0,-35.53553009033203,24.14017105102539,-30.13772964477539
-0.8285331130027771,-0.6846086382865906,10.225914001464844,-0.043310377113145775,-0.0018795853663067313,0.029020626604377785,0.10999846458435059,2019-07-25 12:03:34:775,7.403413139261458,-6.0993755648354915,0,-35.53553009033203,24.14017105102539,-30.13772964477539
0.12457727640867233,-0.20086920261383057,10.506099700927734,-0.03904827907171818,-0.016796929421563446,0.03754482476782757,0.12000346183776855,2019-07-25 12:03:34:785,3.6783682307602907,-9.53354511386342,0,-36.735042572021484,23.240537643432617,-28.938217163085938
-0.7183746099472046,-0.033236730843782425,10.005597114562988,-0.017471406176545037,-0.022124551973347936,0.04100777890633884,0.13000726699829102,2019-07-25 12:03:34:795,7.135095815765158,-12.929253803613559,0,-36.735042572021484,23.240537643432617,-28.938217163085938
0.3377099931240082,-0.1912902146577835,9.921780586242676,-0.01640588166618814,0.009308423162775165,0.02609043368074766,0.1399984359741211,2019-07-25 12:03:34:805,3.426160596299867,-16.239374664648395,0,-36.735042572021484,23.240537643432617,-28.938217163085938
-0.04784470424056053,-0.2966592013835907,9.694279670715332,0.01209690054630484,0.014636045714559657,0.010640328280572637,0.150010347366333,2019-07-25 12:03:34:815,6.943754022251574,-19.4863318944456,0,-36.735042572021484,23.240537643432617,-28.938217163085938
0.3544732332229614,-0.03802622854709625,9.943333625793457,-0.013475689782855318,-0.006408064925435037,0.0383439686707439,0.15999269485473633,2019-07-25 12:03:34:825,3.249304546544455,-22.684669735542375,0,-36.735042572021484,23.240537643432617,-28.938217163085938
-0.41184666752815247,-0.11465822160243988,9.787674903869629,0.03926777764100035,-0.00480977815989969,0.0026488941928215744,0.17000508308410645,2019-07-25 12:03:34:835,6.7388329730798375,-25.839629185930004,0,-36.735042572021484,23.240537643432617,-28.938217163085938
-0.7183746099472046,-0.4068176746368408,10.063071250915527,-0.05529752733451222,-0.007473589435791935,0.04100777890633884,0.17999768257141113,2019-07-25 12:03:34:845,10.126584435689269,-28.845509616781033,0,-36.735042572021484,23.240537643432617,-28.938217163085938
0.05034003406763077,-0.21523770689964294,10.22830867767334,-0.011611021369582097,-0.0010804419185204762,0.024492147955509615,0.19001197814941406,2019-07-25 12:03:34:855,6.330300017242746,-31.837960206570834,0,-36.735042572021484,23.240537643432617,-28.938217163085938
-0.49087339639663696,0.14397475123405457,9.593700408935547,0.01715814249064876,-0.0002812985032435118,0.02635681636878284,0.2000138759613037,2019-07-25 12:03:34:865,9.745270910906001,-27.628032818467386,0,-36.735042572021484,23.240537643432617,-28.938217163085938
0.28023600578308105,0.19186973571777344,9.897833824157715,-0.01827055007946136,-0.008006351690970383,0.04287244523901746,0.20999383926391602,2019-07-25 12:03:34:875,5.98728752582684,-23.487444646676362,0,-36.735042572021484,23.240537643432617,-28.938217163085938
-0.15321369469165802,-0.11705297231674194,9.751753807067871,0.008101183112317823,0.0023825130652323496,0.02342662344515272,0.22000598907470703,2019-07-25 12:03:34:885,9.448199916263182,-26.608496005538047,0,-36.735042572021484,23.240537643432617,-28.938217163085938
0.2514989972114563,-0.05718422681093216,9.713438034057617,-0.003619587021756709,0.009574803770215738,0.02582405307330709,0.23000121116638184,2019-07-25 12:03:34:895,5.683525508253084,-29.66754859256942,0,-36.735042572021484,23.240537643432617,-28.938217163085938
0.014418788254261017,-0.09550022333860397,9.921780586242676,-0.00015663211927710938,-0.0008140607909312516,0.03488101245163803,0.24000906944274902,2019-07-25 12:03:34:905,1.9719777474222129,-32.663080149608234,0,-36.735042572021484,23.240537643432617,-28.938217163085938
0.06470853090286255,0.04100050777196884,9.84993839263916,-0.03904827907171818,-0.002412347751522343,0.06231826911347681,0.2500002384185791,2019-07-25 12:03:34:915,-1.6585805639411586,-28.39268221585604,0,-36.735042572021484,23.240537643432617,-28.938217163085938
1.3937946557998657,0.4026077091693878,9.555383682250977,0.0576480749245082,0.02316024283771214,0.01596795083235713,0.26000499725341797,2019-07-25 12:03:34:925,-5.0724413178372405,-24.305466898230193,0,-36.735042572021484,23.240537643432617,-28.938217163085938
-0.45255741477012634,-0.14818471670150757,9.114749908447266,0.02648148143612297,0.02529129185842594,0.013570521204202757,0.26999878883361816,2019-07-25 12:03:34:935,-1.4420339925031183,-27.41558935300331,0,-36.735042572021484,23.240537643432617,-28.938217163085938
0.18205127120018005,-0.28708019852638245,10.355230331420898,-0.023331792023805278,-0.00773997056338116,0.04154054012121999,0.2800145149230957,2019-07-25 12:03:34:945,-4.9886966746777635,-30.42239587354626,0,-36.735042572021484,23.240537643432617,-28.938217163085938
0.18205127120018005,-0.5983976721763611,9.89064884185791,0.039001394952965174,0.0002514638006988733,-1.491734416091191e-05,0.28998351097106934,2019-07-25 12:03:34:955,-8.467973697027691,-33.36653424848626,0,-36.735042572021484,23.240537643432617,-28.938217163085938
-0.6896376013755798,-0.2559484541416168,9.373383522033691,0.0027735605605333316,0.011439472183488963,0.038876729885625044,0.3000061511993408,2019-07-25 12:03:34:965,-4.789210007299093,-36.26948198342943,0,-36.735042572021484,23.240537643432617,-28.938217163085938
0.5628164410591125,0.17031699419021606,10.350440979003906,-0.03398703712737426,-0.0002812985032435118,0.05938807618984669,0.309999942779541,2019-07-25 12:03:34:975,-8.2310188584247,-31.94387491005804,0,-36.735042572021484,23.240537643432617,-28.938217163085938
-0.6130056381225586,0.5127661824226379,9.533831596374512,0.07363094466045628,0.021029193816998346,0.0319508195280079,0.32001256942749023,2019-07-25 12:03:34:985,-4.551799969517612,-27.80796571966859,0,-36.735042572021484,23.240537643432617,-28.938217163085938
0.04315578565001488,0.007474013604223728,9.787674903869629,-0.030524082988862992,0.0023825130652323496,0.06391655691930945,0.32999539375305176,2019-07-25 12:03:34:995,-8.05704691554414,-23.635571649955008,0,-36.735042572021484,23.240537643432617,-28.938217163085938
0.10781402885913849,-0.03563148155808449,9.790069580078125,0.011297756643388519,0.00797651700468039,0.05645788326621656,0.34000396728515625,2019-07-25 12:03:35:005,-11.487769631377638,-26.765038728077755,0,-36.735042572021484,23.240537643432617,-28.938217163085938
-0.2801354229450226,-0.01647348329424858,9.699069023132324,0.0030399416881225563,0.011439472183488963,0.058588932286930365,0.3500044345855713,2019-07-25 12:03:35:015,-7.697525738881479,-29.829498666182225,0,-36.735042572021484,23.240537643432617,-28.938217163085938
-0.07418695092201233,-0.1266319751739502,10.031939506530762,-0.015073976548390666,0.009574803770215738,0.06844503764877223,0.3600008487701416,2019-07-25 12:03:35:025,-3.9574235135060474,-32.809983723021645,0,-36.735042572021484,23.240537643432617,-28.938217163085938
0.06949803233146667,-0.12423721700906754,9.9984130859375,-0.005217873787292057,0.006644611366734268,0.06231826911347681,0.3700120449066162,2019-07-25 12:03:35:035,-7.47404513708821,-35.73661287603805,0,-35.985347747802734,23.690353393554688,-30.287668228149414
-0.031081456691026688,0.021842511370778084,9.77091121673584,0.011297756643388519,0.005046324601198921,0.06924418155168854,0.3799929618835449,2019-07-25 12:03:35:045,-3.7310374988190746,-31.430773835587306,0,-35.985347747802734,23.690353393554688,-30.287668228149414
-0.06700269877910614,0.0026845145039260387,9.773306846618652,0.0041054661984794545,0.018099000893368224,0.0665803671549044,0.3900032043457031,2019-07-25 12:03:35:055,-0.07444563374695168,-27.20478069170964,0,-35.985347747802734,23.690353393554688,-30.287668228149414
-0.014318208210170269,-0.12184246629476547,10.017570495605469,0.0017080359201392707,0.01250499669384586,0.06897779886365338,0.39999961853027344,2019-07-25 12:03:35:065,3.5183863912243045,-30.247706851985182,0,-35.985347747802734,23.690353393554688,-30.287668228149414
0.09105078130960464,-0.2751064598560333,9.955307006835938,0.0003761301846652757,0.0005178449445427432,0.07510456323775959,0.4100170135498047,2019-07-25 12:03:35:075,-0.14179241240255402,-33.21130593108812,0,-35.985347747802734,23.690353393554688,-30.287668228149414
-0.01192345842719078,-0.07634222507476807,9.670331954956055,0.007302039729550149,0.005845467983966595,0.07750199910769776,0.4199965000152588,2019-07-25 12:03:35:085,3.456355040531516,-36.14212526936087,0,-35.985347747802734,23.690353393554688,-30.287668228149414
0.12218252569437027,0.021842511370778084,9.794858932495117,0.004371847326068679,0.006910992494323493,0.08149771446109018,0.43000245094299316,2019-07-25 12:03:35:095,-0.20236130243709516,-31.824294395840667,0,-35.985347747802734,23.690353393554688,-30.287668228149414
-0.22505618631839752,-0.15057946741580963,9.787674903869629,0.0009088924723530155,0.011705852790929535,0.07776837347335452,0.4400036334991455,2019-07-25 12:03:35:105,3.3687679736302925,-34.77069084737604,0,-35.985347747802734,23.690353393554688,-30.287668228149414
0.02399778738617897,-0.20086920261383057,10.041518211364746,-0.012143783624760545,0.002116131807605963,0.08709171762031524,0.45000267028808594,2019-07-25 12:03:35:115,-0.2970569079360055,-37.645539282093814,0,-35.985347747802734,23.690353393554688,-30.287668228149414
-0.11968719214200974,-0.20086920261383057,9.835570335388184,0.005437371836425577,0.0002514638006988733,0.08975552785591019,0.4600098133087158,2019-07-25 12:03:35:125,3.29479919128603,-40.47228428169357,0,-35.985347747802734,23.690353393554688,-30.287668228149414
0.10541927814483643,0.05297425761818886,9.56975269317627,0.005170990708836353,0.02609043368074766,0.0876244829963856,0.4700005054473877,2019-07-25 12:03:35:135,-0.37311013801733006,-36.072082655484905,0,-35.985347747802734,23.690353393554688,-30.287668228149414
-0.7950066328048706,-0.04999997839331627,9.926569938659668,-0.0025540625113998103,0.0071773736219127166,0.09561591370317042,0.4800078868865967,2019-07-25 12:03:35:145,3.1387395204191306,-38.9434339309838,0,-35.985347747802734,23.690353393554688,-30.287668228149414
-0.21547718346118927,-0.706161379814148,10.79586410522461,-0.0566294324523097,-0.01599778551864712,0.10813582513941804,0.4900016784667969,2019-07-25 12:03:35:155,6.66207332635331,-41.65793951536185,0,-35.985347747802734,23.690353393554688,-30.287668228149414
-0.581873893737793,-0.6319241523742676,10.077439308166504,0.004638228453657903,0.002116131807605963,0.08789085736204237,0.5000152587890625,2019-07-25 12:03:35:165,10.061549968892662,-44.35562586258488,0,-35.985347747802734,23.690353393554688,-30.287668228149414
-0.24900367856025696,-0.29905393719673157,9.854727745056152,-0.019336074589818262,0.005845467983966595,0.10041077712066837,0.5099813938140869,2019-07-25 12:03:35:175,13.428099675932774,-47.02292937216719,0,-35.985347747802734,23.690353393554688,-30.287668228149414
-0.2801354229450226,0.1415800005197525,10.03912353515625,0.005970134091604027,0.005845467983966595,0.09907887200287091,0.5200061798095703,2019-07-25 12:03:35:185,16.724279567102116,-42.50199089126432,0,-35.985347747802734,23.690353393554688,-30.287668228149414
-0.2585826814174652,-0.172132208943367,10.084624290466309,-0.0049514926597028315,0.009574803770215738,0.09907887200287091,0.5299999713897705,2019-07-25 12:03:35:195,19.95504476798279,-45.22961506398333,0,-35.985347747802734,23.690353393554688,-30.287668228149414
0.09105078130960464,0.04579000920057297,9.687095642089844,0.012629662801483291,-0.0032114911342900165,0.1001443944326332,0.540013313293457,2019-07-25 12:03:35:205,15.968519879177663,-40.73754035979067,0,-35.985347747802734,23.690353393554688,-30.287668228149414
-0.007133959326893091,0.33555471897125244,9.51227855682373,0.009965851525591046,0.015168807969738105,0.09961162905656286,0.5499966144561768,2019-07-25 12:03:35:215,19.239787032938555,-36.36878253317803,0,-35.985347747802734,23.690353393554688,-30.287668228149414
-0.0957396999001503,0.36189696192741394,9.761332511901855,0.02754700594647987,0.013304139556464882,0.09641505344489756,0.5600006580352783,2019-07-25 12:03:35:225,22.43627917099213,-32.099345593325694,0,-35.985347747802734,23.690353393554688,-30.287668228149414
-0.014318208210170269,0.19186973571777344,9.651174545288086,0.01209690054630484,0.007710135877091167,0.09188658103781319,0.5700075626373291,2019-07-25 12:03:35:235,25.581521321058904,-27.886934086607162,0,-35.985347747802734,23.690353393554688,-30.287668228149414
-0.1292661875486374,-0.4283704161643982,9.414093971252441,0.0754956151543241,-0.004543397032310465,0.024492147955509615,0.5800004005432129,2019-07-25 12:03:35:245,28.656706446808606,-30.919448966076224,0,-35.985347747802734,23.690353393554688,-30.287668228149414
-2.399488925933838,-0.9480311274528503,10.304941177368164,-0.15572321815728504,-0.054623052660125244,0.13370841338798362,0.5900235176086426,2019-07-25 12:03:35:255,31.452160614939807,-33.70829376793704,0,-35.985347747802734,23.690353393554688,-30.287668228149414
1.015424132347107,-0.2631326913833618,11.169445037841797,-0.027593890065232874,0.0005178449445427432,0.10094353417436032,0.599992036819458,2019-07-25 12:03:35:265,27.326718165851517,-36.591691951927565,0,-35.985347747802734,23.690353393554688,-30.287668228149414
-1.5421684980392456,0.4744502007961273,8.906407356262207,0.09600695729735655,0.035413775747113775,0.049531974989194025,0.6100037097930908,2019-07-25 12:03:35:275,30.16380548191222,-32.37481485093022,0,-35.985347747802734,23.690353393554688,-30.287668228149414
0.5436584949493408,0.24215948581695557,9.888254165649414,-0.070214874640698,-0.023456457091145407,0.12225402438149828,0.6200072765350342,2019-07-25 12:03:35:285,26.036644174989846,-28.115936352738487,0,-38.38437271118164,22.490842819213867,-28.788278579711914
0.007234538905322552,0.13200099766254425,9.773306846618652,0.04459539811219024,0.017033475342714027,0.0655148447251421,0.6300106048583984,2019-07-25 12:03:35:295,21.907192081063258,-23.99414232858403,0,-38.38437271118164,22.490842819213867,-28.788278579711914
-0.39987289905548096,0.18468549847602844,9.643989562988281,-0.0094799723488683,0.016767094735273453,0.09028829323198054,0.639991283416748,2019-07-25 12:03:35:305,25.01216533738822,-19.93088874489748,0,-38.38437271118164,22.490842819213867,-28.788278579711914
0.07907702773809433,-0.033236730843782425,10.166045188903809,0.008367564239907048,0.0026488941928215744,0.06631398862805843,0.6500029563903809,2019-07-25 12:03:35:315,20.91934631881403,-23.13322840272936,0,-38.38437271118164,22.490842819213867,-28.788278579711914
-0.3567674160003662,-0.24157994985580444,9.773306846618652,0.004638228453657903,0.00557908685637737,0.06471570082222579,0.6599993705749512,2019-07-25 12:03:35:325,24.05601562170154,-26.24484789201423,0,-38.38437271118164,22.490842819213867,-28.788278579711914
-0.031081456691026688,-0.30623820424079895,9.914596557617188,-0.007881685063184303,0.009308423162775165,0.0644493181341906,0.6700003147125244,2019-07-25 12:03:35:335,27.16607580812107,-29.280141615185407,0,-38.38437271118164,22.490842819213867,-28.788278579711914
-0.1484241932630539,-0.10268447548151016,9.938544273376465,0.00969946987785317,0.009308423162775165,0.06178550789859565,0.6799907684326172,2019-07-25 12:03:35:345,30.200420555713535,-32.28814070929147,0,-38.38437271118164,22.490842819213867,-28.788278579711914
-0.2657669186592102,-0.2056587040424347,9.943333625793457,0.0003761301846652757,0.00797651700468039,0.07057608250829682,0.6900043487548828,2019-07-25 12:03:35:355,33.161306344730434,-35.21889170050617,0,-38.38437271118164,22.490842819213867,-28.788278579711914
-0.36874115467071533,-0.37089642882347107,10.11815071105957,-0.012676545879938996,-0.009338257849065158,0.06817865496073705,0.6999735832214355,2019-07-25 12:03:35:365,36.06156476655415,-38.06543139641428,0,-38.38437271118164,22.490842819213867,-28.788278579711914
-0.31366193294525146,-0.2894749343395233,9.857122421264648,-0.0006893944232194946,0.008775660907596714,0.06258465180151199,0.7099566459655762,2019-07-25 12:03:35:375,38.89896259667651,-40.870093800767,0,-38.38437271118164,22.490842819213867,-28.788278579711914
-0.34000417590141296,-0.16494795680046082,9.936149597167969,-0.011078259114403648,0.013836901811643333,0.07164161326043753,0.7199926376342773,2019-07-25 12:03:35:385,41.67398929530725,-43.62742774935995,0,-38.38437271118164,22.490842819213867,-28.788278579711914
0.055129531770944595,0.04100050777196884,10.015175819396973,-0.00015663211927710938,-0.0032114911342900165,0.07164161326043753,0.7299900054931641,2019-07-25 12:03:35:395,37.2486200253346,-39.15948243543009,0,-38.38437271118164,22.490842819213867,-28.788278579711914
-0.2513984143733978,-0.002104985062032938,9.840359687805176,0.016891760842910886,0.003980799830767698,0.05885531497496554,0.7399923801422119,2019-07-25 12:03:35:405,40.072142755985624,-41.98553461300548,0,-38.38437271118164,22.490842819213867,-28.788278579711914
-0.05263420194387436,-0.011683983728289604,9.643989562988281,-0.001222156743416525,0.0026488941928215744,0.05912169766300072,0.750007152557373,2019-07-25 12:03:35:415,42.86295632800652,-44.74374835709482,0,-38.38437271118164,22.490842819213867,-28.788278579711914
0.20120926201343536,0.1152377501130104,9.694279670715332,0.01902280986362468,0.02342662344515272,0.06151912521056048,0.7600092887878418,2019-07-25 12:03:35:425,38.416320968359315,-40.27317802904664,0,-38.38437271118164,22.490842819213867,-28.788278579711914
0.49815821647644043,0.4361342191696167,9.359014511108398,0.03607120202933505,0.0476673086565154,0.05805617107204922,0.7699904441833496,2019-07-25 12:03:35:435,34.08221673065922,-35.94129180101646,0,-38.38437271118164,22.490842819213867,-28.788278579711914
0.5580269694328308,0.36189696192741394,9.667937278747559,0.04326349299439277,0.010107566025394189,0.052462167912824154,0.7799813747406006,2019-07-25 12:03:35:445,29.860970347402283,-31.68961101813898,0,-38.38437271118164,22.490842819213867,-28.788278579711914
0.48378974199295044,0.024237262085080147,9.227303504943848,0.025682339613801248,0.03115167562509158,0.04553625963580161,0.789984941482544,2019-07-25 12:03:35:455,25.706278746307085,-27.473254497609645,0,-38.38437271118164,22.490842819213867,-28.788278579711914
0.29460451006889343,-0.23439571261405945,9.739779472351074,0.020354714981422155,0.01889814479628455,0.045802638162647576,0.7999858856201172,2019-07-25 12:03:35:465,21.616191466309004,-30.507647563131837,0,-38.38437271118164,22.490842819213867,-28.788278579711914
0.20360401272773743,-0.21044820547103882,9.751753807067871,0.011564138291126394,0.020496430521522595,0.049798357677229205,0.8099939823150635,2019-07-25 12:03:35:475,17.596271361408217,-33.47926746701633,0,-38.38437271118164,22.490842819213867,-28.788278579711914
-0.09334494918584824,-0.41879144310951233,10.125334739685059,0.0057037529640148014,-0.008272732818559609,0.03701206355294642,0.8199808597564697,2019-07-25 12:03:35:485,20.83842112816003,-36.36551163499002,0,-38.38437271118164,22.490842819213867,-28.788278579711914
0.01681353710591793,-0.3948439359664917,9.756543159484863,-0.0020213001261841987,0.013570521204202757,0.03994225231538734,0.8299868106842041,2019-07-25 12:03:35:495,16.816003106417156,-39.190716253577214,0,-38.38437271118164,22.490842819213867,-28.788278579711914
-0.057423703372478485,-0.23679044842720032,9.955307006835938,0.0057037529640148014,0.00797651700468039,0.03461463184419745,0.8399860858917236,2019-07-25 12:03:35:505,20.068594825843093,-41.98285348224784,0,-38.38437271118164,22.490842819213867,-28.788278579711914
-0.031081456691026688,-0.17692171037197113,9.806833267211914,0.0017080359201392707,0.013037758949024307,0.038876729885625044,0.8499832153320312,2019-07-25 12:03:35:515,23.256272531621782,-44.7234843699477,0,-38.38437271118164,22.490842819213867,-28.788278579711914
-0.22745093703269958,-0.13860571384429932,9.895438194274902,0.0038390850708902298,0.006111849111555819,0.034348249156162275,0.859980583190918,2019-07-25 12:03:35:525,26.361381459833847,-47.41511993009012,0,-38.38437271118164,22.490842819213867,-28.788278579711914
-0.09813445061445236,-0.20326395332813263,9.883464813232422,-0.006549779425238179,-0.0018795853663067313,0.033549107333840554,0.869985818862915,2019-07-25 12:03:35:535,29.423832168604036,-50.03957426409589,0,-36.43516540527344,22.340904235839844,-27.13895034790039
-0.23702992498874664,-0.02365773171186447,9.744569778442383,-0.0014885378710057496,0.008509279259858839,0.03061891441021043,0.8799788951873779,2019-07-25 12:03:35:545,32.402712775252645,-52.63516551296132,0,-36.43516540527344,22.340904235839844,-27.13895034790039
-0.028686705976724625,-0.20086920261383057,9.955307006835938,-0.0094799723488683,0.004513562346020471,0.02822148478205606,0.889986515045166,2019-07-25 12:03:35:555,35.34882022658446,-55.15401704111105,0,-36.43516540527344,22.340904235839844,-27.13895034790039
-0.21547718346118927,0.031421512365341187,9.869096755981445,0.007834801984728598,-0.0008140607909312516,0.029020626604377785,0.8999900817871094,2019-07-25 12:03:35:565,38.2172856754153,-50.45898588651925,0,-36.43516540527344,22.340904235839844,-27.13895034790039
-0.12447669357061386,-0.20326395332813263,9.897833824157715,-0.012942926487379568,-0.004277015644646915,0.022094718327355243,0.909982442855835,2019-07-25 12:03:35:575,41.04092921331527,-53.01901483358771,0,-36.43516540527344,22.340904235839844,-27.13895034790039
-0.22745093703269958,-0.03563148155808449,9.859517097473145,0.0030399416881225563,0.0037144187031784726,0.019430906011165698,0.9199917316436768,2019-07-25 12:03:35:585,43.791592410062535,-55.55620181916462,0,-36.43516540527344,22.340904235839844,-27.13895034790039
-0.16279268264770508,-0.12184246629476547,9.979254722595215,-0.01187740197702267,-0.0005476796633420271,0.011705852790929535,0.9299788475036621,2019-07-25 12:03:35:595,46.49737589760785,-58.02442678234573,0,-36.43516540527344,22.340904235839844,-27.13895034790039
-0.07897645235061646,-0.12184246629476547,9.773306846618652,0.008900327015234149,0.0005178449445427432,0.011705852790929535,0.9399943351745605,2019-07-25 12:03:35:605,49.157877410076885,-60.454658276897604,0,-36.43516540527344,22.340904235839844,-27.13895034790039
-0.004739209543913603,-0.04281572997570038,9.71822738647461,0.0003761301846652757,0.0031816564480000235,0.002915275320410799,0.9499773979187012,2019-07-25 12:03:35:615,51.77237757257642,-62.84072740659919,0,-36.43516540527344,22.340904235839844,-27.13895034790039
0.11499827355146408,-0.13860571384429932,9.773306846618652,0.0041054661984794545,0.007443754749501942,0.006378230239145044,0.9599802494049072,2019-07-25 12:03:35:625,47.146232041923945,-65.1699683647268,0,-36.43516540527344,22.340904235839844,-27.13895034790039
-0.007133959326893091,0.036211010068655014,9.761332511901855,0.005437371836425577,0.005046324601198921,-0.0034778722618792413,0.9699869155883789,2019-07-25 12:03:35:635,49.79963452853933,-60.273875022081526,0,-36.43516540527344,22.340904235839844,-27.13895034790039
0.06470853090286255,-0.14339521527290344,9.742175102233887,0.010764994388210068,0.007710135877091167,-0.0016132042387175067,0.9799807071685791,2019-07-25 12:03:35:645,45.206926472436415,-62.65757276850717,0,-36.43516540527344,22.340904235839844,-27.13895034790039
0.028787286952137947,-0.03563148155808449,9.802042961120605,-0.0014885378710057496,0.004513562346020471,-0.005875302670256588,0.9899938106536865,2019-07-25 12:03:35:655,40.70361565386797,-64.99941889773832,0,-36.43516540527344,22.340904235839844,-27.13895034790039
-0.03826570510864258,-0.28708019852638245,9.75893783569336,-0.0017549189985949741,0.005046324601198921,-0.014932261008290223,1.0000014305114746,2019-07-25 12:03:35:665,43.48221445846495,-67.26474452510607,0,-36.43516540527344,22.340904235839844,-27.13895034790039
-0.050239454954862595,-0.07634222507476807,9.782885551452637,0.001974417047728495,-1.491734416091191e-05,-0.011469306869778954,1.0100090503692627,2019-07-25 12:03:35:675,46.20669381883323,-69.5116169679697,0,-36.43516540527344,22.340904235839844,-27.13895034790039
-0.13166093826293945,-0.3014487028121948,9.885859489440918,-0.010811877466665771,-0.0034778722618792413,-0.01866159783483667,1.0200064182281494,2019-07-25 12:03:35:685,48.869251724325565,-71.68038388588523,0,-36.43516540527344,22.340904235839844,-27.13895034790039
-0.22505618631839752,-0.11465822160243988,9.89064884185791,-0.001222156743416525,0.004513562346020471,-0.016796929421563446,1.0299875736236572,2019-07-25 12:03:35:695,51.46326693662411,-73.8328077291933,0,-36.43516540527344,22.340904235839844,-27.13895034790039
-0.23224042356014252,-0.21284295618534088,10.007991790771484,-0.015606738803569116,-0.005076159287488914,-0.020792646855550465,1.0399818420410156,2019-07-25 12:03:35:705,54.01026345157083,-75.92302657817861,0,-36.43516540527344,22.340904235839844,-27.13895034790039
-0.22505618631839752,-0.08113172650337219,9.871491432189941,-0.0025540625113998103,0.002915275320410799,-0.01653054777382557,1.0499858856201172,2019-07-25 12:03:35:715,56.5022998511517,-77.99371353522777,0,-36.43516540527344,22.340904235839844,-27.13895034790039
-0.007133959326893091,-0.12423721700906754,9.82120132446289,-0.004418730404524382,0.003448037575589248,-0.022124551973347936,1.059983730316162,2019-07-25 12:03:35:725,58.96948582888707,-80.01686374339374,0,-36.43516540527344,22.340904235839844,-27.13895034790039
0.03597153350710869,-0.10986872017383575,9.818806648254395,0.0003761301846652757,0.005312705728788145,-0.026120269407334955,1.0699777603149414,2019-07-25 12:03:35:735,54.191312898290406,-82.00391571355846,0,-36.43516540527344,22.340904235839844,-27.13895034790039
-0.12447669357061386,-0.12902672588825226,9.952912330627441,-0.004418730404524382,0.004513562346020471,-0.028784081723524504,1.079991340637207,2019-07-25 12:03:35:745,56.69061812471911,-83.9464984269165,0,-36.43516540527344,22.340904235839844,-27.13895034790039
-0.2011086791753769,-0.09789497405290604,9.938544273376465,-0.007881685063184303,0.0015833695524275135,-0.027718557213167606,1.0899786949157715,2019-07-25 12:03:35:755,59.13273313098838,-85.85186155974799,0,-36.43516540527344,22.340904235839844,-27.13895034790039
-0.2921091616153717,-0.14100046455860138,9.952912330627441,-0.006549779425238179,0.008775660907596714,-0.023190076483704837,1.0999841690063477,2019-07-25 12:03:35:765,61.51152629314068,-87.71491180428629,0,-36.43516540527344,22.340904235839844,-27.13895034790039
-0.24900367856025696,-0.14100046455860138,10.003202438354492,-0.003619587021756709,0.005845467983966595,-0.017329691676741896,1.1099779605865479,2019-07-25 12:03:35:775,63.8494968871803,-89.5424312160291,0,-36.43516540527344,22.340904235839844,-27.13895034790039
-0.009528708644211292,-0.04281572997570038,9.773306846618652,0.005170990708836353,0.005046324601198921,-0.01706331002900402,1.1199917793273926,2019-07-25 12:03:35:785,66.16855229328064,-91.34947001632428,0,-37.93455505371094,22.340904235839844,-26.539194107055664
0.019208287820219994,-0.07155272364616394,9.732595443725586,-0.0060170171700597306,0.008242898132269616,-0.020792646855550465,1.129978895187378,2019-07-25 12:03:35:795,61.24282041507724,-93.11068195755843,0,-37.93455505371094,22.340904235839844,-26.539194107055664
-0.08616069704294205,-0.05718422681093216,9.746964454650879,-0.004152349276935158,0.008242898132269616,-0.014133118145671199,1.1399846076965332,2019-07-25 12:03:35:805,63.60320364698341,-94.83941258109442,0,-37.93455505371094,22.340904235839844,-26.539194107055664
-0.06221320107579231,-0.05957897752523422,9.924175262451172,-0.004418730404524382,0.009308423162775165,-0.010137400711684182,1.1499812602996826,2019-07-25 12:03:35:815,65.91873117378918,-96.53326472066267,0,-37.93455505371094,22.340904235839844,-26.539194107055664
-0.09334494918584824,-0.061973728239536285,9.847543716430664,0.002507179432944107,0.003448037575589248,-0.01067016296686263,1.159991979598999,2019-07-25 12:03:35:825,68.18755658842976,-98.19679719664431,0,-37.93455505371094,22.340904235839844,-26.539194107055664
-0.06460795551538467,0.01944776251912117,9.854727745056152,-0.0028204436389890346,0.0037144187031784726,-0.012801211987576427,1.1699748039245605,2019-07-25 12:03:35:835,70.41421084095614,-92.63354169589297,0,-37.93455505371094,22.340904235839844,-26.539194107055664
-0.07179220020771027,-0.026052482426166534,9.840359687805176,0.0009088924723530155,0.007443754749501942,-0.01173568747721953,1.179978847503662,2019-07-25 12:03:35:845,72.59338518088897,-94.37834759062906,0,-37.93455505371094,22.340904235839844,-26.539194107055664
-0.0957396999001503,-0.04521048069000244,9.857122421264648,-0.00042301326312097924,0.003980799830767698,-0.004277015644646915,1.1899704933166504,2019-07-25 12:03:35:855,74.72815449690525,-96.08528751918566,0,-37.93455505371094,22.340904235839844,-26.539194107055664
-0.0693974494934082,-0.07873697578907013,9.881070137023926,0.0038390850708902298,-0.0016132042387175067,-0.0008140607909312516,1.199983835220337,2019-07-25 12:03:35:865,76.82645048219456,-97.75660928921401,0,-37.93455505371094,22.340904235839844,-26.539194107055664
-0.09095019847154617,-0.08113172650337219,9.825990676879883,0.000642511344763791,0.003448037575589248,0.003448037575589248,1.2099862098693848,2019-07-25 12:03:35:875,78.87737855593497,-99.39237652075158,0,-37.93455505371094,22.340904235839844,-26.539194107055664
-0.07179220020771027,-0.08113172650337219,9.818806648254395,-0.000955775550808719,0.0071773736219127166,0.0002514638006988733,1.2199716567993164,2019-07-25 12:03:35:885,80.88742831889697,-100.99452474484515,0,-37.93455505371094,22.340904235839844,-26.539194107055664
5.028974192100577e-05,-0.08592122793197632,9.82120132446289,0.0030399416881225563,0.007443754749501942,0.0031816564480000235,1.2299981117248535,2019-07-25 12:03:35:895,75.6654949047954,-102.56632084964392,0,-37.93455505371094,22.340904235839844,-26.539194107055664
-0.007133959326893091,-0.06915797293186188,9.847543716430664,-0.0014885378710057496,0.004779943473609696,0.009841185417953615,1.2399983406066895,2019-07-25 12:03:35:905,77.74867086601462,-104.10611112301123,0,-37.93455505371094,22.340904235839844,-26.539194107055664
-0.04784470424056053,-0.05718422681093216,9.761332511901855,-0.001222156743416525,0.006644611366734268,0.00904204151503729,1.2499947547912598,2019-07-25 12:03:35:915,79.78435124084278,-105.61658993572836,0,-37.93455505371094,22.340904235839844,-26.539194107055664
-0.031081456691026688,-0.06915797293186188,9.802042961120605,-0.0028204436389890346,0.0031816564480000235,0.013037758949024307,1.2600014209747314,2019-07-25 12:03:35:925,81.78324293923315,-107.09458857263179,0,-37.93455505371094,22.340904235839844,-26.539194107055664
-0.01910770870745182,-0.09550022333860397,9.794858932495117,-0.000955775550808719,0.003980799830767698,0.009574803770215738,1.2700049877166748,2019-07-25 12:03:35:935,83.74310663216427,-108.54098757930522,0,-37.93455505371094,22.340904235839844,-26.539194107055664
-0.004739209543913603,-0.05718422681093216,9.833174705505371,0.0033063228157117807,0.006644611366734268,0.015435188577178679,1.2799978256225586,2019-07-25 12:03:35:945,85.66396394450409,-109.96535906685028,0,-37.93455505371094,22.340904235839844,-26.539194107055664
-0.04066045582294464,-0.02365773171186447,9.835570335388184,-0.000955775550808719,0.0015833695524275135,0.014636045714559657,1.2899959087371826,2019-07-25 12:03:35:955,87.54505856388369,-111.36275902895379,0,-37.93455505371094,22.340904235839844,-26.539194107055664
0.01681353710591793,-0.11705297231674194,9.77091121673584,-0.000955775550808719,0.00797651700468039,0.016234332480095003,1.3000054359436035,2019-07-25 12:03:35:965,82.1916461827572,-112.721239556655,0,-37.93455505371094,22.340904235839844,-26.539194107055664
-0.07179220020771027,-0.1266319751739502,9.864306449890137,-0.005750636042470505,0.002116131807605963,0.013037758949024307,1.3099915981292725,2019-07-25 12:03:35:975,84.13828689757493,-114.04888049903556,0,-37.93455505371094,22.340904235839844,-26.539194107055664
0.1389457732439041,-0.23679044842720032,9.804438591003418,-0.002287681383810586,0.0037144187031784726,0.019164525403725124,1.320007085800171,2019-07-25 12:03:35:985,78.86967079797617,-115.33894633777817,0,-37.93455505371094,22.340904235839844,-26.539194107055664
0.08147177845239639,-0.06915797293186188,9.734990119934082,0.008101183112317823,0.0002514638006988733,0.019430906011165698,1.3299839496612549,2019-07-25 12:03:35:995,73.70172641414399,-116.6285651717373,0,-37.93455505371094,22.340904235839844,-26.539194107055664
0.17726176977157593,-0.040420979261398315,9.75893783569336,0.004371847326068679,0.009574803770215738,0.02236109893479582,1.340005874633789,2019-07-25 12:03:36:005,68.64311603095648,-117.89370774506156,0,-37.93455505371094,22.340904235839844,-26.539194107055664
0.09105078130960464,0.009868763387203217,9.70146369934082,0.006502896346782475,0.005312705728788145,0.02076281112896317,1.350008487701416,2019-07-25 12:03:36:015,63.678024256413,-111.94065158799707,0,-37.93455505371094,22.340904235839844,-26.539194107055664
-0.016712957993149757,-0.24636945128440857,9.89064884185791,-0.000955775550808719,0.001316988424838289,0.017299856990451903,1.360011339187622,2019-07-25 12:03:36:025,66.00178773706294,-113.27276364657789,0,-37.93455505371094,22.340904235839844,-26.539194107055664
-0.09813445061445236,-0.08113172650337219,9.828385353088379,-0.0014885378710057496,-0.0005476796633420271,0.020230049914082022,1.369983434677124,2019-07-25 12:03:36:035,68.27061728914425,-114.59701576152081,0,-36.88498306274414,20.991453170776367,-26.689132690429688
-0.04066045582294464,-0.3230014443397522,9.816411972045898,-0.003353205894167484,0.0005178449445427432,0.015701570224916552,1.380030870437622,2019-07-25 12:03:36:045,70.50016633718651,-115.86549182706739,0,-36.88498306274414,20.991453170776367,-26.689132690429688
-0.07179220020771027,-0.09550022333860397,9.859517097473145,0.0011752736649608213,0.001316988424838289,0.01490242632200023,1.3900046348571777,2019-07-25 12:03:36:055,72.68108161171625,-117.13774107312105,0,-36.88498306274414,20.991453170776367,-26.689132690429688
-0.11968719214200974,-0.21284295618534088,9.912201881408691,-0.005484254914881281,-0.005875302670256588,0.013570521204202757,1.4000070095062256,2019-07-25 12:03:36:065,74.81692378481789,-118.36730385689152,0,-36.88498306274414,20.991453170776367,-26.689132690429688
-0.2130824327468872,-0.06915797293186188,9.902623176574707,-0.00308682476657826,-0.0029451100067007917,0.017832620285927653,1.4100122451782227,2019-07-25 12:03:36:075,76.89758609912609,-119.59022090534106,0,-36.88498306274414,20.991453170776367,-26.689132690429688
-0.22745093703269958,-0.22242195904254913,9.926569938659668,-0.010012734604046749,-0.002412347751522343,0.013836901811643333,1.4200148582458496,2019-07-25 12:03:36:085,78.9347370937113,-120.76712095730947,0,-36.88498306274414,20.991453170776367,-26.689132690429688
-0.19871392846107483,-0.05957897752523422,9.926569938659668,-0.0017549189985949741,-1.491734416091191e-05,0.010640328280572637,1.4300146102905273,2019-07-25 12:03:36:095,80.93311440828053,-121.94391550926248,0,-36.88498306274414,20.991453170776367,-26.689132690429688
-0.16518743336200714,-0.10986872017383575,9.938544273376465,-0.006549779425238179,0.001050607232230483,0.011439472183488963,1.4400126934051514,2019-07-25 12:03:36:105,82.89481793730278,-123.08869284851288,0,-36.88498306274414,20.991453170776367,-26.689132690429688
-0.08855544775724411,-0.07634222507476807,9.833174705505371,-0.000955775550808719,0.001849750680016738,0.00557908685637737,1.4500091075897217,2019-07-25 12:03:36:115,84.82556372915653,-124.2174861038,0,-36.88498306274414,20.991453170776367,-26.689132690429688
-0.08137120306491852,-0.05239472910761833,9.80922794342041,-0.00042301326312097924,-0.002412347751522343,0.0005178449445427432,1.4600038528442383,2019-07-25 12:03:36:125,86.72090069375007,-125.32677828266783,0,-36.88498306274414,20.991453170776367,-26.689132690429688
0.05273478478193283,-0.10986872017383575,9.732595443725586,0.005437371836425577,0.011705852790929535,-0.004010634517057691,1.470015525817871,2019-07-25 12:03:36:135,81.38611111875568,-126.41036396632182,0,-36.88498306274414,20.991453170776367,-26.689132690429688
0.021603036671876907,-0.004499734845012426,9.744569778442383,0.0057037529640148014,0.005046324601198921,-0.003744253389468466,1.4800152778625488,2019-07-25 12:03:36:145,76.1580958736227,-127.48483010948785,0,-36.88498306274414,20.991453170776367,-26.689132690429688
0.03836628422141075,-0.15776371955871582,9.804438591003418,0.0017080359201392707,0.005312705728788145,-0.014932261008290223,1.4900012016296387,2019-07-25 12:03:36:155,71.03643920016589,-128.51765382232998,0,-36.88498306274414,20.991453170776367,-26.689132690429688
-0.06700269877910614,-0.13621096312999725,9.754148483276367,0.0014416547925500459,0.0037144187031784726,-0.011469306869778954,1.5000073909759521,2019-07-25 12:03:36:165,73.20575214317203,-129.53210973496212,0,-36.88498306274414,20.991453170776367,-26.689132690429688
-0.04066045582294464,-0.18889546394348145,9.835570335388184,0.0027735605605333316,0.003448037575589248,-0.01173568747721953,1.5100038051605225,2019-07-25 12:03:36:175,75.33496451383645,-130.52101933997898,0,-36.88498306274414,20.991453170776367,-26.689132690429688
-0.06460795551538467,-0.13621096312999725,9.785280227661133,-0.00308682476657826,0.004779943473609696,-0.019194359049717818,1.5200119018554688,2019-07-25 12:03:36:185,77.41801324568475,-131.49291420315984,0,-36.88498306274414,20.991453170776367,-26.689132690429688
-0.007133959326893091,-0.15536896884441376,9.845149040222168,-0.002287681383810586,0.001849750680016738,-0.01759607332447977,1.5300137996673584,2019-07-25 12:03:36:195,79.46778380174975,-132.44368864145767,0,-36.88498306274414,20.991453170776367,-26.689132690429688
-0.050239454954862595,-0.09789497405290604,9.768516540527344,-0.00015663211927710938,0.006910992494323493,-0.020526266248109888,1.5400080680847168,2019-07-25 12:03:36:205,81.46865644806589,-133.38324358680003,0,-36.88498306274414,20.991453170776367,-26.689132690429688
0.004839789122343063,-0.08592122793197632,9.864306449890137,-0.00042301326312097924,0.005312705728788145,-0.02105902746299104,1.5500056743621826,2019-07-25 12:03:36:215,76.23686318414092,-134.30536021587224,0,-36.88498306274414,20.991453170776367,-26.689132690429688
-0.004739209543913603,-0.1002897247672081,9.830780029296875,-0.0028204436389890346,0.004513562346020471,-0.01866159783483667,1.5600154399871826,2019-07-25 12:03:36:225,78.30903666494052,-135.20597801819184,0,-36.88498306274414,20.991453170776367,-26.689132690429688
0.012024038471281528,-0.10268447548151016,9.775701522827148,-0.004418730404524382,0.010107566025394189,-0.023989220386621157,1.5700383186340332,2019-07-25 12:03:36:235,73.13857702930441,-136.087335356181,0,-36.88498306274414,20.991453170776367,-26.689132690429688
-0.03347620740532875,-0.05718422681093216,9.790069580078125,0.000642511344763791,0.005046324601198921,-0.022923695876264263,1.580000400543213,2019-07-25 12:03:36:245,75.26906439484178,-136.95925478311443,0,-36.88498306274414,20.991453170776367,-26.689132690429688
-0.021502457559108734,-0.11226347088813782,9.847543716430664,-0.002287681383810586,0.005845467983966595,-0.02478836428953748,1.5900051593780518,2019-07-25 12:03:36:255,77.3578971797106,-137.805721502988,0,-36.88498306274414,20.991453170776367,-26.689132690429688
0.033576786518096924,-0.061973728239536285,9.823596000671387,0.00010974903269408318,0.0007842261046412585,-0.02478836428953748,1.6000142097473145,2019-07-25 12:03:36:265,72.21421518906854,-138.64243965656044,0,-36.88498306274414,20.991453170776367,-26.689132690429688
-0.004739209543913603,-0.073947474360466,9.847543716430664,-0.00015663211927710938,0.006378230239145044,-0.024521981601502308,1.6100139617919922,2019-07-25 12:03:36:275,74.36579812544582,-139.46089813446915,0,-36.88498306274414,20.991453170776367,-26.689132690429688
-0.031081456691026688,-0.07155272364616394,9.778096199035645,-0.000955775550808719,0.002116131807605963,-0.026653032702810706,1.6200060844421387,2019-07-25 12:03:36:285,76.47365240500305,-140.26275866385728,0,-37.93455505371094,21.441268920898438,-26.83907127380371
5.028974192100577e-05,-0.10268447548151016,9.754148483276367,-0.0017549189985949741,0.004247180958356922,-0.022657315268823686,1.6300251483917236,2019-07-25 12:03:36:295,71.34179593225943,-141.04445331951297,0,-37.93455505371094,21.441268920898438,-26.83907127380371
5.028974192100577e-05,-0.08592122793197632,9.854727745056152,-0.003619587021756709,0.0007842261046412585,-0.025853888799894382,1.6400041580200195,2019-07-25 12:03:36:305,66.31452644374887,-141.81154539034546,0,-37.93455505371094,21.441268920898438,-26.83907127380371
0.03597153350710869,-0.09550022333860397,9.835570335388184,-0.0014885378710057496,0.001849750680016738,-0.025587506111859205,1.6500120162963867,2019-07-25 12:03:36:315,61.39138739319695,-142.56335189170517,0,-37.93455505371094,21.441268920898438,-26.83907127380371
-0.043055206537246704,-0.08592122793197632,9.797253608703613,-0.005217873787292057,0.008509279259858839,-0.027984937820608177,1.660013198852539,2019-07-25 12:03:36:325,63.7537453004492,-143.29910533653833,0,-37.93455505371094,21.441268920898438,-26.83907127380371
-0.02629195712506771,-0.07634222507476807,9.814017295837402,-0.005750636042470505,0.004247180958356922,-0.023989220386621157,1.6700091361999512,2019-07-25 12:03:36:335,66.07321665253362,-144.0209817882996,0,-37.93455505371094,21.441268920898438,-26.83907127380371
-0.007133959326893091,-0.08831597119569778,9.888254165649414,-0.002287681383810586,0.001316988424838289,-0.019727122345193568,1.680006504058838,2019-07-25 12:03:36:345,68.35018629717807,-144.72904360019973,0,-37.93455505371094,21.441268920898438,-26.83907127380371
-0.028686705976724625,-0.10268447548151016,9.845149040222168,-0.008680828445951977,0.005845467983966595,-0.020792646855550465,1.6900081634521484,2019-07-25 12:03:36:355,70.57656085526217,-145.41763622969148,0,-37.93455505371094,21.441268920898438,-26.83907127380371
-0.007133959326893091,-0.10986872017383575,9.814017295837402,-0.0014885378710057496,0.004247180958356922,-0.019194359049717818,1.6999919414520264,2019-07-25 12:03:36:365,72.7618157370003,-146.09562096681847,0,-37.93455505371094,21.441268920898438,-26.83907127380371
-0.002344459993764758,-0.1002897247672081,9.830780029296875,-0.005217873787292057,0.004247180958356922,-0.021325408070431612,1.7101342678070068,2019-07-25 12:03:36:375,74.90388741437711,-146.75904724772244,0,-37.93455505371094,21.441268920898438,-26.83907127380371
0.00962928868830204,-0.08592122793197632,9.854727745056152,-0.0014885378710057496,0.006910992494323493,-0.023722839779180587,1.719985008239746,2019-07-25 12:03:36:385,69.80310677457648,-147.41305223041374,0,-37.93455505371094,21.441268920898438,-26.83907127380371
0.007234538905322552,-0.1002897247672081,9.881070137023926,-0.003619587021756709,0.0007842261046412585,-0.026919413310251283,1.7299878597259521,2019-07-25 12:03:36:395,64.80744316673255,-148.0511279330152,0,-37.93455505371094,21.441268920898438,-26.83907127380371
0.021603036671876907,-0.07873697578907013,9.79964828491211,0.00010974903269408318,0.00904204151503729,-0.022390932580788513,1.7399935722351074,2019-07-25 12:03:36:405,59.908740442249574,-148.6809601738154,0,-37.93455505371094,21.441268920898438,-26.83907127380371
-0.004739209543913603,-0.11226347088813782,9.869096755981445,-0.0028204436389890346,0.0023825130652323496,-0.01573140491120655,1.7499816417694092,2019-07-25 12:03:36:415,62.30867917492323,-149.29272466708824,0,-37.93455505371094,21.441268920898438,-26.83907127380371
-0.004739209543913603,-0.08113172650337219,9.859517097473145,-0.003619587021756709,0.005845467983966595,-0.01812883453936092,1.7599899768829346,2019-07-25 12:03:36:425,64.65866982201081,-149.89540682027393,0,-37.93455505371094,21.441268920898438,-26.83907127380371
0.026392536237835884,-0.13142146170139313,9.835570335388184,-0.001222156743416525,0.001849750680016738,-0.01866159783483667,1.7699775695800781,2019-07-25 12:03:36:435,59.76753399708873,-150.48150264948382,0,-37.93455505371094,21.441268920898438,-26.83907127380371
-0.028686705976724625,-0.04281572997570038,9.825990676879883,-0.0049514926597028315,0.006378230239145044,-0.015198642656028098,1.7799935340881348,2019-07-25 12:03:36:445,62.16525077294012,-151.06409472544422,0,-37.93455505371094,21.441268920898438,-26.83907127380371
-0.016712957993149757,-0.09310547262430191,9.830780029296875,-0.0049514926597028315,0.0005178449445427432,-0.017329691676741896,1.7899799346923828,2019-07-25 12:03:36:455,64.51970725538972,-151.629183928501,0,-37.93455505371094,21.441268920898438,-26.83907127380371
0.004839789122343063,-0.08831597119569778,9.86670207977295,0.0003761301846652757,0.009574803770215738,-0.013067593635314302,1.7999861240386963,2019-07-25 12:03:36:465,59.624495634952574,-152.18655486279977,0,-37.93455505371094,21.441268920898438,-26.83907127380371
-0.007133959326893091,-0.06915797293186188,9.86191177368164,-0.002287681383810586,0.001050607232230483,-0.01759607332447977,1.8099770545959473,2019-07-25 12:03:36:475,62.03058740470484,-152.73350464621734,0,-37.93455505371094,21.441268920898438,-26.83907127380371
-0.01192345842719078,-0.12902672588825226,9.825990676879883,-0.00042301326312097924,0.003980799830767698,-0.013333974242754877,1.8199913501739502,2019-07-25 12:03:36:485,64.38634672413208,-153.26355034798917,0,-37.93455505371094,21.441268920898438,-26.83907127380371
0.012024038471281528,-0.09789497405290604,9.873886108398438,-0.00015663211927710938,0.005046324601198921,-0.00480977815989969,1.8299782276153564,2019-07-25 12:03:36:495,59.49718545474691,-153.78683066151373,0,-37.93455505371094,21.441268920898438,-26.83907127380371
0.004839789122343063,-0.10507921874523163,9.912201881408691,0.0017080359201392707,0.00557908685637737,-0.009071876201327283,1.83998441696167,2019-07-25 12:03:36:505,54.70466666840973,-154.2999063094448,0,-37.93455505371094,21.441268920898438,-26.83907127380371
-0.01192345842719078,-0.09071072190999985,9.84993839263916,-0.002287681383810586,0.0002514638006988733,-0.01173568747721953,1.8499865531921387,2019-07-25 12:03:36:515,57.20904496558755,-154.80207063347393,0,-37.93455505371094,21.441268920898438,-26.83907127380371
-0.02629195712506771,-0.14100046455860138,9.854727745056152,-0.0028204436389890346,0.0023825130652323496,-0.004010634517057691,1.8599827289581299,2019-07-25 12:03:36:525,59.66046955757028,-155.28805162354513,0,-37.93455505371094,21.441268920898438,-26.83907127380371
5.028974192100577e-05,-0.1002897247672081,9.86670207977295,0.0022407983053548824,0.008509279259858839,-0.0029451100067007917,1.8699853420257568,2019-07-25 12:03:36:535,54.86248680981771,-155.77190190993858,0,-36.13528823852539,22.041025161743164,-27.738706588745117
-0.031081456691026688,-0.10507921874523163,9.852333068847656,0.0017080359201392707,0.00797651700468039,-0.002412347751522343,1.879974603652954,2019-07-25 12:03:36:545,57.35714803668961,-156.24520070001324,0,-36.13528823852539,22.041025161743164,-27.738706588745117
-0.04066045582294464,-0.09550022333860397,9.840359687805176,0.0011752736649608213,0.007710135877091167,0.0007842261046412585,1.8899798393249512,2019-07-25 12:03:36:555,59.800938671804225,-156.7098362388453,0,-36.13528823852539,22.041025161743164,-27.738706588745117
0.033576786518096924,-0.09550022333860397,9.84993839263916,-0.00015663211927710938,0.001316988424838289,-0.0010804419185204762,1.8999884128570557,2019-07-25 12:03:36:565,55.00808599591555,-157.1644415965056,0,-36.13528823852539,22.041025161743164,-27.738706588745117
-0.04066045582294464,-0.07873697578907013,9.768516540527344,-0.005750636042470505,-0.0005476796633420271,0.0031816564480000235,1.9099843502044678,2019-07-25 12:03:36:575,57.50346194298485,-157.60868890190332,0,-36.13528823852539,22.041025161743164,-27.738706588745117
-0.016712957993149757,-0.09789497405290604,9.87867546081543,-0.00015663211927710938,0.004247180958356922,0.001316988424838289,1.919987440109253,2019-07-25 12:03:36:585,59.94906849785208,-158.04507180933678,0,-36.13528823852539,22.041025161743164,-27.738706588745117
0.03836628422141075,-0.08592122793197632,9.876280784606934,0.0011752736649608213,0.0071773736219127166,-0.002145966493895956,1.9299750328063965,2019-07-25 12:03:36:595,55.15051354648663,-158.4748605349924,0,-36.13528823852539,22.041025161743164,-27.738706588745117
0.03597153350710869,-0.08113172650337219,9.804438591003418,-0.0017549189985949741,0.004513562346020471,0.009308423162775165,1.9399867057800293,2019-07-25 12:03:36:605,50.44917019229727,-158.8948945546782,0,-36.13528823852539,22.041025161743164,-27.738706588745117
-0.08137120306491852,-0.18171121180057526,9.924175262451172,-0.008414447318362751,-0.0013468231111282822,0.010107566025394189,1.9499759674072266,2019-07-25 12:03:36:615,53.03154673062687,-159.2912977167169,0,-36.13528823852539,22.041025161743164,-27.738706588745117
-0.0957396999001503,-0.21044820547103882,9.905017852783203,-0.001222156743416525,-1.491734416091191e-05,0.006644611366734268,1.959991693496704,2019-07-25 12:03:36:625,55.55984836490604,-159.68044126693064,0,-36.13528823852539,22.041025161743164,-27.738706588745117
-0.04066045582294464,-0.17452695965766907,9.888254165649414,-0.005750636042470505,0.001316988424838289,0.012238615046107985,1.9699814319610596,2019-07-25 12:03:36:635,58.043200696127506,-160.06338355451567,0,-36.13528823852539,22.041025161743164,-27.738706588745117
0.05752428248524666,-0.119447723031044,9.75893783569336,0.002507179432944107,0.005312705728788145,0.010906709928310512,1.9799845218658447,2019-07-25 12:03:36:645,53.286107230876524,-160.4494989865942,0,-36.13528823852539,22.041025161743164,-27.738706588745117
0.014418788254261017,0.05297425761818886,9.852333068847656,0.0075684208571393735,0.0071773736219127166,0.0183653815008088,1.989975929260254,2019-07-25 12:03:36:655,48.618035498130105,-153.6509163400024,0,-36.13528823852539,22.041025161743164,-27.738706588745117
-0.03347620740532875,-0.033236730843782425,9.857122421264648,0.0022407983053548824,0.002116131807605963,0.01596795083235713,1.9999918937683105,2019-07-25 12:03:36:665,51.24059300670403,-154.17529438708374,0,-36.13528823852539,22.041025161743164,-27.738706588745117
-0.009528708644211292,-0.16015847027301788,9.89064884185791,-0.002287681383810586,0.003980799830767698,0.016767094735273453,2.0099785327911377,2019-07-25 12:03:36:675,53.812444937940086,-154.67195158947374,0,-36.13528823852539,22.041025161743164,-27.738706588745117
0.014418788254261017,-0.08831597119569778,9.82120132446289,0.0017080359201392707,0.0037144187031784726,0.02236109893479582,2.0199880599975586,2019-07-25 12:03:36:685,49.13579076154194,-155.16916830091697,0,-36.13528823852539,22.041025161743164,-27.738706588745117
-0.01192345842719078,-0.03563148155808449,9.840359687805176,0.001974417047728495,0.006644611366734268,0.019963669306641448,2.0299808979034424,2019-07-25 12:03:36:695,51.74795818523845,-155.6627434848217,0,-36.13528823852539,22.041025161743164,-27.738706588745117
-0.057423703372478485,-0.05718422681093216,9.828385353088379,0.0033063228157117807,0.002116131807605963,0.025557672465866516,2.039994716644287,2019-07-25 12:03:36:705,54.30511408000606,-156.1446805020946,0,-36.13528823852539,22.041025161743164,-27.738706588745117
-0.028686705976724625,-0.1266319751739502,9.785280227661133,-0.00015663211927710938,0.0071773736219127166,0.023959384660033865,2.049975633621216,2019-07-25 12:03:36:715,56.81163002608609,-156.60687056752903,0,-36.13528823852539,22.041025161743164,-27.738706588745117
0.004839789122343063,-0.11226347088813782,9.871491432189941,0.0038390850708902298,0.0071773736219127166,0.02342662344515272,2.0599825382232666,2019-07-25 12:03:36:725,52.071926376218,-157.06385892992844,0,-36.13528823852539,22.041025161743164,-27.738706588745117
-0.01192345842719078,-0.01647348329424858,9.814017295837402,0.0011752736649608213,0.0071773736219127166,0.027422340879139737,2.069981575012207,2019-07-25 12:03:36:735,54.62506593145394,-157.52131810830747,0,-36.13528823852539,22.041025161743164,-27.738706588745117
-0.016712957993149757,-0.1002897247672081,9.83796501159668,0.0003761301846652757,0.004779943473609696,0.02422576734806904,2.0799899101257324,2019-07-25 12:03:36:745,57.127931738470785,-157.9594218840477,0,-36.13528823852539,22.041025161743164,-27.738706588745117
-0.009528708644211292,-0.14339521527290344,9.83796501159668,-0.0028204436389890346,0.004513562346020471,0.027422340879139737,2.089984655380249,2019-07-25 12:03:36:755,59.5817301829333,-158.38194926540677,0,-36.13528823852539,22.041025161743164,-27.738706588745117
-0.04066045582294464,-0.07873697578907013,9.86670207977295,0.004638228453657903,0.006644611366734268,0.02529129185842594,2.099976062774658,2019-07-25 12:03:36:765,61.981645579419265,-158.8077681084276,0,-36.13528823852539,22.041025161743164,-27.738706588745117
-0.01910770870745182,-0.08592122793197632,9.842754364013672,0.000642511344763791,0.006378230239145044,0.025024909170390765,2.110006332397461,2019-07-25 12:03:36:775,64.3361958999576,-159.22197171910256,0,-36.13528823852539,22.041025161743164,-27.738706588745117
-0.007133959326893091,-0.073947474360466,9.782885551452637,0.000642511344763791,0.005046324601198921,0.029020626604377785,2.119985580444336,2019-07-25 12:03:36:785,66.64580872343453,-159.62923065332856,0,-37.03491973876953,22.64078140258789,-27.438827514648438
-0.028686705976724625,-0.09550022333860397,9.833174705505371,-0.001222156743416525,0.003980799830767698,0.03035253380276986,2.1299936771392822,2019-07-25 12:03:36:795,68.90731251051217,-160.0248304127896,0,-37.03491973876953,22.64078140258789,-27.438827514648438
-0.01910770870745182,-0.07155272364616394,9.763727188110352,0.005970134091604027,0.005312705728788145,0.026889577583663987,2.139977216720581,2019-07-25 12:03:36:805,71.12394552848436,-160.419282904879,0,-37.03491973876953,22.64078140258789,-27.438827514648438
-0.04066045582294464,-0.07155272364616394,9.792464256286621,0.004371847326068679,0.001050607232230483,0.027422340879139737,2.1499907970428467,2019-07-25 12:03:36:815,73.29611783715585,-160.8049824056777,0,-37.03491973876953,22.64078140258789,-27.438827514648438
-0.023897206410765648,-0.06676322966814041,9.744569778442383,0.0014416547925500459,0.0031816564480000235,0.027422340879139737,2.1599795818328857,2019-07-25 12:03:36:825,75.42560079475547,-161.18184041784164,0,-37.03491973876953,22.64078140258789,-27.438827514648438
-0.03826570510864258,-0.10268447548151016,9.842754364013672,0.00010974903269408318,0.0023825130652323496,0.02422576734806904,2.1699862480163574,2019-07-25 12:03:36:835,77.51129515226062,-161.54631095069755,0,-37.03491973876953,22.64078140258789,-27.438827514648438
-0.04544995352625847,-0.09310547262430191,9.823596000671387,-0.000955775550808719,0.00557908685637737,0.020230049914082022,2.1799838542938232,2019-07-25 12:03:36:845,79.55263568200208,-161.90398783050995,0,-37.03491973876953,22.64078140258789,-27.438827514648438
-0.05981845408678055,-0.1266319751739502,9.842754364013672,-0.00308682476657826,0.009308423162775165,0.01969728661860627,2.189985990524292,2019-07-25 12:03:36:855,81.54939107172419,-162.24943248983786,0,-37.03491973876953,22.64078140258789,-27.438827514648438
-0.007133959326893091,-0.08352647721767426,9.804438591003418,0.00010974903269408318,0.0026488941928215744,0.021029193816998346,2.1999831199645996,2019-07-25 12:03:36:865,83.51608252952461,-162.5947433394502,0,-37.03491973876953,22.64078140258789,-27.438827514648438
-0.04784470424056053,-0.10268447548151016,9.802042961120605,0.002507179432944107,-0.0018795853663067313,0.02316024283771214,2.2100112438201904,2019-07-25 12:03:36:875,85.44122595311168,-162.9322562389426,0,-37.03491973876953,22.64078140258789,-27.438827514648438
-0.07658170163631439,-0.1266319751739502,9.895438194274902,0.007035658601960925,0.004247180958356922,0.020230049914082022,2.219986915588379,2019-07-25 12:03:36:885,87.32115428092365,-163.2628885285082,0,-37.03491973876953,22.64078140258789,-27.438827514648438
-0.06460795551538467,-0.13860571384429932,9.806833267211914,-0.0006893944232194946,0.003448037575589248,0.018631762108249374,2.2299795150756836,2019-07-25 12:03:36:895,89.16524731413821,-163.58104913300448,0,-37.03491973876953,22.64078140258789,-27.438827514648438
-0.08137120306491852,-0.10747396945953369,9.840359687805176,-0.005217873787292057,0.006111849111555819,0.014103283459381206,2.239988327026367,2019-07-25 12:03:36:905,90.96903204101594,-163.89398083111072,0,-37.63467788696289,22.041025161743164,-27.438827514648438
-0.1220819428563118,-0.07873697578907013,9.797253608703613,-0.00015663211927710938,0.00557908685637737,0.017832620285927653,2.249978542327881,2019-07-25 12:03:36:915,92.73224349168949,-164.20680424187375,0,-37.63467788696289,22.041025161743164,-27.438827514648438
-0.08855544775724411,-0.05957897752523422,9.873886108398438,0.0009088924723530155,0.006378230239145044,0.008242898132269616,2.2599947452545166,2019-07-25 12:03:36:925,94.46373440886015,-164.5162649610169,0,-37.63467788696289,22.041025161743164,-27.438827514648438
-0.050239454954862595,-0.11226347088813782,9.883464813232422,0.0030399416881225563,0.006111849111555819,0.008775660907596714,2.2699825763702393,2019-07-25 12:03:36:935,96.16520725397795,-164.81462893765845,0,-37.63467788696289,22.041025161743164,-27.438827514648438
-0.10052919387817383,-0.11465822160243988,9.835570335388184,-0.0028204436389890346,0.006910992494323493,0.008775660907596714,2.279989004135132,2019-07-25 12:03:36:945,97.82630812616617,-165.10339375273836,0,-37.63467788696289,22.041025161743164,-27.438827514648438
-0.0957396999001503,-0.119447723031044,9.897833824157715,0.0009088924723530155,0.004247180958356922,0.0071773736219127166,2.289978265762329,2019-07-25 12:03:36:955,99.45631587930606,-165.3880073565618,0,-37.63467788696289,22.041025161743164,-27.438827514648438
-0.10052919387817383,-0.11226347088813782,9.87867546081543,-0.0014885378710057496,0.004779943473609696,0.004779943473609696,2.2999839782714844,2019-07-25 12:03:36:965,101.05284322232353,-165.66638904022886,0,-37.63467788696289,22.041025161743164,-27.438827514648438
-0.08616069704294205,-0.12184246629476547,9.847543716430664,0.004371847326068679,0.00797651700468039,0.005312705728788145,2.3100085258483887,2019-07-25 12:03:36:975,102.61727067243027,-165.94134452021868,0,-37.63467788696289,22.041025161743164,-27.438827514648438
-0.09813445061445236,-0.09310547262430191,9.895438194274902,-0.00308682476657826,0.006378230239145044,0.004513562346020471,2.3199756145477295,2019-07-25 12:03:36:985,104.1499918447828,-166.21000856629234,0,-37.63467788696289,22.041025161743164,-27.438827514648438
-0.07658170163631439,-0.07155272364616394,9.89064884185791,0.0011752736649608213,0.003980799830767698,-0.0005476796633420271,2.3299825191497803,2019-07-25 12:03:36:995,105.65588278824761,-166.47817891963504,0,-37.63467788696289,22.041025161743164,-27.438827514648438
-0.08137120306491852,-0.12902672588825226,9.857122421264648,-0.0014885378710057496,0.0071773736219127166,-0.0018795853663067313,2.3399856090545654,2019-07-25 12:03:37:005,107.12927440694143,-166.73278044203903,0,-37.63467788696289,22.041025161743164,-27.438827514648438
-0.06460795551538467,-0.061973728239536285,9.79964828491211,-0.000955775550808719,0.004513562346020471,-0.002145966493895956,2.3499865531921387,2019-07-25 12:03:37:015,108.57659954000451,-166.99034135428195,0,-37.63467788696289,22.041025161743164,-27.438827514648438
-0.07418695092201233,-0.10986872017383575,9.825990676879883,-0.001222156743416525,0.003448037575589248,-0.004543397032310465,2.3599863052368164,2019-07-25 12:03:37:025,109.99447994636508,-167.23703585297088,0,-37.63467788696289,22.041025161743164,-27.438827514648438
-0.09334494918584824,-0.1002897247672081,9.87867546081543,-0.0038859681493459333,0.002116131807605963,-0.003744253389468466,2.3699557781219482,2019-07-25 12:03:37:035,111.38257817939584,-167.47848673184018,0,-37.63467788696289,21.741147994995117,-27.738706588745117
-0.04066045582294464,-0.08352647721767426,9.80922794342041,-0.004418730404524382,0.001316988424838289,-0.005875302670256588,2.3799891471862793,2019-07-25 12:03:37:045,112.74943472719782,-167.71667026613972,0,-37.63467788696289,21.741147994995117,-27.738706588745117
-0.10052919387817383,-0.06676322966814041,9.86191177368164,0.0003761301846652757,0.004513562346020471,-0.006408064925435037,2.389983892440796,2019-07-25 12:03:37:055,114.08023231057108,-167.95479043867513,0,-37.63467788696289,21.741147994995117,-27.738706588745117
-0.07658170163631439,-0.12423721700906754,9.859517097473145,-0.000955775550808719,0.0007842261046412585,-0.008006351690970383,2.3999931812286377,2019-07-25 12:03:37:065,115.3892864368564,-168.18071884382292,0,-37.63467788696289,21.741147994995117,-27.738706588745117
-0.043055206537246704,-0.09310547262430191,9.77091121673584,0.001974417047728495,0.00904204151503729,-0.008805495593886707,2.410003900527954,2019-07-25 12:03:37:075,116.67136876425121,-168.40729536926656,0,-37.63467788696289,21.741147994995117,-27.738706588745117
-0.03826570510864258,-0.10747396945953369,9.814017295837402,-0.0028204436389890346,0.0005178449445427432,-0.005076159287488914,2.4199910163879395,2019-07-25 12:03:37:085,117.93318299267735,-168.6250193292598,0,-37.63467788696289,21.741147994995117,-27.738706588745117
-0.06700269877910614,-0.12902672588825226,9.823596000671387,-0.00308682476657826,0.005046324601198921,-0.006141683797845812,2.4299771785736084,2019-07-25 12:03:37:095,119.16387405270787,-168.83573808143092,0,-37.63467788696289,21.741147994995117,-27.738706588745117
-0.04066045582294464,-0.10268447548151016,9.869096755981445,-0.003353205894167484,0.0031816564480000235,-0.005076159287488914,2.4399847984313965,2019-07-25 12:03:37:105,120.37408759495473,-169.04521664670557,0,-37.63467788696289,21.741147994995117,-27.738706588745117
-0.016712957993149757,-0.119447723031044,9.830780029296875,-0.0028204436389890346,0.0026488941928215744,-0.005875302670256588,2.4499804973602295,2019-07-25 12:03:37:115,121.56317100400244,-169.24880669373698,0,-37.63467788696289,21.741147994995117,-27.738706588745117
0.04555053263902664,-0.14818471670150757,9.89064884185791,0.002507179432944107,0.005046324601198921,-0.0002812985032435118,2.459988594055176,2019-07-25 12:03:37:125,115.53434916371455,-169.44807230518816,0,-37.63467788696289,21.741147994995117,-27.738706588745117
0.04315578565001488,-0.12902672588825226,9.79964828491211,0.000642511344763791,0.003448037575589248,-0.004277015644646915,2.4699795246124268,2019-07-25 12:03:37:135,109.62677422944816,-169.64438451540533,0,-37.63467788696289,21.741147994995117,-27.738706588745117
0.04315578565001488,-0.11465822160243988,9.857122421264648,0.0030399416881225563,-0.0002812985032435118,-0.0010804419185204762,2.4799909591674805,2019-07-25 12:03:37:145,103.83941381214994,-169.83987699080203,0,-37.63467788696289,21.741147994995117,-27.738706588745117
0.028787286952137947,-0.11226347088813782,9.845149040222168,-0.001222156743416525,0.0015833695524275135,-0.0018795853663067313,2.489976406097412,2019-07-25 12:03:37:155,98.16508842583208,-170.02932799003054,0,-37.03491973876953,22.041025161743164,-28.038583755493164
0.004839789122343063,-0.07634222507476807,9.792464256286621,0.002507179432944107,0.0037144187031784726,0.00557908685637737,2.4999775886535645,2019-07-25 12:03:37:165,92.60026712240959,-170.22121597725697,0,-37.03491973876953,22.041025161743164,-28.038583755493164
-0.002344459993764758,-0.05239472910761833,9.895438194274902,0.003572703943301005,0.008242898132269616,0.011173090535751088,2.5099873542785645,2019-07-25 12:03:37:175,94.34335738986613,-170.4127323059668,0,-37.03491973876953,22.041025161743164,-28.038583755493164
0.15570901334285736,-0.11465822160243988,9.775701522827148,0.0038390850708902298,0.016234332480095003,0.012771377301286432,2.519981861114502,2019-07-25 12:03:37:185,88.86563048615642,-170.59319240412736,0,-37.03491973876953,22.041025161743164,-28.038583755493164
0.11739302426576614,-0.14818471670150757,9.744569778442383,0.0014416547925500459,0.008242898132269616,0.01969728661860627,2.52999210357666,2019-07-25 12:03:37:195,83.49748895968476,-170.7647143894474,0,-37.03491973876953,22.041025161743164,-28.038583755493164
0.11020877212285995,-0.12184246629476547,9.80922794342041,-0.00015663211927710938,0.004247180958356922,0.03274996343092423,2.539980173110962,2019-07-25 12:03:37:205,78.23803130417642,-170.93509933325396,0,-37.03491973876953,22.041025161743164,-28.038583755493164
0.08386652916669846,-0.07155272364616394,9.778096199035645,0.010764994388210068,0.006644611366734268,0.039675873788541365,2.549988269805908,2019-07-25 12:03:37:215,73.07936497037751,-171.11406150635804,0,-37.03491973876953,22.041025161743164,-28.038583755493164
0.1269720196723938,-0.07155272364616394,9.727806091308594,0.011564138291126394,0.009841185417953615,0.04500349425973126,2.5599794387817383,2019-07-25 12:03:37:225,68.02721293259194,-171.28983917796847,0,-37.03491973876953,22.041025161743164,-28.038583755493164
0.12457727640867233,-0.06436847895383835,9.924175262451172,-0.003353205894167484,0.01250499669384586,0.045802638162647576,2.569991111755371,2019-07-25 12:03:37:235,63.07402275859364,-171.45472503963086,0,-37.03491973876953,22.041025161743164,-28.038583755493164
0.21078826487064362,-0.09789497405290604,9.881070137023926,0.0075684208571393735,0.002915275320410799,0.04793368718336138,2.57997727394104,2019-07-25 12:03:37:245,58.235349221605716,-171.61852172940638,0,-37.03491973876953,22.041025161743164,-28.038583755493164
0.19402500987052917,-0.04281572997570038,9.778096199035645,0.005437371836425577,0.004513562346020471,0.05752340985716806,2.589984655380249,2019-07-25 12:03:37:255,53.49084122136633,-171.78418899223811,0,-37.03491973876953,22.041025161743164,-28.038583755493164
0.17007751762866974,-0.054789479821920395,9.823596000671387,0.011297756643388519,0.007710135877091167,0.06151912521056048,2.5999817848205566,2019-07-25 12:03:37:265,48.83653385022485,-171.94845597822186,0,-37.03491973876953,22.041025161743164,-28.038583755493164
0.1269720196723938,-0.07155272364616394,9.840359687805176,0.003572703943301005,0.007443754749501942,0.06418293960734463,2.6100029945373535,2019-07-25 12:03:37:275,44.27039979491869,-172.1031649725717,0,-37.03491973876953,22.041025161743164,-28.038583755493164
0.12218252569437027,-0.054789479821920395,9.87867546081543,0.007035658601960925,-0.0010804419185204762,0.06924418155168854,2.6199848651885986,2019-07-25 12:03:37:285,39.79976968305711,-172.25868956903057,0,-38.53430938720703,22.64078140258789,-27.438827514648438
0.03836628422141075,-0.047605227679014206,9.811622619628906,0.0057037529640148014,0.0023825130652323496,0.06844503764877223,2.6299691200256348,2019-07-25 12:03:37:295,35.406919456687476,-172.41115353511535,0,-38.53430938720703,22.64078140258789,-27.438827514648438
0.03118203580379486,0.06734275817871094,9.754148483276367,0.01023223213303162,0.017033475342714027,0.06924418155168854,2.6399877071380615,2019-07-25 12:03:37:305,31.09286226452299,-165.37659781713222,0,-38.53430938720703,22.64078140258789,-27.438827514648438
0.07907702773809433,0.07452700287103653,9.869096755981445,0.0027735605605333316,0.004513562346020471,0.079100278591152,2.649980306625366,2019-07-25 12:03:37:315,26.877654091189992,-158.47927533607532,0,-38.53430938720703,22.64078140258789,-27.438827514648438
-0.0957396999001503,-0.040420979261398315,9.816411972045898,0.004371847326068679,-0.00480977815989969,0.06498208351026095,2.659998893737793,2019-07-25 12:03:37:325,29.931630925332605,-158.9074306755001,0,-38.53430938720703,22.64078140258789,-27.438827514648438
-0.0957396999001503,-0.27989596128463745,9.924175262451172,-0.0014885378710057496,0.009841185417953615,0.06524846203710692,2.669990062713623,2019-07-25 12:03:37:335,32.916422933306784,-159.29613678237607,0,-38.53430938720703,22.64078140258789,-27.438827514648438
-0.021502457559108734,-0.24876420199871063,9.893043518066406,-0.005750636042470505,0.002116131807605963,0.06391655691930945,2.6799893379211426,2019-07-25 12:03:37:345,35.85441572041789,-159.67817691003415,0,-38.53430938720703,22.64078140258789,-27.438827514648438
-0.002344459993764758,-0.018868232145905495,9.82120132446289,0.0027735605605333316,0.0071773736219127166,0.0644493181341906,2.689979076385498,2019-07-25 12:03:37:355,38.73302790968209,-160.08396762422717,0,-38.53430938720703,22.64078140258789,-27.438827514648438
0.002445039339363575,-0.04999997839331627,9.86191177368164,0.01023223213303162,0.0026488941928215744,0.06285103448954715,2.6999967098236084,2019-07-25 12:03:37:365,34.357161482299304,-160.48223403502845,0,-38.53430938720703,22.64078140258789,-27.438827514648438
0.06470853090286255,0.02663201093673706,9.746964454650879,0.0033063228157117807,0.001050607232230483,0.059654458877881865,2.709982395172119,2019-07-25 12:03:37:375,30.07703662028322,-153.67757421462653,0,-38.53430938720703,22.64078140258789,-27.438827514648438
0.014418788254261017,-0.12902672588825226,9.77091121673584,0.01316242505666174,0.01197223443866741,0.05512597814841909,2.719986915588379,2019-07-25 12:03:37:385,25.8704614650836,-154.19628560291133,0,-38.53430938720703,22.64078140258789,-27.438827514648438
0.033576786518096924,-0.02365773171186447,9.840359687805176,0.0041054661984794545,0.0026488941928215744,0.0540604557186568,2.7299857139587402,2019-07-25 12:03:37:395,21.755475085102237,-154.71190987627082,0,-38.53430938720703,22.64078140258789,-27.438827514648438
0.06949803233146667,-0.23439571261405945,9.818806648254395,0.0038390850708902298,0.0015833695524275135,0.056990648642286916,2.739989995956421,2019-07-25 12:03:37:405,17.727586858515714,-155.19247800509171,0,-38.234432220458984,22.940658569335938,-27.438827514648438
0.10541927814483643,-0.15057946741580963,9.66075325012207,0.009166707622674722,0.008242898132269616,0.051663024009907826,2.7499899864196777,2019-07-25 12:03:37:415,13.780910619380007,-155.6759159133358,0,-38.234432220458984,22.940658569335938,-27.438827514648438
0.02399778738617897,-0.3421594500541687,9.806833267211914,0.0041054661984794545,0.0026488941928215744,0.0508638801069915,2.7599940299987793,2019-07-25 12:03:37:425,9.906608559434133,-156.12473906956387,0,-38.234432220458984,22.940658569335938,-27.438827514648438
-0.004739209543913603,-0.12902672588825226,9.950517654418945,-0.0020213001261841987,0.001050607232230483,0.054859599621573114,2.7699782848358154,2019-07-25 12:03:37:435,13.30734162855741,-156.58625305161985,0,-38.234432220458984,22.940658569335938,-27.438827514648438
-0.002344459993764758,-0.3230014443397522,9.84993839263916,-0.005484254914881281,-0.0029451100067007917,0.051663024009907826,2.779981851577759,2019-07-25 12:03:37:445,16.642576312846312,-157.0138838236742,0,-38.234432220458984,22.940658569335938,-27.438827514648438
-0.17955593764781952,-0.12423721700906754,9.950517654418945,-0.004685111532113607,-0.002412347751522343,0.05432683424550277,2.7899911403656006,2019-07-25 12:03:37:455,19.89040490469481,-157.4566664308182,0,-38.234432220458984,22.940658569335938,-27.438827514648438
-0.1484241932630539,-0.32539618015289307,9.924175262451172,-0.01187740197702267,0.005312705728788145,0.051929406697943,2.799980401992798,2019-07-25 12:03:37:465,23.07248010156476,-157.86331202595667,0,-38.234432220458984,22.940658569335938,-27.438827514648438
-0.2011086791753769,-0.061973728239536285,9.905017852783203,-0.0006893944232194946,-0.0010804419185204762,0.049798357677229205,2.809988021850586,2019-07-25 12:03:37:475,26.188374478965727,-158.2984887238886,0,-38.234432220458984,22.940658569335938,-27.438827514648438
-0.18195068836212158,-0.12902672588825226,10.017570495605469,-0.008680828445951977,-0.003744253389468466,0.042073301336101133,2.81998348236084,2019-07-25 12:03:37:485,29.245897273728957,-158.71288826420906,0,-38.234432220458984,22.940658569335938,-27.438827514648438
-0.043055206537246704,-0.03084198199212551,9.881070137023926,0.005170990708836353,0.001316988424838289,0.04100777890633884,2.8299849033355713,2019-07-25 12:03:37:495,32.255246620900834,-159.13795765809982,0,-38.234432220458984,22.940658569335938,-27.438827514648438
-0.08376594632863998,-0.119447723031044,9.89064884185791,-0.00308682476657826,-0.0002812985032435118,0.038610347197589864,2.8399884700775146,2019-07-25 12:03:37:505,35.20059492993973,-159.539626279351,0,-38.234432220458984,22.940658569335938,-27.438827514648438
0.05273478478193283,-0.13142146170139313,9.790069580078125,0.01369518731184019,0.010373947673132064,0.0340818685487217,2.849985122680664,2019-07-25 12:03:37:515,30.896932505614412,-159.9411392123361,0,-38.234432220458984,22.940658569335938,-27.438827514648438
0.5245004892349243,0.17271174490451813,9.59130573272705,0.020088334373981578,0.010906709928310512,0.03594653696199492,2.859983205795288,2019-07-25 12:03:37:525,26.73547295992248,-153.17422624223462,0,-38.234432220458984,22.940658569335938,-27.438827514648438
0.22994625568389893,0.23018573224544525,9.39254093170166,0.028878913144871943,0.017033475342714027,0.03008615111473468,2.869985342025757,2019-07-25 12:03:37:535,22.61924565139449,-146.55503831814136,0,-36.58510208129883,21.291330337524414,-28.188522338867188
0.2059987634420395,0.07213225215673447,9.742175102233887,0.005970134091604027,0.006910992494323493,0.02875424599693721,2.8799843788146973,2019-07-25 12:03:37:545,18.587207429526146,-140.0357737947519,0,-36.58510208129883,21.291330337524414,-28.188522338867188
0.10541927814483643,-0.3038434386253357,9.816411972045898,0.00969946987785317,0.004513562346020471,0.017033475342714027,2.889983892440796,2019-07-25 12:03:37:555,14.625234656450074,-140.80504655093605,0,-36.58510208129883,21.291330337524414,-28.188522338867188
0.062313780188560486,-0.24157994985580444,9.854727745056152,-0.0014885378710057496,0.008775660907596714,0.021561955031879496,2.899989366531372,2019-07-25 12:03:37:565,10.735045543709289,-141.56002386645338,0,-36.58510208129883,21.291330337524414,-28.188522338867188
-0.02629195712506771,-0.12184246629476547,9.905017852783203,0.007035658601960925,0.0031816564480000235,0.01490242632200023,2.9099810123443604,2019-07-25 12:03:37:575,14.115517909348714,-142.31867530739456,0,-36.58510208129883,21.291330337524414,-28.188522338867188
-0.17237168550491333,-0.054789479821920395,9.833174705505371,0.007035658601960925,0.00557908685637737,0.017299856990451903,2.919994831085205,2019-07-25 12:03:37:585,17.409985180070976,-143.0698729104917,0,-36.58510208129883,21.291330337524414,-28.188522338867188
-0.050239454954862595,-0.15057946741580963,9.854727745056152,0.00010974903269408318,0.010107566025394189,0.013037758949024307,2.929980993270874,2019-07-25 12:03:37:595,20.65027611216928,-143.79102885304326,0,-36.58510208129883,21.291330337524414,-28.188522338867188
0.1006297767162323,-0.14818471670150757,9.739779472351074,0.004904609581247128,0.010107566025394189,0.010373947673132064,2.939986228942871,2019-07-25 12:03:37:605,16.64343122138229,-144.50053059799635,0,-36.58510208129883,21.291330337524414,-28.188522338867188
0.05752428248524666,0.12002725154161453,9.792464256286621,0.01316242505666174,0.007443754749501942,0.01197223443866741,2.9499809741973877,2019-07-25 12:03:37:615,12.713116557563238,-138.03195168927098,0,-36.58510208129883,21.291330337524414,-28.188522338867188
-0.23702992498874664,-0.08831597119569778,9.952912330627441,0.0033063228157117807,0.008509279259858839,0.010906709928310512,2.9599902629852295,2019-07-25 12:03:37:625,16.026786865582455,-138.86300299831598,0,-36.58510208129883,21.291330337524414,-28.188522338867188
-0.10771344602108002,-0.14339521527290344,9.902623176574707,0.002507179432944107,0.010373947673132064,0.013836901811643333,2.9699881076812744,2019-07-25 12:03:37:635,19.28796349143325,-139.6705581092806,0,-36.58510208129883,21.291330337524414,-28.188522338867188
-0.16279268264770508,-0.2966592013835907,9.897833824157715,-0.00042301326312097924,0.005845467983966595,0.02129557442443892,2.9799869060516357,2019-07-25 12:03:37:645,22.480076870725654,-140.4425741976641,0,-36.58510208129883,21.291330337524414,-28.188522338867188
-0.07897645235061646,-0.026052482426166534,9.77091121673584,0.005970134091604027,0.006378230239145044,0.02236109893479582,2.989983558654785,2019-07-25 12:03:37:655,25.617633144319115,-141.23401843085938,0,-37.78461456298828,23.39047622680664,-27.288888931274414
-0.15321369469165802,-0.014078733511269093,9.893043518066406,0.002507179432944107,0.012771377301286432,0.02875424599693721,2.999988079071045,2019-07-25 12:03:37:665,28.680360737682513,-142.00911573165047,0,-37.78461456298828,23.39047622680664,-27.288888931274414
-0.13645043969154358,-0.02365773171186447,9.902623176574707,0.0011752736649608213,0.013304139556464882,0.02635681636878284,3.0099878311157227,2019-07-25 12:03:37:675,31.683494626195614,-142.76685568585071,0,-37.78461456298828,23.39047622680664,-27.288888931274414
0.00962928868830204,-0.07873697578907013,9.873886108398438,-0.0014885378710057496,0.005046324601198921,0.02422576734806904,3.020042657852173,2019-07-25 12:03:37:685,27.44809322253448,-143.50154053775708,0,-37.78461456298828,23.39047622680664,-27.288888931274414
0.01681353710591793,-0.03563148155808449,9.847543716430664,0.0067692774743717005,0.005845467983966595,0.02875424599693721,3.029982805252075,2019-07-25 12:03:37:695,23.29782529659049,-144.23114165591116,0,-37.78461456298828,23.39047622680664,-27.288888931274414
-0.04544995352625847,-0.03802622854709625,9.80922794342041,0.0009088924723530155,0.004779943473609696,0.030885295017651006,3.039987325668335,2019-07-25 12:03:37:705,26.423874212747823,-144.94258718747608,0,-37.78461456298828,23.39047622680664,-27.288888931274414
-0.016712957993149757,-0.002104985062032938,9.86191177368164,0.0003761301846652757,0.009841185417953615,0.03274996343092423,3.049982786178589,2019-07-25 12:03:37:715,29.48793144619328,-145.64370195341047,0,-37.78461456298828,23.39047622680664,-27.288888931274414
-0.031081456691026688,-0.08831597119569778,9.83796501159668,0.0057037529640148014,0.001849750680016738,0.033282724645805374,3.059985876083374,2019-07-25 12:03:37:725,32.493513541229795,-146.32374488037937,0,-37.78461456298828,23.39047622680664,-27.288888931274414
-0.07418695092201233,-0.09789497405290604,9.825990676879883,-0.00042301326312097924,0.0002514638006988733,0.03568015427395975,3.069985866546631,2019-07-25 12:03:37:735,35.43485049151946,-146.9856162422045,0,-37.78461456298828,23.39047622680664,-27.288888931274414
0.012024038471281528,-0.11465822160243988,9.79964828491211,0.001974417047728495,0.005312705728788145,0.03754482476782757,3.079988718032837,2019-07-25 12:03:37:745,31.124575576556634,-147.6336059920863,0,-37.78461456298828,23.39047622680664,-27.288888931274414
0.22994625568389893,0.10565875470638275,9.739779472351074,0.0240840518079686,0.01889814479628455,0.04127416159437402,3.0899899005889893,2019-07-25 12:03:37:755,26.918520400695215,-141.10688922988854,0,-37.78461456298828,23.39047622680664,-27.288888931274414
0.040761034935712814,0.02663201093673706,9.775701522827148,0.020088334373981578,0.010373947673132064,0.04473711573288529,3.100003957748413,2019-07-25 12:03:37:765,22.77909486053315,-134.6991686915866,0,-37.78461456298828,23.39047622680664,-27.288888931274414
0.07907702773809433,0.043395258486270905,9.842754364013672,0.0009088924723530155,0.0015833695524275135,0.0476673086565154,3.1099793910980225,2019-07-25 12:03:37:775,18.731832214867033,-128.41074654671647,0,-37.78461456298828,23.39047622680664,-27.288888931274414
-0.08616069704294205,-0.002104985062032938,9.706253051757812,0.006502896346782475,0.009574803770215738,0.04127416159437402,3.119980812072754,2019-07-25 12:03:37:785,21.941646743839538,-129.44593498855681,0,-36.43516540527344,21.14139175415039,-26.239316940307617
-0.021502457559108734,-0.09071072190999985,9.790069580078125,-0.00042301326312097924,0.0071773736219127166,0.0508638801069915,3.1299967765808105,2019-07-25 12:03:37:795,25.09626045747232,-130.4461611137393,0,-36.43516540527344,21.14139175415039,-26.239316940307617
-0.05981845408678055,-0.12902672588825226,9.806833267211914,-0.011078259114403648,-0.004010634517057691,0.0466017820655639,3.1400046348571777,2019-07-25 12:03:37:805,28.189599362673505,-131.41593684220254,0,-36.43516540527344,21.14139175415039,-26.239316940307617
2.215193748474121,0.6564511656761169,8.252640724182129,0.11385449752717243,0.07297351837823499,-0.009604638456505731,3.149995803833008,2019-07-25 12:03:37:815,24.285374916057886,-125.34245041606924,0,-36.43516540527344,21.14139175415039,-26.239316940307617
-1.9061704874038696,0.15115898847579956,8.808221817016602,0.029678054967193664,0.016234332480095003,0.03061891441021043,3.1600000858306885,2019-07-25 12:03:37:825,27.14632853782665,-119.27193600042786,0,-36.43516540527344,21.14139175415039,-26.239316940307617
1.6644012928009033,0.3834497034549713,10.747969627380371,-0.06941573073778168,-0.030648748056203122,0.09002191054394536,3.170022487640381,2019-07-25 12:03:37:835,23.196704692247714,-113.28829802751767,0,-36.43516540527344,21.14139175415039,-26.239316940307617
-1.587668776512146,0.20863299071788788,9.19138240814209,0.05578340859182957,0.02076281112896317,0.01250499669384586,3.180007219314575,2019-07-25 12:03:37:845,26.125125101421,-107.47981294910045,0,-36.43516540527344,21.14139175415039,-26.239316940307617
0.27544650435447693,-0.2822906970977783,10.007991790771484,-0.059559625375939826,-0.016796929421563446,0.05645788326621656,3.1899874210357666,2019-07-25 12:03:37:855,22.0435660592414,-108.86452652030434,0,-36.43516540527344,21.14139175415039,-26.239316940307617
-0.01910770870745182,-0.3996334373950958,10.213940620422363,0.001974417047728495,0.0007842261046412585,0.0330163440383648,3.200002670288086,2019-07-25 12:03:37:865,25.200110007911093,-110.24353376381546,0,-36.43516540527344,21.14139175415039,-26.239316940307617
-0.1603979468345642,0.021842511370778084,9.727806091308594,0.01902280986362468,0.004513562346020471,0.029020626604377785,3.2100040912628174,2019-07-25 12:03:37:875,28.274680251640607,-104.4519188868565,0,-36.43516540527344,21.14139175415039,-26.239316940307617
-0.09813445061445236,-0.16973745822906494,9.900228500366211,-0.009746352956308874,0.003448037575589248,0.03141805831312676,3.2200047969818115,2019-07-25 12:03:37:885,31.295892106346567,-105.93776298763927,0,-36.43516540527344,21.14139175415039,-26.239316940307617
-0.021502457559108734,-0.19607971608638763,9.9074125289917,-0.008414447318362751,0.004779943473609696,0.02609043368074766,3.230008840560913,2019-07-25 12:03:37:895,34.26480222421194,-107.39160501703019,0,-36.43516540527344,21.14139175415039,-26.239316940307617
-0.1292661875486374,-0.08592122793197632,9.835570335388184,0.004904609581247128,0.006644611366734268,0.02369300405259329,3.240006685256958,2019-07-25 12:03:37:905,37.160716458189405,-108.83651606043387,0,-37.63467788696289,22.340904235839844,-28.038583755493164
-0.004739209543913603,-0.1266319751739502,9.806833267211914,0.0017080359201392707,0.00557908685637737,0.019963669306641448,3.250002145767212,2019-07-25 12:03:37:915,40.013817131041534,-110.24594840598552,0,-37.63467788696289,22.340904235839844,-28.038583755493164
0.004839789122343063,-0.018868232145905495,9.706253051757812,0.0033063228157117807,0.008242898132269616,0.01596795083235713,3.260007858276367,2019-07-25 12:03:37:925,35.609481151512355,-111.6406594225009,0,-37.63467788696289,22.340904235839844,-28.038583755493164
-0.08137120306491852,-0.13621096312999725,9.778096199035645,0.0011752736649608213,0.009308423162775165,0.011705852790929535,3.270002841949463,2019-07-25 12:03:37:935,38.48253164167517,-112.99254400170169,0,-37.63467788696289,22.340904235839844,-28.038583755493164
0.002445039339363575,-0.08113172650337219,9.768516540527344,0.0014416547925500459,0.004779943473609696,0.005046324601198921,3.2800018787384033,2019-07-25 12:03:37:945,34.11048415588389,-114.32398542845581,0,-37.63467788696289,22.340904235839844,-28.038583755493164
-0.12447669357061386,-0.14339521527290344,9.787674903869629,0.000642511344763791,0.004513562346020471,-0.0016132042387175067,3.2900099754333496,2019-07-25 12:03:37:955,37.01116543886871,-115.62107964236775,0,-37.63467788696289,22.340904235839844,-28.038583755493164
-0.13166093826293945,-0.04521048069000244,9.823596000671387,0.00010974903269408318,0.0037144187031784726,-0.0016132042387175067,3.2999989986419678,2019-07-25 12:03:37:965,39.8535015416962,-116.90344587214861,0,-37.63467788696289,22.340904235839844,-28.038583755493164
-0.2130824327468872,-0.2511589527130127,9.859517097473145,-0.008680828445951977,0.0071773736219127166,-0.008805495593886707,3.310006618499756,2019-07-25 12:03:37:975,42.62763685000637,-118.13131450239163,0,-37.63467788696289,22.340904235839844,-28.038583755493164
-0.1867401897907257,-0.1793164610862732,9.900228500366211,-0.0014885378710057496,0.009574803770215738,-0.008006351690970383,3.319993734359741,2019-07-25 12:03:37:985,45.348102862755596,-119.34710051552995,0,-37.63467788696289,22.340904235839844,-28.038583755493164
-0.1484241932630539,-0.2775011956691742,9.972070693969727,-0.0060170171700597306,0.004247180958356922,-0.014133118145671199,3.3300089836120605,2019-07-25 12:03:37:995,48.02169784650218,-120.52489467712972,0,-37.63467788696289,22.340904235839844,-28.038583755493164
-0.13884519040584564,-0.073947474360466,9.802042961120605,0.0038390850708902298,0.011705852790929535,-0.009604638456505731,3.34000301361084,2019-07-25 12:03:38:005,50.63846427173923,-121.70790641369335,0,-37.63467788696289,22.340904235839844,-28.038583755493164
0.10781402885913849,-0.13860571384429932,9.83796501159668,-0.008680828445951977,0.007710135877091167,-0.01360035589049275,3.350001335144043,2019-07-25 12:03:38:015,46.033924041644944,-122.85273125370989,0,-37.63467788696289,22.340904235839844,-28.038583755493164
0.1724722683429718,-0.06915797293186188,9.651174545288086,0.011564138291126394,0.013570521204202757,-0.023722839779180587,3.360004186630249,2019-07-25 12:03:38:025,41.52609957707883,-123.99396051580642,0,-37.63467788696289,22.340904235839844,-28.038583755493164
-0.01910770870745182,-0.07873697578907013,9.78049087524414,0.0009088924723530155,0.001849750680016738,-0.019993502952634138,3.3700037002563477,2019-07-25 12:03:38:035,44.29230028224363,-125.10536672984168,0,-37.484737396240234,21.591209411621094,-26.989011764526367
-0.15560844540596008,-0.14339521527290344,9.916991233825684,-0.007348922808005853,0.0026488941928215744,-0.023989220386621157,3.3800017833709717,2019-07-25 12:03:38:045,46.986988017003135,-126.18256550869654,0,-37.484737396240234,21.591209411621094,-26.989011764526367
-0.23463517427444458,-0.18410596251487732,9.89064884185791,-0.0020213001261841987,0.010107566025394189,-0.023456457091145407,3.3899970054626465,2019-07-25 12:03:38:055,49.61439620580862,-127.23645200866564,0,-37.484737396240234,21.591209411621094,-26.989011764526367
-0.2801354229450226,-0.14818471670150757,9.96967601776123,-0.004418730404524382,0.008242898132269616,-0.01067016296686263,3.400001287460327,2019-07-25 12:03:38:065,52.18528759938085,-128.27220968246814,0,-37.484737396240234,21.591209411621094,-26.989011764526367
-0.1747664362192154,-0.09310547262430191,9.950517654418945,0.0057037529640148014,0.006111849111555819,-0.006141683797845812,3.410004138946533,2019-07-25 12:03:38:075,54.7180247947098,-129.2992472074619,0,-37.484737396240234,21.591209411621094,-26.989011764526367
-0.26337218284606934,-0.13860571384429932,9.816411972045898,0.00010974903269408318,0.006378230239145044,-0.0026787288791115674,3.4199984073638916,2019-07-25 12:03:38:085,57.1893476935073,-130.29714483510682,0,-37.484737396240234,21.591209411621094,-26.989011764526367
-0.24181942641735077,-0.07873697578907013,9.89064884185791,-0.0017549189985949741,0.008509279259858839,0.006378230239145044,3.430007219314575,2019-07-25 12:03:38:095,59.612767328746685,-131.28109353143012,0,-37.484737396240234,21.591209411621094,-26.989011764526367
-0.09334494918584824,-0.054789479821920395,9.873886108398438,0.0009088924723530155,0.012238615046107985,0.00797651700468039,3.43999981880188,2019-07-25 12:03:38:105,62.00281226028921,-132.24962308754482,0,-37.484737396240234,21.591209411621094,-26.989011764526367
-0.10771344602108002,0.04579000920057297,9.818806648254395,0.004904609581247128,0.009841185417953615,0.014636045714559657,3.4499995708465576,2019-07-25 12:03:38:115,64.34466001738349,-126.01272842824262,0,-37.484737396240234,21.591209411621094,-26.989011764526367
-0.07897645235061646,0.04579000920057297,9.811622619628906,0.0075684208571393735,0.006111849111555819,0.012238615046107985,3.4600062370300293,2019-07-25 12:03:38:125,66.64510914343332,-119.9020742024711,0,-37.484737396240234,21.591209411621094,-26.989011764526367
-0.1220819428563118,0.1152377501130104,9.775701522827148,0.0041054661984794545,0.01490242632200023,0.014369664066821781,3.469987154006958,2019-07-25 12:03:38:135,68.8895454369553,-113.91984116910174,0,-37.484737396240234,21.591209411621094,-26.989011764526367
-0.035870954394340515,-0.03563148155808449,9.873886108398438,0.0022407983053548824,0.008242898132269616,0.00904204151503729,3.480004072189331,2019-07-25 12:03:38:145,71.10295533014889,-115.2385694796596,0,-37.484737396240234,21.591209411621094,-26.989011764526367
-0.035870954394340515,-0.04999997839331627,9.931360244750977,0.004638228453657903,0.003980799830767698,0.017033475342714027,3.4900031089782715,2019-07-25 12:03:38:155,73.27452232513463,-116.53063307196832,0,-36.13528823852539,21.14139175415039,-25.939437866210938
-0.028686705976724625,-0.08352647721767426,9.73020076751709,0.003572703943301005,0.004513562346020471,0.023959384660033865,3.5000054836273193,2019-07-25 12:03:38:165,75.40311852405713,-117.7921903708584,0,-36.13528823852539,21.14139175415039,-25.939437866210938
-0.03826570510864258,-0.047605227679014206,9.778096199035645,0.004371847326068679,0.006378230239145044,0.02768872148658031,3.510009288787842,2019-07-25 12:03:38:175,77.48698900790703,-119.03322337150873,0,-36.13528823852539,21.14139175415039,-25.939437866210938
-0.17716118693351746,-0.011683983728289604,9.773306846618652,0.006502896346782475,0.006378230239145044,0.03248358282348365,3.520004987716675,2019-07-25 12:03:38:185,79.51289961013146,-120.25483876015383,0,-36.13528823852539,21.14139175415039,-25.939437866210938
-0.07897645235061646,-0.10507921874523163,9.806833267211914,0.00010974903269408318,0.006111849111555819,0.029020626604377785,3.5300025939941406,2019-07-25 12:03:38:195,81.50998254918002,-121.43752569525456,0,-36.13528823852539,21.14139175415039,-25.939437866210938
-0.15800319612026215,-0.004499734845012426,9.756543159484863,0.000642511344763791,0.0031816564480000235,0.03115167562509158,3.5400054454803467,2019-07-25 12:03:38:205,83.45943988430486,-122.60860755522225,0,-36.13528823852539,21.14139175415039,-25.939437866210938
-0.17955593764781952,-0.009289233945310116,9.725411415100098,0.0022407983053548824,0.005845467983966595,0.03940949110050619,3.550006151199341,2019-07-25 12:03:38:215,85.36581450706008,-123.75659917631565,0,-36.13528823852539,21.14139175415039,-25.939437866210938
-0.10531869530677795,0.009868763387203217,9.86670207977295,-0.001222156743416525,0.0031816564480000235,0.0383439686707439,3.5600056648254395,2019-07-25 12:03:38:225,87.24448059333076,-117.6819271414255,0,-36.13528823852539,21.14139175415039,-25.939437866210938
-0.12447669357061386,-0.04281572997570038,9.871491432189941,0.00010974903269408318,0.001849750680016738,0.037811203294673544,3.5700035095214844,2019-07-25 12:03:38:235,89.08410366960874,-118.92338004793369,0,-36.13528823852539,21.14139175415039,-25.939437866210938
-0.1867401897907257,0.01944776251912117,9.818806648254395,-0.003619587021756709,-0.004543397032310465,0.03568015427395975,3.5800044536590576,2019-07-25 12:03:38:245,90.88318183789863,-112.94514953335201,0,-36.13528823852539,21.14139175415039,-25.939437866210938
-0.1148976981639862,-0.06676322966814041,9.80922794342041,-0.004418730404524382,0.005046324601198921,0.0340818685487217,3.590001106262207,2019-07-25 12:03:38:255,92.64926389139909,-114.2759670912733,0,-36.13528823852539,21.14139175415039,-25.939437866210938
-0.20589818060398102,-0.05718422681093216,9.916991233825684,0.0003761301846652757,-0.0034778722618792413,0.02529129185842594,3.6000068187713623,2019-07-25 12:03:38:265,94.37444428202589,-115.58405146068276,0,-36.13528823852539,21.14139175415039,-25.939437866210938
-0.02629195712506771,-0.18650071322917938,9.893043518066406,-0.007881685063184303,-0.0029451100067007917,0.029020626604377785,3.6099979877471924,2019-07-25 12:03:38:275,96.08556220947186,-116.84634888298146,0,-36.13528823852539,21.14139175415039,-25.939437866210938
-0.07897645235061646,-0.05239472910761833,9.677515983581543,0.001974417047728495,0.004247180958356922,0.016767094735273453,3.6200051307678223,2019-07-25 12:03:38:285,97.75211307383776,-118.10432732545402,0,-35.83540725708008,22.340904235839844,-28.038583755493164
0.09105078130960464,-0.018868232145905495,9.737384796142578,-0.00042301326312097924,0.001050607232230483,0.021561955031879496,3.629986524581909,2019-07-25 12:03:38:295,92.20719672750006,-119.3397832496902,0,-35.83540725708008,22.340904235839844,-28.038583755493164
0.05752428248524666,-0.04521048069000244,9.68949031829834,0.0027735605605333316,0.005845467983966595,0.011173090535751088,3.640005588531494,2019-07-25 12:03:38:305,86.76656727162846,-120.54920118131227,0,-35.83540725708008,22.340904235839844,-28.038583755493164
-0.07179220020771027,-0.2822906970977783,9.842754364013672,-0.00894721009368985,-0.006141683797845812,0.009841185417953615,3.6500039100646973,2019-07-25 12:03:38:315,88.62632583333914,-121.7003382435809,0,-35.83540725708008,22.340904235839844,-28.038583755493164
0.026392536237835884,-0.14100046455860138,9.77091121673584,-0.0017549189985949741,-0.0026787288791115674,0.002116131807605963,3.6599831581115723,2019-07-25 12:03:38:325,83.25839556152064,-122.84881299572467,0,-35.83540725708008,22.340904235839844,-28.038583755493164
-0.32324090600013733,-0.2559484541416168,9.842754364013672,-0.012942926487379568,-0.0008140607909312516,0.001849750680016738,3.6700031757354736,2019-07-25 12:03:38:335,85.156066746452,-123.95476337181299,0,-35.83540725708008,22.340904235839844,-28.038583755493164
-0.2011086791753769,-0.09789497405290604,9.881070137023926,-0.008148066190773526,0.001849750680016738,-0.005342540415078138,3.6799871921539307,2019-07-25 12:03:38:345,87.02858892471822,-125.05974770214513,0,-35.83540725708008,22.340904235839844,-28.038583755493164
-0.23224042356014252,-0.2822906970977783,9.967281341552734,-0.011078259114403648,-0.00480977815989969,-0.006940827180613486,3.6900100708007812,2019-07-25 12:03:38:355,88.86402868768677,-126.11987244518934,0,-35.83540725708008,22.340904235839844,-28.038583755493164
-0.2849249243736267,-0.061973728239536285,9.859517097473145,-0.005217873787292057,-0.002412347751522343,-0.009071876201327283,3.6999917030334473,2019-07-25 12:03:38:365,90.65499416645517,-127.18734778963464,0,-35.83540725708008,22.340904235839844,-28.038583755493164
-0.24421417713165283,-0.15776371955871582,10.036728858947754,-0.008414447318362751,0.0026488941928215744,-0.016796929421563446,3.710009813308716,2019-07-25 12:03:38:375,92.4125272655003,-128.22085682609827,0,-35.83540725708008,22.340904235839844,-28.038583755493164
-0.2657669186592102,-0.07873697578907013,9.92896556854248,-0.0025540625113998103,0.001316988424838289,-0.025321125504418632,3.7199888229370117,2019-07-25 12:03:38:385,94.13287358119815,-129.2459216448509,0,-35.83540725708008,22.340904235839844,-28.038583755493164
-0.26337218284606934,-0.10507921874523163,9.955307006835938,-0.005750636042470505,0.003448037575589248,-0.029050462330965077,3.730008125305176,2019-07-25 12:03:38:395,95.81796765463717,-130.24567320531926,0,-35.83540725708008,22.340904235839844,-28.038583755493164
-0.13884519040584564,-0.11705297231674194,9.857122421264648,0.004371847326068679,0.001316988424838289,-0.0298496062338814,3.7400026321411133,2019-07-25 12:03:38:405,97.48472918087367,-131.22960611246026,0,-36.58510208129883,22.190963745117188,-26.689132690429688
-0.13884519040584564,-0.04281572997570038,9.792464256286621,0.0009088924723530155,0.0031816564480000235,-0.03704189511834451,3.750004768371582,2019-07-25 12:03:38:415,99.11700112416409,-132.2005141701019,0,-36.58510208129883,22.190963745117188,-26.689132690429688
0.05991903319954872,-0.1338162124156952,9.790069580078125,0.007302039729550149,0.006111849111555819,-0.03837380023614198,3.7600033283233643,2019-07-25 12:03:38:425,93.53824316240616,-133.1449413340683,0,-36.58510208129883,22.190963745117188,-26.689132690429688
0.04555053263902664,-0.061973728239536285,9.754148483276367,0.0030399416881225563,0.003448037575589248,-0.047164379007032346,3.770003318786621,2019-07-25 12:03:38:435,88.07089346199093,-134.0764688645212,0,-36.58510208129883,22.190963745117188,-26.689132690429688
-0.04544995352625847,-0.2511589527130127,9.89064884185791,0.0009088924723530155,0.005312705728788145,-0.05302476485429259,3.7800140380859375,2019-07-25 12:03:38:445,89.90122359237033,-134.96635773264933,0,-36.58510208129883,22.190963745117188,-26.689132690429688
-0.09334494918584824,-0.10507921874523163,9.818806648254395,0.0014416547925500459,0.0015833695524275135,-0.055155813875006385,3.790001392364502,2019-07-25 12:03:38:455,91.69141757903046,-135.85557611360454,0,-36.58510208129883,22.190963745117188,-26.689132690429688
-0.14363469183444977,-0.20086920261383057,9.864306449890137,-0.007082541680416628,0.0015833695524275135,-0.055155813875006385,3.799994707107544,2019-07-25 12:03:38:465,93.44001620310092,-136.71115908706557,0,-36.58510208129883,22.190963745117188,-26.689132690429688
0.021603036671876907,-0.16255322098731995,9.778096199035645,-0.0014885378710057496,0.0031816564480000235,-0.05835238948667168,3.810002326965332,2019-07-25 12:03:38:475,87.97195972302084,-137.55705125836977,0,-36.58510208129883,22.190963745117188,-26.689132690429688
-0.021502457559108734,0.012263513170182705,9.749359130859375,-0.00042301326312097924,0.008775660907596714,-0.05995067313131512,3.820000648498535,2019-07-25 12:03:38:485,89.80506649232049,-131.20711417398348,0,-36.58510208129883,22.190963745117188,-26.689132690429688
0.026392536237835884,-0.040420979261398315,9.916991233825684,-0.00042301326312097924,0.0007842261046412585,-0.058885150701552834,3.830235719680786,2019-07-25 12:03:38:495,84.41156413908011,-132.1780581378368,0,-36.58510208129883,22.190963745117188,-26.689132690429688
0.014418788254261017,-0.08592122793197632,9.766121864318848,-0.004418730404524382,0.005845467983966595,-0.06128258241030181,3.8399789333343506,2019-07-25 12:03:38:505,79.12182675559889,-133.1219982007613,0,-36.58510208129883,22.190963745117188,-26.689132690429688
0.08147177845239639,-0.07634222507476807,9.711043357849121,0.0014416547925500459,0.008242898132269616,-0.05995067313131512,3.8499741554260254,2019-07-25 12:03:38:515,73.94437760476062,-134.0513590421346,0,-36.58510208129883,22.190963745117188,-26.689132690429688
0.019208287820219994,-0.073947474360466,9.794858932495117,-0.007082541680416628,-0.0013468231111282822,-0.06128258241030181,3.8599801063537598,2019-07-25 12:03:38:525,68.86849394625519,-134.95770159294722,0,-36.58510208129883,22.190963745117188,-26.689132690429688
-0.1148976981639862,-0.10747396945953369,9.766121864318848,-0.003619587021756709,0.0015833695524275135,-0.056221340465957885,3.8700790405273438,2019-07-25 12:03:38:535,71.07674522181732,-135.8438850268792,0,-37.33479690551758,22.340904235839844,-27.738706588745117
0.04315578565001488,-0.14339521527290344,9.814017295837402,-0.0076153039355950775,0.001316988424838289,-0.05755324558375536,3.880032539367676,2019-07-25 12:03:38:545,66.0595132419412,-136.70600914143668,0,-37.33479690551758,22.340904235839844,-27.738706588745117
0.11020877212285995,-0.11705297231674194,9.766121864318848,-0.0020213001261841987,0.0007842261046412585,-0.05302476485429259,3.8901450634002686,2019-07-25 12:03:38:555,61.15080856438277,-137.5570073853885,0,-37.33479690551758,22.340904235839844,-27.738706588745117
-0.009528708644211292,-0.026052482426166534,9.802042961120605,-0.007082541680416628,-0.0010804419185204762,-0.050627333145543615,3.8999922275543213,2019-07-25 12:03:38:565,63.52727582684609,-138.39890550159183,0,-37.33479690551758,22.340904235839844,-27.738706588745117
0.03836628422141075,-0.08113172650337219,9.885859489440918,-0.003619587021756709,0.001316988424838289,-0.047164379007032346,3.910092830657959,2019-07-25 12:03:38:575,58.66043057434243,-139.21947041020354,0,-37.33479690551758,22.340904235839844,-27.738706588745117
0.05752428248524666,-0.1266319751739502,9.80922794342041,-0.003619587021756709,-1.491734416091191e-05,-0.047164379007032346,3.9200220108032227,2019-07-25 12:03:38:585,53.89395019852949,-140.0182706561304,0,-37.33479690551758,22.340904235839844,-27.738706588745117
0.033576786518096924,-0.014078733511269093,9.825990676879883,-0.002287681383810586,0.003980799830767698,-0.03970570951512866,3.930039167404175,2019-07-25 12:03:38:595,49.21774788484883,-140.81497663616716,0,-37.33479690551758,22.340904235839844,-27.738706588745117
0.002445039339363575,-0.014078733511269093,9.773306846618652,0.0022407983053548824,0.002915275320410799,-0.036509133903463366,3.9400086402893066,2019-07-25 12:03:38:605,44.63204768077686,-141.59828074402367,0,-37.33479690551758,22.340904235839844,-27.738706588745117
-0.004739209543913603,-0.04521048069000244,9.82120132446289,-0.000955775550808719,0.006111849111555819,-0.039172944139058315,3.950108528137207,2019-07-25 12:03:38:615,47.33538769251713,-142.3604980823015,0,-37.33479690551758,22.340904235839844,-27.738706588745117
-0.01192345842719078,-0.05718422681093216,9.888254165649414,-0.006283398297648954,0.0026488941928215744,-0.032247035862035776,3.9600212574005127,2019-07-25 12:03:38:625,49.98582380069285,-143.10316398274364,0,-37.33479690551758,22.340904235839844,-27.738706588745117
-0.04066045582294464,-0.04521048069000244,9.816411972045898,-0.00042301326312097924,0.0015833695524275135,-0.02105902746299104,3.9701247215270996,2019-07-25 12:03:38:635,52.58046260859263,-143.835583131095,0,-37.33479690551758,22.340904235839844,-27.738706588745117
-0.04066045582294464,-0.014078733511269093,9.883464813232422,-0.0076153039355950775,0.004513562346020471,-0.022124551973347936,3.9799890518188477,2019-07-25 12:03:38:645,55.12163912446903,-144.5530211725459,0,-37.33479690551758,22.340904235839844,-27.738706588745117
-0.035870954394340515,-0.03802622854709625,9.79964828491211,-0.004152349276935158,0.007710135877091167,-0.015198642656028098,3.9901123046875,2019-07-25 12:03:38:655,57.61062922384111,-145.2551539234045,0,-36.735042572021484,21.14139175415039,-26.83907127380371
-0.06221320107579231,-0.028447231277823448,9.794858932495117,-0.002287681383810586,0.004513562346020471,-0.009071876201327283,3.9999916553497314,2019-07-25 12:03:38:665,60.0486345370533,-145.94545373680018,0,-36.735042572021484,21.14139175415039,-26.83907127380371
5.028974192100577e-05,-0.01647348329424858,9.845149040222168,-0.00015663211927710938,0.002915275320410799,-0.00480977815989969,4.010100603103638,2019-07-25 12:03:38:675,55.246012942697774,-146.62453834348543,0,-36.735042572021484,21.14139175415039,-26.83907127380371
-0.04784470424056053,-0.02365773171186447,9.854727745056152,-0.006549779425238179,0.002915275320410799,0.005046324601198921,4.020017623901367,2019-07-25 12:03:38:685,57.733905967175716,-147.28564946697873,0,-36.735042572021484,21.14139175415039,-26.83907127380371
0.014418788254261017,-0.01647348329424858,9.816411972045898,-0.004152349276935158,0.005312705728788145,0.004513562346020471,4.030185699462891,2019-07-25 12:03:38:695,52.97787780380609,-147.93564272691265,0,-36.735042572021484,21.14139175415039,-26.83907127380371
0.01681353710591793,-0.018868232145905495,9.80922794342041,-0.001222156743416525,0.005312705728788145,0.013570521204202757,4.040072202682495,2019-07-25 12:03:38:705,48.31733518584921,-148.57404723441803,0,-36.735042572021484,21.14139175415039,-26.83907127380371
-0.016712957993149757,-0.0068944841623306274,9.895438194274902,-0.00042301326312097924,0.005312705728788145,0.016767094735273453,4.050008058547974,2019-07-25 12:03:38:715,50.94608914081191,-149.2015318941663,0,-36.735042572021484,21.14139175415039,-26.83907127380371
-0.08616069704294205,-0.021262982860207558,9.818806648254395,-0.00042301326312097924,0.004513562346020471,0.02236109893479582,4.06011700630188,2019-07-25 12:03:38:725,53.5145501583455,-149.81477962916622,0,-36.735042572021484,21.14139175415039,-26.83907127380371
-0.016712957993149757,-0.047605227679014206,9.768516540527344,0.0003761301846652757,0.006644611366734268,0.03061891441021043,4.070020437240601,2019-07-25 12:03:38:735,56.03860369885014,-150.41310881035474,0,-36.735042572021484,21.14139175415039,-26.83907127380371
-0.050239454954862595,-0.09789497405290604,9.715832710266113,0.0033063228157117807,0.001849750680016738,0.038610347197589864,4.080142259597778,2019-07-25 12:03:38:745,58.51085499443403,-150.99518009854108,0,-36.735042572021484,21.14139175415039,-26.83907127380371
-0.1292661875486374,-0.033236730843782425,9.734990119934082,0.0014416547925500459,0.007443754749501942,0.0466017820655639,4.08998966217041,2019-07-25 12:03:38:755,60.921306856652365,-151.57216131701037,0,-36.735042572021484,21.14139175415039,-26.83907127380371
0.09584027528762817,-0.2056587040424347,9.82120132446289,-0.006549779425238179,0.008242898132269616,0.03701206355294642,4.100108861923218,2019-07-25 12:03:38:765,56.1093792452388,-152.11300427373385,0,-36.735042572021484,21.14139175415039,-26.83907127380371
0.27544650435447693,-0.3230014443397522,9.814017295837402,-0.011611021369582097,0.005312705728788145,0.019164525403725124,4.110021591186523,2019-07-25 12:03:38:775,51.41638817773162,-152.6265804545813,0,-36.735042572021484,21.14139175415039,-26.83907127380371
0.3233414888381958,-0.061973728239536285,9.885859489440918,-0.011078259114403648,0.0037144187031784726,-0.0032114911342900165,4.120126247406006,2019-07-25 12:03:38:785,46.823419593048854,-153.16057975072374,0,-36.735042572021484,22.64078140258789,-26.83907127380371
0.34489426016807556,0.11284299939870834,9.900228500366211,-0.007348922808005853,-0.002145966493895956,-0.01812883453936092,4.12999963760376,2019-07-25 12:03:38:795,42.328045026372735,-146.5063545928437,0,-36.735042572021484,22.64078140258789,-26.83907127380371
0.17726176977157593,0.20384348928928375,9.854727745056152,0.0057037529640148014,0.005312705728788145,-0.01892797844227724,4.1401145458221436,2019-07-25 12:03:38:805,37.89907668797195,-140.00316665517283,0,-36.735042572021484,22.64078140258789,-26.83907127380371
0.17007751762866974,-0.13621096312999725,10.05109691619873,0.011297756643388519,0.004247180958356922,-0.022657315268823686,4.150017976760864,2019-07-25 12:03:38:815,33.55812191627169,-140.79385741053076,0,-36.735042572021484,22.64078140258789,-26.83907127380371
-0.023897206410765648,-0.27989596128463745,9.766121864318848,-0.012942926487379568,0.007443754749501942,-0.010936544614600505,4.160149812698364,2019-07-25 12:03:38:825,36.479920724954795,-141.5377841905694,0,-36.735042572021484,22.64078140258789,-26.83907127380371
0.028787286952137947,-0.4523179233074188,9.9888334274292,-0.011344639721844222,-0.009871020104243606,0.005046324601198921,4.170001745223999,2019-07-25 12:03:38:835,32.159085266135115,-142.24889848982536,0,-36.735042572021484,22.64078140258789,-26.83907127380371
-0.09334494918584824,-0.23918519914150238,9.802042961120605,0.008367564239907048,0.010640328280572637,0.02262747954223639,4.180155038833618,2019-07-25 12:03:38:845,35.0989252099348,-142.98073433196288,0,-36.735042572021484,22.64078140258789,-26.83907127380371
-0.08616069704294205,-0.23918519914150238,9.96967601776123,0.00969946987785317,0.00797651700468039,0.021561955031879496,4.190013647079468,2019-07-25 12:03:38:855,37.98262815601572,-143.69900218045845,0,-36.735042572021484,22.64078140258789,-26.83907127380371
0.00962928868830204,-0.16255322098731995,9.91938591003418,-0.0006893944232194946,0.009841185417953615,0.037811203294673544,4.200003385543823,2019-07-25 12:03:38:865,33.61856785339384,-144.4058585116848,0,-36.735042572021484,22.64078140258789,-26.83907127380371
0.03118203580379486,-0.11465822160243988,9.876280784606934,0.015027093469934963,0.010906709928310512,0.035147393059078595,4.210139274597168,2019-07-25 12:03:38:875,29.343607120871958,-145.11299083696665,0,-36.735042572021484,22.64078140258789,-26.83907127380371
-0.04544995352625847,-0.018868232145905495,9.825990676879883,0.01769090474582721,0.015435188577178679,0.028487865389496634,4.219997406005859,2019-07-25 12:03:38:885,32.3428907209108,-145.8183230881928,0,-36.735042572021484,22.64078140258789,-26.83907127380371
0.10781402885913849,-0.07634222507476807,9.916991233825684,-0.007348922808005853,0.011173090535751088,0.03061891441021043,4.230108976364136,2019-07-25 12:03:38:895,28.10214673485167,-146.48896295207226,0,-36.735042572021484,22.64078140258789,-26.83907127380371
0.1341562718153,-0.08831597119569778,9.814017295837402,0.002507179432944107,0.01250499669384586,0.024492147955509615,4.240020751953125,2019-07-25 12:03:38:905,23.94880774214782,-147.1502672780394,0,-35.235652923583984,21.741147994995117,-27.738706588745117
0.1269720196723938,-0.119447723031044,9.749359130859375,0.00010974903269408318,0.011439472183488963,0.02076281112896317,4.250121593475342,2019-07-25 12:03:38:915,19.87826670009637,-147.79328528994137,0,-35.235652923583984,21.741147994995117,-27.738706588745117
0.2898150086402893,-0.13860571384429932,9.845149040222168,-0.00308682476657826,0.006644611366734268,0.03035253380276986,4.2600181102752686,2019-07-25 12:03:38:925,15.910732003997023,-148.41957247440934,0,-35.235652923583984,21.741147994995117,-27.738706588745117
0.4550527334213257,0.09368500113487244,9.188987731933594,0.0587136015154597,0.025024909170390765,0.004513562346020471,4.270161390304565,2019-07-25 12:03:38:935,12.034965755018039,-141.8963036048578,0,-35.235652923583984,21.741147994995117,-27.738706588745117
0.007234538905322552,0.01944776251912117,9.40930461883545,0.03607120202933505,0.017832620285927653,0.010373947673132064,4.27999210357666,2019-07-25 12:03:38:945,8.185304015340973,-135.48065704091673,0,-35.235652923583984,21.741147994995117,-27.738706588745117
0.4933687150478363,-0.15776371955871582,9.979254722595215,-0.011078259114403648,-0.0032114911342900165,0.03274996343092423,4.290102481842041,2019-07-25 12:03:38:955,4.480028415252166,-136.34664034902622,0,-35.235652923583984,21.741147994995117,-27.738706588745117
-0.08137120306491852,-0.2559484541416168,9.675121307373047,0.023284907905052273,0.010640328280572637,0.012771377301286432,4.300008773803711,2019-07-25 12:03:38:965,7.97487197376759,-137.20235215469012,0,-35.235652923583984,21.741147994995117,-27.738706588745117
0.2514989972114563,-0.17692171037197113,9.84993839263916,-0.010012734604046749,-0.0005476796633420271,0.03381548794128113,4.310148477554321,2019-07-25 12:03:38:975,4.244938719362229,-138.03202404399778,0,-35.235652923583984,21.741147994995117,-27.738706588745117
0.07668227702379227,-0.047605227679014206,9.893043518066406,0.008367564239907048,0.005845467983966595,0.02422576734806904,4.319995880126953,2019-07-25 12:03:38:985,0.565689772590356,-138.8704961511037,0,-35.235652923583984,21.741147994995117,-27.738706588745117
-0.0693974494934082,-0.04281572997570038,9.871491432189941,-0.0014885378710057496,0.001849750680016738,0.0183653815008088,4.32999324798584,2019-07-25 12:03:38:995,4.14528186376093,-139.68728047477614,0,-35.235652923583984,21.741147994995117,-27.738706588745117
-0.021502457559108734,-0.018868232145905495,9.835570335388184,0.0003761301846652757,0.009308423162775165,0.016767094735273453,4.339995861053467,2019-07-25 12:03:39:005,7.654643004836117,-140.49154783326256,0,-35.235652923583984,21.741147994995117,-27.738706588745117
-0.10771344602108002,-0.009289233945310116,9.86670207977295,-0.00015663211927710938,0.0023825130652323496,0.01250499669384586,4.349997043609619,2019-07-25 12:03:39:015,11.087702900820316,-141.28055006916603,0,-35.235652923583984,21.741147994995117,-27.738706588745117
-0.03826570510864258,0.036211010068655014,9.814017295837402,-0.00015663211927710938,0.006378230239145044,0.009308423162775165,4.360040187835693,2019-07-25 12:03:39:025,14.457884021982322,-134.85907883208753,0,-35.235652923583984,21.741147994995117,-27.738706588745117
-0.11250294744968414,0.029026761651039124,9.711043357849121,0.004638228453657903,0.009308423162775165,0.0071773736219127166,4.3700315952301025,2019-07-25 12:03:39:035,17.750229267229443,-128.56792456154767,0,-35.235652923583984,22.340904235839844,-27.13895034790039
-0.031081456691026688,-0.028447231277823448,9.87867546081543,-0.007348922808005853,0.003980799830767698,0.002116131807605963,4.380000352859497,2019-07-25 12:03:39:045,20.989391048319536,-129.5891527133311,0,-35.235652923583984,22.340904235839844,-27.13895034790039
-0.04066045582294464,-0.04999997839331627,9.86191177368164,0.00010974903269408318,0.0023825130652323496,0.0026488941928215744,4.390024662017822,2019-07-25 12:03:39:055,24.163537638261015,-130.5916216805784,0,-35.235652923583984,22.340904235839844,-27.13895034790039
-0.01910770870745182,-0.03084198199212551,9.782885551452637,0.0011752736649608213,0.008242898132269616,-0.0002812985032435118,4.4000349044799805,2019-07-25 12:03:39:065,27.27339559549201,-131.5768371823936,0,-35.235652923583984,22.340904235839844,-27.13895034790039
0.00962928868830204,-0.06915797293186188,9.84993839263916,0.002507179432944107,0.005845467983966595,0.0031816564480000235,4.4100189208984375,2019-07-25 12:03:39:075,23.125770952864965,-132.5386604443372,0,-35.235652923583984,22.340904235839844,-27.13895034790039
-0.023897206410765648,-0.11226347088813782,9.854727745056152,-0.001222156743416525,0.004513562346020471,-0.0032114911342900165,4.420008897781372,2019-07-25 12:03:39:085,26.257944934164264,-133.4741481627787,0,-35.235652923583984,22.340904235839844,-27.13895034790039
-0.05502895265817642,-0.07873697578907013,9.790069580078125,-0.004152349276935158,0.003448037575589248,-0.0026787288791115674,4.430023908615112,2019-07-25 12:03:39:095,29.32440605755307,-134.39311429384813,0,-35.235652923583984,22.340904235839844,-27.13895034790039
-0.06221320107579231,-0.1002897247672081,9.830780029296875,-0.004152349276935158,0.0015833695524275135,-0.005076159287488914,4.440028190612793,2019-07-25 12:03:39:105,32.32977676963286,-135.29122969959857,0,-35.235652923583984,22.340904235839844,-27.13895034790039
-0.04544995352625847,-0.06436847895383835,9.785280227661133,-0.005217873787292057,0.003980799830767698,-0.006141683797845812,4.4500815868377686,2019-07-25 12:03:39:115,35.2756116587522,-136.1749218023111,0,-35.235652923583984,22.340904235839844,-27.13895034790039
-0.03826570510864258,-0.073947474360466,9.864306449890137,-0.0014885378710057496,0.00557908685637737,-0.005875302670256588,4.459997177124023,2019-07-25 12:03:39:125,38.16254799487725,-137.04200444875744,0,-35.235652923583984,22.340904235839844,-27.13895034790039
-0.09334494918584824,-0.04521048069000244,9.828385353088379,-0.0025540625113998103,0.009308423162775165,-0.012801211987576427,4.470069169998169,2019-07-25 12:03:39:135,40.98314975006503,-137.8944487688232,0,-35.235652923583984,22.340904235839844,-27.13895034790039
-0.050239454954862595,-0.061973728239536285,9.912201881408691,-0.0028204436389890346,0.003980799830767698,-0.012268449732397976,4.479987621307373,2019-07-25 12:03:39:145,43.755461808275,-138.7278245564883,0,-35.235652923583984,22.340904235839844,-27.13895034790039
-0.04544995352625847,-0.054789479821920395,9.840359687805176,0.0003761301846652757,0.001316988424838289,-0.010936544614600505,4.489997148513794,2019-07-25 12:03:39:155,46.47431974457525,-139.54709926239894,0,-34.485958099365234,22.490842819213867,-27.58876609802246
-0.06460795551538467,-0.11465822160243988,9.80922794342041,-0.003619587021756709,0.003448037575589248,-0.01599778551864712,4.499988794326782,2019-07-25 12:03:39:165,49.13535149605971,-140.34073279989246,0,-34.485958099365234,22.490842819213867,-27.58876609802246
-0.04544995352625847,-0.10747396945953369,9.797253608703613,-0.0020213001261841987,0.007710135877091167,-0.01653054777382557,4.5099937915802,2019-07-25 12:03:39:175,51.74299714983592,-141.1202126521622,0,-34.485958099365234,22.490842819213867,-27.58876609802246
-0.06221320107579231,-0.1002897247672081,9.792464256286621,-0.00042301326312097924,0.005845467983966595,-0.017329691676741896,4.519983291625977,2019-07-25 12:03:39:185,54.29757833095588,-141.8858356192739,0,-34.485958099365234,22.490842819213867,-27.58876609802246
