ACCELEROMETER X (m/s²),ACCELEROMETER Y (m/s²),ACCELEROMETER Z (m/s²),GYROSCOPE X (rad/s),GYROSCOPE Y (rad/s),GYROSCOPE Z (rad/s),Time since start in ms ,YYYY-MO-DD HH-MI-SS_SSS,Pitch (Deg),Roll (Deg),Heading (Deg),MagX,MagY,MagZ
-1.8779124021530151,0.919349193572998,10.295345306396484,-0.0726128348204758,-0.08714952486072677,1.2865807126263866,0.0,2019-07-26 14:15:51:074,3.393253295523182,3.4979432305252462,0,-38.08449172973633,15.593650817871094,-19.19218635559082
-1.2169615030288696,3.352414846420288,9.574525833129883,-0.0683507367790482,0.023398654011923082,1.3257387680304757,0.01000356674194336,2019-07-26 14:15:51:084,6.767371493694556,6.680434088332733,0,-18.592430114746094,11.69523811340332,-13.19462776184082
-4.639058589935303,2.8016223907470703,8.78186321258545,0.12957045194286732,-0.0397336768677637,1.14140301317457,0.01999354362487793,2019-07-26 14:15:51:094,9.697403012978342,9.720266401174822,0,-18.592430114746094,11.69523811340332,-13.19462776184082
-1.607305645942688,2.4376204013824463,8.652546882629395,-0.04624110266899391,-0.03520520029949013,1.2407631566004453,0.02999138832092285,2019-07-26 14:15:51:104,12.912750947269984,12.83714494276556,0,-18.592430114746094,11.69523811340332,-13.19462776184082
-3.685948371887207,1.271377444267273,9.533814430236816,0.021952470155036784,0.07960507245339812,1.1621807296832594,0.04001164436340332,2019-07-26 14:15:51:114,15.786958837601677,16.016134048973143,0,-18.592430114746094,11.69523811340332,-13.19462776184082
-0.9008545279502869,1.3719569444656372,10.400713920593262,-0.04650748535702908,0.057761821031378995,1.188286099952652,0.049991607666015625,2019-07-26 14:15:51:124,18.9398454390698,19.171583028072572,0,-18.592430114746094,11.69523811340332,-13.19462776184082
-3.776948928833008,1.0486656427383423,10.520451545715332,0.06350792813955042,0.01700550590948439,1.1054415500269033,0.06000375747680664,2019-07-26 14:15:51:134,21.75651529314969,22.23860103617035,0,-18.592430114746094,11.69523811340332,-13.19462776184082
-2.205993175506592,1.283351182937622,9.119523048400879,0.11225567708912178,0.10864061900166415,1.056693784432575,0.06999063491821289,2019-07-26 14:15:51:144,24.58849334915793,25.170672597351153,0,-18.592430114746094,11.69523811340332,-13.19462776184082
-2.651416540145874,1.063034176826477,11.49511432647705,-0.015607271435787131,-0.12923773989893236,1.0724102298685958,0.07998180389404297,2019-07-26 14:15:51:154,27.50945712496923,28.170344530351766,0,-18.592430114746094,11.69523811340332,-13.19462776184082
-3.3650519847869873,0.9480862021446228,8.947100639343262,-0.10457857429237194,-0.018156806053185155,1.0479032223064415,0.09000277519226074,2019-07-26 14:15:51:164,30.15725345557826,31.14480516647407,0,-18.592430114746094,11.69523811340332,-13.19462776184082
-5.419747352600098,0.14823979139328003,10.963479995727539,-0.08140341359136616,-0.08022360826132582,1.0132736725989504,0.10000205039978027,2019-07-26 14:15:51:174,32.673044894495256,34.15212040617204,0,-18.592430114746094,11.69523811340332,-13.19462776184082
-2.2419142723083496,1.1133239269256592,11.073638916015625,0.029144761120094502,0.034853043018408386,0.9978235432719375,0.10999298095703125,2019-07-26 14:15:51:184,35.371129349199535,36.93790561979655,0,-18.592430114746094,11.69523811340332,-13.19462776184082
-2.2347302436828613,1.625800371170044,10.158843994140625,-0.0017554517608501525,-0.03120948078490851,0.9573335744276725,0.11999106407165527,2019-07-26 14:15:51:194,38.03310229275425,39.61828508361966,0,-18.592430114746094,11.69523811340332,-13.19462776184082
-2.938786506652832,1.13008713722229,8.90160083770752,0.01822313332849034,-0.09753838311507139,0.9085858754123716,0.12999200820922852,2019-07-26 14:15:51:204,40.56180922737031,42.27098253430895,0,-27.58876609802246,0.8996337056159973,-32.086936950683594
0.6844697594642639,0.8618751764297485,9.25123405456543,-0.0009563083130638975,-0.07143303781281388,0.9096514061645122,0.13999605178833008,2019-07-26 14:15:51:214,36.27532731579568,44.91965009211656,0,-27.58876609802246,0.8996337056159973,-32.086936950683594
0.49288979172706604,0.6128212213516235,10.903611183166504,-0.0758094104321411,-0.12231183162190983,1.0340513891076395,0.15000486373901367,2019-07-26 14:15:51:224,32.07032425355906,47.59952468846187,0,-27.58876609802246,0.8996337056159973,-32.086936950683594
4.346042156219482,-0.3690261244773865,9.509866714477539,-0.043310909745363786,0.031922850094778264,1.0606894581740756,0.15999460220336914,2019-07-26 14:15:51:234,28.302222835011587,43.11627269939336,0,-27.58876609802246,0.8996337056159973,-32.086936950683594
2.1668198108673096,-1.1736620664596558,9.246444702148438,0.07762612738163067,0.03378751850805149,1.0633532850544272,0.16999292373657227,2019-07-26 14:15:51:244,24.38098504736023,38.75504631802537,0,-27.58876609802246,0.8996337056159973,-32.086936950683594
3.285167932510376,0.018923312425613403,9.888237953186035,0.15168009021411083,-0.02268528470205332,1.1669756180678925,0.1799938678741455,2019-07-26 14:15:51:254,20.67366486918866,41.49257622819021,0,-27.58876609802246,0.8996337056159973,-32.086936950683594
7.5861382484436035,1.9562758207321167,9.406892776489258,0.08455203565865321,-0.23632295631069253,1.2274440221986866,0.18999576568603516,2019-07-26 14:15:51:264,17.57059685954134,43.98028195695433,0,-27.58876609802246,0.8996337056159973,-32.086936950683594
-4.014029026031494,0.4715310037136078,5.503450870513916,0.29898886781496553,-0.10979192018566221,1.1342107471766476,0.20000410079956055,2019-07-26 14:15:51:274,20.15876965108345,46.434712661642195,0,-27.58876609802246,0.8996337056159973,-32.086936950683594
3.364194631576538,1.5036680698394775,8.69565200805664,-0.0704817899609512,-0.14202403402321512,1.2897773048828087,0.209991455078125,2019-07-26 14:15:51:284,16.65825124410799,48.94933033641349,0,-27.58876609802246,0.8996337056159973,-32.086936950683594
-2.153308629989624,0.4787152409553528,9.483525276184082,0.039267245008782335,-0.1976976995721874,1.2468898918462272,0.21998977661132812,2019-07-26 14:15:51:294,19.78022342965708,51.490503747340945,0,-27.58876609802246,0.8996337056159973,-32.086936950683594
-0.572773814201355,0.6559267044067383,9.828369140625,0.10825996173572935,-0.0994030536089392,1.2319725944743118,0.22999787330627441,2019-07-26 14:15:51:304,22.973773064619188,53.923493639942,0,-27.58876609802246,0.8996337056159973,-32.086936950683594
-0.596721351146698,1.992197036743164,8.556756973266602,0.2212055723171282,-0.15427757109380597,1.213592255578912,0.240004301071167,2019-07-26 14:15:51:314,26.121196545308557,56.05861314750642,0,-27.58876609802246,0.8996337056159973,-32.086936950683594
1.1442617177963257,1.9945918321609497,10.043896675109863,0.05498373205669524,-0.1979640822602226,1.3395905346502504,0.24999308586120605,2019-07-26 14:15:51:324,22.23979372750048,58.281960397759505,0,-27.58876609802246,0.8996337056159973,-32.086936950683594
-2.136545419692993,2.1694085597991943,8.729178428649902,0.15967152092089565,-0.05065530465936786,1.3246732372783352,0.2599904537200928,2019-07-26 14:15:51:334,25.14836772522683,60.34755722834434,0,-44.231990814208984,6.147497177124023,-38.234432220458984
-0.6805375814437866,1.13008713722229,11.638799667358398,0.07016745372853779,-0.07249856024257617,1.419238492319577,0.2701535224914551,2019-07-26 14:15:51:344,28.219844879822688,62.5896479381261,0,-44.231990814208984,6.147497177124023,-38.234432220458984
-0.271035373210907,0.37095150351524353,10.8245849609375,0.11065738928328912,-0.04612682392990509,1.462658670732229,0.2804102897644043,2019-07-26 14:15:51:355,31.25332672485344,64.83487118680692,0,-44.231990814208984,6.147497177124023,-38.234432220458984
-0.007612909190356731,-0.7521860599517822,11.765721321105957,0.10612890855382634,-0.045061301500142786,1.4538681086060956,0.2899787425994873,2019-07-26 14:15:51:364,34.25172870049546,59.95431333167893,0,-44.231990814208984,6.147497177124023,-38.234432220458984
1.4915003776550293,1.4414045810699463,10.132501602172852,0.04219743793241246,-0.20542274759093712,1.5196641664975934,0.29998779296875,2019-07-26 14:15:51:374,30.249618754778606,62.1695854149852,0,-44.231990814208984,6.147497177124023,-38.234432220458984
-1.7126747369766235,0.29910901188850403,8.235859870910645,0.14155759800304457,-0.12124630919214753,1.4730475289865739,0.30998873710632324,2019-07-26 14:15:51:384,33.07776400254957,64.40510285604252,0,-44.231990814208984,6.147497177124023,-38.234432220458984
-0.32611462473869324,0.9265334606170654,9.39970874786377,0.03607066939711704,0.011411501709962022,1.6328762097012977,0.3199896812438965,2019-07-26 14:15:51:394,35.97005998157553,66.58415555237937,0,-44.231990814208984,6.147497177124023,-38.234432220458984
1.4507896900177002,0.4906890094280243,11.662747383117676,0.11092377197132429,-0.0064360348788133235,1.5700102947991597,0.32999444007873535,2019-07-26 14:15:51:404,31.796092205354366,68.74197534556502,0,-44.231990814208984,6.147497177124023,-38.234432220458984
0.2797570526599884,-0.8407918214797974,9.435629844665527,0.19510021869249228,-0.05038892197133268,1.5164675742411713,0.3400454521179199,2019-07-26 14:15:51:414,27.62257331112711,63.75886997589183,0,-44.231990814208984,6.147497177124023,-38.234432220458984
1.0173399448394775,0.6032422184944153,9.241655349731445,0.15887237285679012,-0.2927957532790136,1.5716084577693161,0.34997129440307617,2019-07-26 14:15:51:424,23.758945891990617,65.92045466011423,0,-44.231990814208984,6.147497177124023,-38.234432220458984
0.7371542453765869,1.1995348930358887,7.234854698181152,0.1655319067681559,-0.026947382743480918,1.6120984931926083,0.3599884510040283,2019-07-26 14:15:51:434,19.81527884910469,67.92066075893952,0,-44.231990814208984,6.147497177124023,-38.234432220458984
0.2749675512313843,2.485515594482422,9.217707633972168,0.23532377155920842,-0.06397435999853178,1.5737395192735977,0.36997485160827637,2019-07-26 14:15:51:444,15.88901887959482,69.72848016089524,0,-44.231990814208984,6.147497177124023,-38.234432220458984
-1.0349605083465576,1.9562758207321167,8.269387245178223,0.27181798343818897,0.0620239190728066,1.5819974491817155,0.3799891471862793,2019-07-26 14:15:51:454,18.993686431964004,71.5148733054374,0,-47.68058776855469,8.09670352935791,-32.986568450927734
-1.3606464862823486,1.405483365058899,11.138297080993652,0.11252205977715694,-0.04372939638234532,1.7050654521056394,0.38997864723205566,2019-07-26 14:15:51:464,22.09904683527371,73.47762431374542,0,-47.68058776855469,8.09670352935791,-32.986568450927734
-1.8419911861419678,1.2282719612121582,10.343239784240723,0.15993790360893084,0.00714940366853443,1.7444898236187365,0.399991512298584,2019-07-26 14:15:51:474,25.051091500768194,75.38270684143716,0,-47.68058776855469,8.09670352935791,-32.986568450927734
-0.31414085626602173,1.810196042060852,8.98302173614502,0.13116873974869997,0.06229030176084177,1.8164127499140705,0.40997934341430664,2019-07-26 14:15:51:484,28.075079383353412,77.17362596371598,0,-47.68058776855469,8.09670352935791,-32.986568450927734
-1.5522264242172241,1.6305898427963257,9.538603782653809,0.23292632736689187,0.1677772345279585,1.825203312040204,0.4200103282928467,2019-07-26 14:15:51:494,30.83422360929397,78.90494562567427,0,-47.68058776855469,8.09670352935791,-32.986568450927734
0.6557327508926392,1.5803000926971436,10.961085319519043,0.15221285559018116,0.19548086763604866,1.923764373981001,0.4299890995025635,2019-07-26 14:15:51:504,26.57648122018957,80.67748058845379,0,-47.68058776855469,8.09670352935791,-32.986568450927734
1.7381596565246582,0.12189754843711853,13.2648344039917,0.2419832888258174,-0.0016411741920957937,1.761538315652988,0.43999290466308594,2019-07-26 14:15:51:514,22.59517804003218,82.51747586194938,0,-47.68058776855469,8.09670352935791,-32.986568450927734
-0.012402408756315708,-0.7426071166992188,8.947100639343262,0.20335803208731226,-0.07276494293061135,1.7367647922447438,0.4499778747558594,2019-07-26 14:15:51:524,25.782482028138904,77.24800590712317,0,-47.68058776855469,8.09670352935791,-32.986568450927734
0.8089967370033264,0.9935864210128784,8.60465145111084,0.1402257012076255,-0.08928056972025138,1.7804512867664035,0.46000194549560547,2019-07-26 14:15:51:534,21.82450550726685,79.0923833119623,0,-47.68058776855469,8.09670352935791,-32.986568450927734
0.1959408074617386,2.006565570831299,8.32446575164795,0.2542368258964082,0.1920179093363482,1.7519485388837215,0.46999287605285645,2019-07-26 14:15:51:544,17.707262904297593,80.69686550973451,0,-47.68058776855469,8.09670352935791,-32.986568450927734
-0.26145637035369873,0.8163749575614929,11.681904792785645,0.2337254754309974,0.01913655597049549,1.7463545690140099,0.4799799919128418,2019-07-26 14:15:51:554,20.916743525631222,82.47190989031051,0,-47.68058776855469,8.09670352935791,-32.986568450927734
-1.4396731853485107,0.9911916851997375,9.337445259094238,0.20895203524653733,0.1438029257628472,1.752481304259792,0.48999547958374023,2019-07-26 14:15:51:564,23.84223841011525,84.18377590846028,0,-47.68058776855469,8.09670352935791,-32.986568450927734
-0.33808836340904236,1.9443020820617676,11.200560569763184,0.14901627997851588,0.015407219143949042,1.8046920447985773,0.49997901916503906,2019-07-26 14:15:51:574,26.922177843812623,85.819609194308,0,-47.68058776855469,8.09670352935791,-32.986568450927734
-0.8002750873565674,1.4006938934326172,10.652162551879883,0.1034650983182314,0.013808932378413694,1.7705951938881292,0.5099763870239258,2019-07-26 14:15:51:584,29.89005377127834,87.4953154901606,0,-46.631011962890625,8.246642112731934,-30.437606811523438
-3.6787641048431396,0.7660852074623108,10.007974624633789,0.08588394077645069,-0.04639320661794026,1.716253525003117,0.5199892520904541,2019-07-26 14:15:51:594,32.51468425881077,89.20957720351977,0,-46.631011962890625,8.246642112731934,-30.437606811523438
-0.27343013882637024,2.2149088382720947,9.069232940673828,0.04086553281461498,0.015673599751389617,1.7349001800075248,0.529975414276123,2019-07-26 14:15:51:604,35.42106406815812,90.7279863331901,0,-46.631011962890625,8.246642112731934,-30.437606811523438
-1.9090441465377808,1.8844332695007324,9.60086727142334,0.15354475238560022,-0.010698133440389567,1.6776282349750982,0.5399906635284424,2019-07-26 14:15:51:614,38.09373782228035,92.20498595301827,0,-46.631011962890625,8.246642112731934,-30.437606811523438
-3.6572115421295166,0.29192477464675903,10.04629135131836,0.04193105524437728,0.045241905433942194,1.72451132175318,0.5499811172485352,2019-07-26 14:15:51:624,40.50641752102258,93.90407587239474,0,-46.631011962890625,8.246642112731934,-30.437606811523438
-2.0144131183624268,0.15542404353618622,11.327482223510742,-0.01667279594614403,0.07054811931685098,1.7849798590420287,0.55997633934021,2019-07-26 14:15:51:634,43.055020851632385,95.61962954740004,0,-46.631011962890625,8.246642112731934,-30.437606811523438
0.7898387312889099,0.6343739628791809,12.390750885009766,0.06457345473050193,0.005551116902999083,1.8081549531640073,0.5699880123138428,2019-07-26 14:15:51:644,38.663746649970506,97.21232003059093,0,-46.631011962890625,8.246642112731934,-30.437606811523438
-0.9176177978515625,1.206719160079956,10.601873397827148,0.05205353913306512,-0.12391011942774248,1.8331947926812593,0.5799856185913086,2019-07-26 14:15:51:654,41.46109521889499,98.70898192994409,0,-46.631011962890625,8.246642112731934,-30.437606811523438
-1.2337247133255005,1.3025091886520386,8.044280052185059,0.1383610307137577,0.06415496809352039,1.7655339893944881,0.5899779796600342,2019-07-26 14:15:51:664,44.02149140484151,100.0732248387555,0,-46.631011962890625,8.246642112731934,-30.437606811523438
0.6940487623214722,1.9011965990066528,10.10855484008789,0.07016745372853779,-0.07489598779013594,1.8014954525421552,0.6000058650970459,2019-07-26 14:15:51:674,39.661787598473765,101.41921868292035,0,-46.631011962890625,8.246642112731934,-30.437606811523438
0.10015082359313965,1.9658547639846802,8.173596382141113,0.18844068478112652,0.07907231539970618,1.766599520146629,0.6099874973297119,2019-07-26 14:15:51:684,35.238274565713965,102.61474921830711,0,-46.631011962890625,8.246642112731934,-30.437606811523438
1.2424464225769043,2.815990924835205,9.950501441955566,0.16473275870405035,-0.10100134141477185,1.7844470936659584,0.6200275421142578,2019-07-26 14:15:51:694,31.132793697184102,103.75355645446588,0,-46.631011962890625,8.246642112731934,-30.437606811523438
0.983813464641571,3.2111246585845947,7.606040954589844,0.19003896426458075,0.005284735255261208,1.805757575550718,0.6300551891326904,2019-07-26 14:15:51:704,27.054563823965626,104.7137129197437,0,-52.92844772338867,11.545299530029297,-33.736263275146484
0.25820431113243103,2.8758597373962402,9.059654235839844,0.15327836969756506,-0.06663817439531594,1.8355921702945488,0.6400058269500732,2019-07-26 14:15:51:714,22.98335537479725,105.78157173812652,0,-52.92844772338867,11.545299530029297,-33.736263275146484
3.4504055976867676,2.681885004043579,8.331650733947754,0.20149335327106604,0.10544404338999885,1.8603656937027928,0.6499738693237305,2019-07-26 14:15:51:724,19.31459129610879,106.79630542446336,0,-52.92844772338867,11.545299530029297,-33.736263275146484
1.8938183784484863,1.8676700592041016,9.823579788208008,0.13143512243673514,-0.02135337958425585,1.9413454982332683,0.6600174903869629,2019-07-26 14:15:51:734,15.558577307321954,107.9709634435106,0,-52.92844772338867,11.545299530029297,-33.736263275146484
3.8527235984802246,1.8341436386108398,8.298123359680176,0.18071563676237684,0.09478880244761907,2.0020804847891793,0.6699762344360352,2019-07-26 14:15:51:744,12.09249959950832,109.0612160482514,0,-52.92844772338867,11.545299530029297,-33.736263275146484
3.328273296356201,1.7670905590057373,9.916975021362305,0.2283978549598075,-0.01602575599217406,1.9946217695241943,0.6799952983856201,2019-07-26 14:15:51:754,8.63071442863901,110.14943403413828,0,-52.92844772338867,11.545299530029297,-33.736263275146484
2.0686349868774414,1.951486349105835,7.967648506164551,0.2723507488142593,0.007415784796123656,2.014600404547805,0.6899771690368652,2019-07-26 14:15:51:764,5.145030128353678,111.11855172354323,0,-52.92844772338867,11.545299530029297,-33.736263275146484
-0.7643538117408752,1.118113398551941,10.66413688659668,0.07442955176996538,-0.15880604350089034,2.081728442458506,0.7000038623809814,2019-07-26 14:15:51:774,8.649543449945865,112.3345674662222,0,-52.92844772338867,11.545299530029297,-33.736263275146484
1.4651581048965454,1.350404143333435,9.315892219543457,0.10692805661793188,0.002088161724190513,2.092916382197929,0.7099862098693848,2019-07-26 14:15:51:784,5.054141863933751,113.46298261689162,0,-52.92844772338867,11.545299530029297,-33.736263275146484
0.15283532440662384,2.504673480987549,9.05007553100586,0.19563296742380581,-0.005903272623634875,2.013268424528602,0.7203471660614014,2019-07-26 14:15:51:795,1.375843437015547,114.37051409729126,0,-52.92844772338867,11.545299530029297,-33.736263275146484
1.783659815788269,2.3106987476348877,8.10654354095459,0.2494419708012887,0.059360108837211656,1.9852984420219906,0.7299866676330566,2019-07-26 14:15:51:804,-2.0356244233032115,115.22989699359738,0,-52.92844772338867,11.545299530029297,-33.736263275146484
0.5072582960128784,3.582310914993286,9.066838264465332,0.2073537391183263,-0.1215126918801827,1.9964863817614131,0.7399733066558838,2019-07-26 14:15:51:814,-5.46273062692447,115.97784591043904,0,-52.92844772338867,11.545299530029297,-33.736263275146484
0.02591358684003353,2.7441484928131104,8.86089038848877,0.10080128808263646,-0.10606257919792657,2.0193951597743838,0.749990701675415,2019-07-26 14:15:51:824,-8.89046721687894,116.85744386096614,0,-52.92844772338867,11.545299530029297,-33.736263275146484
-0.11777139455080032,3.1895718574523926,8.204728126525879,0.25237216372491883,-4.288736560552649e-05,1.9775734106479976,0.7599921226501465,2019-07-26 14:15:51:834,-5.129081232296832,117.55369833035982,0,-55.77729034423828,16.493284225463867,-38.984127044677734
0.8329442143440247,2.9548864364624023,9.643973350524902,0.1748552509151166,0.09079307877184824,2.0662782465524656,0.7699954509735107,2019-07-26 14:15:51:844,-8.578769725099413,118.3637123445225,0,-55.77729034423828,16.493284225463867,-38.984127044677734
-1.1738560199737549,1.0055601596832275,11.653167724609375,0.1309023570606648,-0.03893453296484737,2.0412385401932687,0.7799901962280273,2019-07-26 14:15:51:854,-4.9003873273156096,119.42433768832646,0,-55.77729034423828,16.493284225463867,-38.984127044677734
-0.9200125336647034,0.20331904292106628,12.749963760375977,-0.03558585756542493,-0.2198073295210525,2.0902525553175773,0.7899885177612305,2019-07-26 14:15:51:864,-1.1615227511943336,120.63755704019653,0,-55.77729034423828,16.493284225463867,-38.984127044677734
0.049861084669828415,1.9466967582702637,8.087386131286621,0.23559015424724364,-0.04932339954157039,2.018329762180298,0.7999961376190186,2019-07-26 14:15:51:874,-4.7035113582732775,121.42174012465063,0,-55.77729034423828,16.493284225463867,-38.984127044677734
-1.3774096965789795,1.951486349105835,9.814000129699707,0.2105503147299916,-0.10419791702643715,2.0215262212786653,0.809992790222168,2019-07-26 14:15:51:884,-1.1107409688932361,122.25019302708043,0,-55.77729034423828,16.493284225463867,-38.984127044677734
-0.4003518521785736,0.9217439293861389,9.703842163085938,0.14555332167881538,-0.07516237047817112,2.00314601554132,0.8199822902679443,2019-07-26 14:15:51:894,2.5063828114477484,123.2150249083994,0,-55.77729034423828,16.493284225463867,-38.984127044677734
-0.05071840435266495,2.2484352588653564,10.479741096496582,0.20762012180636147,-0.23019618777539713,1.9157730264980002,0.8299899101257324,2019-07-26 14:15:51:904,6.180062690969642,123.99187177258209,0,-55.77729034423828,16.493284225463867,-38.984127044677734
3.033719301223755,2.8758597373962402,6.305692195892334,0.2768792212213437,0.10544404338999885,1.9674508685026608,0.8399910926818848,2019-07-26 14:15:51:914,2.9110993893976813,124.4662191114686,0,-55.77729034423828,16.493284225463867,-38.984127044677734
-1.5809634923934937,3.5847055912017822,8.990206718444824,0.33441756558656216,0.01407531298585427,2.0220589866547356,0.8499927520751953,2019-07-26 14:15:51:924,6.245498555880218,124.95431105100742,0,-55.77729034423828,16.493284225463867,-38.984127044677734
-0.9176177978515625,0.16500304639339447,11.308323860168457,0.0659053598482994,0.09345689732982161,2.0119365776674534,0.8599908351898193,2019-07-26 14:15:51:934,9.575340299241029,126.00150695210272,0,-55.77729034423828,16.493284225463867,-38.984127044677734
-1.288804054260254,-1.8681395053863525,14.368814468383789,0.046459535973840047,-0.15214652623428138,1.8606320098118008,0.8699953556060791,2019-07-26 14:15:51:944,12.966794127703874,120.00353148194453,0,-55.77729034423828,16.493284225463867,-38.984127044677734
-4.916849613189697,-1.1401355266571045,12.098591804504395,-0.0012226895056717034,-0.4246544181976122,1.78711092054631,0.8799872398376465,2019-07-26 14:15:51:954,16.103372582421184,114.11181655802237,0,-54.877655029296875,19.19218635559082,-36.28522491455078
-6.535700798034668,2.2077245712280273,8.796231269836426,0.06404068935443157,-0.31277435501311085,1.6685712235819021,0.8899893760681152,2019-07-26 14:15:51:964,18.824709569551846,115.11182652904198,0,-54.877655029296875,19.19218635559082,-36.28522491455078
-4.54326868057251,2.7800698280334473,11.921380043029785,-0.07607579312017626,-0.1889071208012971,1.6336752911863759,0.8999979496002197,2019-07-26 14:15:51:974,21.737137954681447,116.18980716892864,0,-54.877655029296875,19.19218635559082,-36.28522491455078
-4.833033561706543,1.6976428031921387,9.124312400817871,0.26196187391515785,-0.08901418703221621,1.4448110972128996,0.909998893737793,2019-07-26 14:15:51:984,24.394189134260046,117.108110536986,0,-54.877655029296875,19.19218635559082,-36.28522491455078
1.831554889678955,3.026728868484497,9.4619722366333,0.15114732483804044,-0.03174224408038426,1.5987793587908496,0.9199888706207275,2019-07-26 14:15:51:994,20.54321594690087,117.92639203652487,0,-54.877655029296875,19.19218635559082,-36.28522491455078
3.895829200744629,1.2378509044647217,9.509866714477539,0.21960727618891712,0.011677883357699897,1.6019759510472715,0.9299912452697754,2019-07-26 14:15:52:004,16.971333730872747,118.89620166122513,0,-54.877655029296875,19.19218635559082,-36.28522491455078
4.0419087409973145,0.16021354496479034,10.434240341186523,0.22546766203617738,0.06735154370518569,1.6326097604342351,0.9399967193603516,2019-07-26 14:15:52:014,13.417565737207866,119.97401485233769,0,-54.877655029296875,19.19218635559082,-36.28522491455078
1.1993409395217896,-0.9006605744361877,10.3671875,0.10266595857650428,0.07481021735827857,1.7183845865073983,0.9499914646148682,2019-07-26 14:15:52:024,9.639210636545918,114.01622137347164,0,-54.877655029296875,19.19218635559082,-36.28522491455078
0.6461537480354309,-1.053924560546875,9.203339576721191,0.11838244562441719,0.30309885774625756,1.7884427674074588,0.9599936008453369,2019-07-26 14:15:52:034,5.7565218189419385,108.2000670543609,0,-54.877655029296875,19.19218635559082,-36.28522491455078
-0.28540387749671936,1.0941659212112427,12.086617469787598,0.017157609858430744,-0.0019075553196850185,1.8851390839529822,0.9699947834014893,2019-07-26 14:15:52:044,9.215408877072134,109.52297622527473,0,-54.877655029296875,19.19218635559082,-36.28522491455078
-0.7930908203125,1.8006170988082886,8.250228881835938,0.14315589413125562,0.078805932711671,1.8523742130617373,0.9799950122833252,2019-07-26 14:15:52:054,12.477031353774912,110.60589750971623,0,-54.877655029296875,19.19218635559082,-36.28522491455078
-2.3736255168914795,1.9299335479736328,8.231070518493652,0.16686382020833176,0.09398965438351355,1.840120742570174,0.9900009632110596,2019-07-26 14:15:52:064,15.452960694608505,111.63611532282086,0,-54.877655029296875,19.19218635559082,-36.28522491455078
-1.1978034973144531,2.164618968963623,9.124312400817871,0.1274393987609643,0.14007360141986835,1.868357174343848,0.999993085861206,2019-07-26 14:15:52:074,18.515736372672926,112.66497392508406,0,-54.877655029296875,19.19218635559082,-36.28522491455078
-2.342493772506714,1.4509836435317993,9.962474822998047,0.20868565255850216,0.1344795899382649,1.7985653095527956,1.0099828243255615,2019-07-26 14:15:52:084,21.405354970618156,113.7288865169799,0,-55.477413177490234,24.589988708496094,-39.28400421142578
3.4096949100494385,2.7297799587249756,7.778462886810303,0.27821113466151953,0.3387939382058894,1.8278671389205559,1.0199930667877197,2019-07-26 14:15:52:094,17.66022624039159,114.5111725463894,0,-55.477413177490234,24.589988708496094,-39.28400421142578
0.07380858063697815,1.2162981033325195,10.494109153747559,0.2627610219792634,0.13234854507874028,1.7996308403049364,1.0299968719482422,2019-07-26 14:15:52:104,13.640739384964093,115.54112798697321,0,-55.477413177490234,24.589988708496094,-39.28400421142578
2.272188901901245,-0.40973687171936035,9.313497543334961,0.15461028313774094,0.10331299853047425,1.8001636056810064,1.0399980545043945,2019-07-26 14:15:52:114,9.98411700628237,109.5938624811811,0,-55.477413177490234,24.589988708496094,-39.28400421142578
2.133293390274048,-0.5222901105880737,11.475956916809082,0.10426424638233694,-0.09567372094358197,1.7570097433773624,1.0500106811523438,2019-07-26 14:15:52:124,6.44883616148155,103.7954836607653,0,-55.477413177490234,24.589988708496094,-39.28400421142578
0.3539942800998688,0.27276676893234253,9.51944637298584,0.06350792813955042,-0.18517777981356143,1.778053909153114,1.059995174407959,2019-07-26 14:15:52:134,2.8662681657299918,105.25114400010389,0,-55.477413177490234,24.589988708496094,-39.28400421142578
-0.2518773674964905,1.0390866994857788,8.978232383728027,0.08455203565865321,-0.03946729834091773,1.7599400195247767,1.0699951648712158,2019-07-26 14:15:52:144,6.39896426961594,106.56661133598449,0,-55.477413177490234,24.589988708496094,-39.28400421142578
-0.3285093605518341,2.854306936264038,8.870469093322754,0.2302625171312969,-0.013361944716281814,1.7372975576208143,1.0800023078918457,2019-07-26 14:15:52:154,9.836074552037186,107.54915574465183,0,-55.477413177490234,24.589988708496094,-39.28400421142578
-1.1810402870178223,1.3911148309707642,10.09897518157959,-0.002288214016028602,-0.0005756496817388956,1.8894012069615451,1.0899946689605713,2019-07-26 14:15:52:164,13.106271136103791,108.8425959092641,0,-55.477413177490234,24.589988708496094,-39.28400421142578
-0.8745123147964478,1.3144829273223877,10.304924011230469,0.15114732483804044,0.12116053043791175,1.901654810611163,1.09999418258667,2019-07-26 14:15:52:174,16.279103544444283,110.03549272023041,0,-55.477413177490234,24.589988708496094,-39.28400421142578
0.7395489811897278,0.7541114687919617,11.10477066040039,0.1716586753034513,0.057761821031378995,1.8928642484850295,1.1099934577941895,2019-07-26 14:15:52:184,12.3972931272706,111.26070529686325,0,-55.477413177490234,24.589988708496094,-39.28400421142578
0.43541577458381653,1.0774027109146118,9.9193696975708,0.1727241894108352,-0.08262104413126402,1.9021875759872335,1.1199920177459717,2019-07-26 14:15:52:194,8.64600046590072,112.41454195985213,0,-55.477413177490234,24.589988708496094,-39.28400421142578
0.13367731869220734,1.561142086982727,8.678889274597168,0.15887237285679012,-0.01602575599217406,1.9461403866179012,1.1299991607666016,2019-07-26 14:15:52:204,4.899733989624389,113.47303661404113,0,-51.27912139892578,30.287668228149414,-43.18241882324219
-1.9641233682632446,1.4749311208724976,9.665525436401367,0.224934896660107,0.02153398559864986,1.9280264969895637,1.1399943828582764,2019-07-26 14:15:52:214,8.159921331720437,114.50381082518656,0,-51.27912139892578,30.287668228149414,-43.18241882324219
1.6998436450958252,1.5731158256530762,8.99260139465332,0.3115087875735916,0.2162586007894947,1.9240308232480636,1.1499934196472168,2019-07-26 14:15:52:224,4.489388612834787,115.44038766369505,0,-51.27912139892578,30.287668228149414,-43.18241882324219
-1.1523032188415527,1.925144076347351,10.496503829956055,0.15354475238560022,0.05429886689286773,2.0553566229220506,1.1599955558776855,2019-07-26 14:15:52:234,7.84380903179127,116.43748625124093,0,-51.27912139892578,30.287668228149414,-43.18241882324219
1.3286573886871338,1.494089126586914,10.187581062316895,0.224934896660107,0.19787829518360844,2.0510946330715427,1.1699960231781006,2019-07-26 14:15:52:244,4.124430001880526,117.41556200144069,0,-51.27912139892578,30.287668228149414,-43.18241882324219
-1.2816197872161865,0.07879205793142319,12.424277305603027,0.11065738928328912,-0.04985616075645153,2.0356444371655025,1.1799993515014648,2019-07-26 14:15:52:254,7.55215518101207,118.59782905829374,0,-51.27912139892578,30.287668228149414,-43.18241882324219
1.2783676385879517,0.3086880147457123,8.87286376953125,0.16499914139208552,0.008747690434069777,1.9493369788743236,1.1899983882904053,2019-07-26 14:15:52:264,3.9601714365509078,119.69338413671676,0,-51.27912139892578,30.287668228149414,-43.18241882324219
0.5934692621231079,2.6292004585266113,8.56394100189209,0.1982967943041576,-0.18224758688993128,1.9317558546220563,1.1999828815460205,2019-07-26 14:15:52:274,0.46242470908582733,120.44700737736834,0,-51.27912139892578,30.287668228149414,-43.18241882324219
-0.2039823830127716,3.982234001159668,5.941689968109131,0.23052889981933206,0.12888558677903983,2.004744311669531,1.2099926471710205,2019-07-26 14:15:52:284,3.9414118190817944,120.83188420188814,0,-51.27912139892578,30.287668228149414,-43.18241882324219
0.7994177341461182,2.8878333568573,10.51566219329834,0.28140771027318484,0.27992369704525183,2.0311159980479316,1.219994306564331,2019-07-26 14:15:52:294,0.19232785175759437,121.55008784811963,0,-51.27912139892578,30.287668228149414,-43.18241882324219
1.1059457063674927,0.48111000657081604,11.588509559631348,0.29179656852752944,0.30070141355394103,2.0305832326718614,1.2300035953521729,2019-07-26 14:15:52:304,-3.4714890932853697,122.50754385438032,0,-51.27912139892578,30.287668228149414,-43.18241882324219
1.2208937406539917,-0.7402123212814331,12.718832015991211,0.12957045194286732,-0.04266386979139382,2.051627398447613,1.2399961948394775,2019-07-26 14:15:52:314,-6.868459715168218,116.45130819710356,0,-51.27912139892578,30.287668228149414,-43.18241882324219
0.4426000416278839,0.42842552065849304,7.270776271820068,0.17671991308660603,0.03352113582001632,2.034845355680424,1.2499933242797852,2019-07-26 14:15:52:324,-10.280236884871137,117.55563821884402,0,-51.27912139892578,30.287668228149414,-43.18241882324219
1.1059457063674927,1.1899559497833252,9.315892219543457,0.13356616729625975,0.040979807392514604,2.0215262212786653,1.2599961757659912,2019-07-26 14:15:52:334,-13.562244004953785,118.58392285925665,0,-50.07960891723633,34.78583526611328,-41.982906341552734
-0.4530363380908966,2.147855758666992,8.721994400024414,0.14368865950732598,-0.11831611626851742,1.9682500831457936,1.2699930667877197,2019-07-26 14:15:52:344,-9.684052950260247,119.45490358563535,0,-50.07960891723633,34.78583526611328,-41.982906341552734
-1.6695692539215088,1.5970633029937744,8.532809257507324,0.12264454366584479,0.11290271704309175,2.005543393154609,1.279998540878296,2019-07-26 14:15:52:354,-6.175219152200068,120.38487823099402,0,-50.07960891723633,34.78583526611328,-41.982906341552734
1.1538406610488892,2.7704906463623047,9.828369140625,0.2827396237133607,0.1081078536255938,2.037775498669784,1.2899956703186035,2019-07-26 14:15:52:364,-9.578483408127772,121.10361911519216,0,-50.07960891723633,34.78583526611328,-41.982906341552734
2.595479965209961,2.950096845626831,9.806816101074219,0.21374689034165686,0.0809369775711956,2.126214018465244,1.2999937534332275,2019-07-26 14:15:52:374,-12.735869691560467,121.82670327888557,0,-50.07960891723633,34.78583526611328,-41.982906341552734
2.0087664127349854,1.465352177619934,8.882442474365234,0.23399185811903256,0.10837423631362897,2.1075673634608365,1.3099949359893799,2019-07-26 14:15:52:384,-15.887149564485522,122.67141136624258,0,-50.07960891723633,34.78583526611328,-41.982906341552734
2.061450719833374,0.7852432131767273,9.404498100280762,0.21321412496558653,0.07640849684173281,2.0979777198496246,1.3200011253356934,2019-07-26 14:15:52:394,-18.965064356180264,123.60273101728357,0,-50.07960891723633,34.78583526611328,-41.982906341552734
2.2961363792419434,1.8245645761489868,8.013148307800293,0.20175973595910124,0.04550828812197737,2.121152813971603,1.3300251960754395,2019-07-26 14:15:52:404,-21.891588446324512,124.36056902149497,0,-50.07960891723633,34.78583526611328,-41.982906341552734
2.1428723335266113,2.4232521057128906,8.980627059936523,0.20602184232290724,0.12116053043791175,2.1829531981216004,1.3399951457977295,2019-07-26 14:15:52:414,-24.853175002651145,125.05601322544271,0,-50.07960891723633,34.78583526611328,-41.982906341552734
-1.0565133094787598,0.866664707660675,10.343239784240723,0.30298457484597957,0.11450100484892438,2.058553215178473,1.34999418258667,2019-07-26 14:15:52:424,-20.93704280098389,125.88899090335204,0,-50.07960891723633,34.78583526611328,-41.982906341552734
0.5767059922218323,0.8738489747047424,11.131113052368164,0.12237816097780961,0.00022349378230200473,2.1091656595890473,1.3599965572357178,2019-07-26 14:15:52:434,-24.059110305238523,126.81270352562137,0,-50.07960891723633,34.78583526611328,-41.982906341552734
-0.505720853805542,2.25801420211792,9.727788925170898,0.11758329756031166,-0.22566771536831276,2.044434999291636,1.3699779510498047,2019-07-26 14:15:52:444,-19.91097114871854,127.54918795035655,0,-50.07960891723633,34.78583526611328,-41.982906341552734
-1.6192795038223267,2.622016191482544,7.938911437988281,0.13409893267233008,-0.02268528470205332,2.0303169165628536,1.3799898624420166,2019-07-26 14:15:52:454,-16.13056559255892,128.1572771924766,0,-46.93089294433594,37.03491973876953,-34.63589859008789
-1.9114389419555664,0.5074522495269775,11.892642974853516,0.07336402934020307,0.030058181681505043,1.977306961380935,1.3899953365325928,2019-07-26 14:15:52:464,-12.407456072961322,129.10404937764045,0,-46.93089294433594,37.03491973876953,-34.63589859008789
0.7826544642448425,1.5970633029937744,10.891637802124023,0.05578287595961155,-0.15321204034166527,1.945341305132823,1.3999929428100586,2019-07-26 14:15:52:474,-15.591096950286254,129.92381486693193,0,-46.93089294433594,37.03491973876953,-34.63589859008789
-0.414720356464386,3.0387027263641357,7.7712788581848145,0.1977640289280872,-0.16386729792880186,1.8100196985592807,1.4100122451782227,2019-07-26 14:15:52:484,-11.64818086865611,130.38695305570204,0,-46.93089294433594,37.03491973876953,-34.63589859008789
1.3047099113464355,3.354809522628784,6.518824577331543,0.14821713191441033,-0.07169941217847065,1.8486448554292452,1.4199910163879395,2019-07-26 14:15:52:494,-14.748685221552039,130.75152903307887,0,-46.93089294433594,37.03491973876953,-34.63589859008789
0.4641527831554413,2.2292773723602295,9.02133846282959,0.1916372603927918,0.045774670810012554,1.8619639898310039,1.4300124645233154,2019-07-26 14:15:52:504,-18.020563018642253,131.35105600827427,0,-46.93089294433594,37.03491973876953,-34.63589859008789
-0.7380115389823914,1.3599830865859985,10.321687698364258,0.2699533212666995,0.08599822367672871,1.809220483916148,1.4400098323822021,2019-07-26 14:15:52:514,-14.190221905089697,132.0223755460413,0,-46.93089294433594,37.03491973876953,-34.63589859008789
-0.37161487340927124,0.34460926055908203,11.047296524047852,0.13010321731893768,-0.009366227282294795,1.8260025266833366,1.4500081539154053,2019-07-26 14:15:52:524,-10.339691618396646,132.87315342502728,0,-46.93089294433594,37.03491973876953,-34.63589859008789
-0.9535390138626099,1.7670905590057373,9.267997741699219,0.12317730071953673,-0.170793197883446,1.8507759169335265,1.460033893585205,2019-07-26 14:15:52:534,-6.554235077740909,133.5304527823565,0,-46.93089294433594,37.03491973876953,-34.63589859008789
-4.040371417999268,0.7636904716491699,7.23006534576416,0.18551049185749638,0.15818750769296264,1.7953687172963735,1.470409631729126,2019-07-26 14:15:52:545,-3.499264477095036,134.23117348028552,0,-46.93089294433594,37.03491973876953,-34.63589859008789
-3.420131206512451,-1.130556583404541,12.362013816833496,0.06643812106318053,0.13767616554993017,1.8001636056810064,1.4799861907958984,2019-07-26 14:15:52:554,-0.21260837178833603,128.01533267752535,0,-46.93089294433594,37.03491973876953,-34.63589859008789
-4.706111907958984,-1.631059169769287,12.951122283935547,0.020354182349204136,-0.06450712537460214,1.795102268029311,1.4899802207946777,2019-07-26 14:15:52:564,3.028445417471855,121.9871643438875,0,-46.93089294433594,37.03491973876953,-34.63589859008789
-3.8871073722839355,-1.0323717594146729,10.965874671936035,-0.055830825342800594,-0.04559406271502394,1.7634029278902068,1.499983310699463,2019-07-26 14:15:52:574,6.2031244937983745,116.08634376462714,0,-46.93089294433594,37.03491973876953,-34.63589859008789
-4.598348140716553,0.6894532442092896,10.484530448913574,-0.016939176553584605,-0.1465525230750563,1.7266423832574613,1.5099902153015137,2019-07-26 14:15:52:584,9.28777803683986,117.29888874413504,0,-45.731380462646484,34.336021423339844,-27.13895034790039
-5.003060817718506,1.2378509044647217,10.3671875,-0.02546337367673709,0.01300978847549737,1.7394286191250956,1.5199902057647705,2019-07-26 14:15:52:594,12.179491270515546,118.43103002428786,0,-45.731380462646484,34.336021423339844,-27.13895034790039
-3.2572882175445557,0.7852432131767273,12.802647590637207,-0.04544195876607758,0.12435710604957705,1.7460881197469473,1.5299828052520752,2019-07-26 14:15:52:604,15.180636629725083,119.61770998442381,0,-45.731380462646484,34.336021423339844,-27.13895034790039
-2.7543907165527344,-0.0265769325196743,13.248071670532227,-0.037184145371257575,0.010345977199605125,1.7319700370181652,1.539982557296753,2019-07-26 14:15:52:614,18.23631529027805,113.64853293016085,0,-45.731380462646484,34.336021423339844,-27.13895034790039
-0.8912755250930786,-1.015608549118042,12.03872299194336,-0.037184145371257575,-0.00963260893003267,1.6565840691993463,1.5499885082244873,2019-07-26 14:15:52:624,21.39231860808063,107.89289670502725,0,-45.731380462646484,34.336021423339844,-27.13895034790039
0.4186525344848633,-0.15589341521263123,9.996001243591309,-0.008681361598318643,-0.055183785388830627,1.6014431856712015,1.5599846839904785,2019-07-26 14:15:52:634,17.4434112124581,102.15778124657528,0,-45.731380462646484,34.336021423339844,-27.13895034790039
3.072035312652588,1.8437225818634033,8.4657564163208,0.006235982586975235,-0.042397487103358646,1.57347320316459,1.5699946880340576,2019-07-26 14:15:52:644,13.917267176866558,103.46539338939779,0,-45.731380462646484,34.336021423339844,-27.13895034790039
3.6994595527648926,3.27099347114563,6.090164661407471,0.21534518646986794,0.1416718809033226,1.4575973330805334,1.5799810886383057,2019-07-26 14:15:52:654,10.58501170075775,104.310533982636,0,-45.731380462646484,34.336021423339844,-27.13895034790039
2.312899589538574,2.8830440044403076,7.881437301635742,0.28167409296122004,0.08173612563530111,1.3939323366933172,1.589984655380249,2019-07-26 14:15:52:664,7.054499189965361,105.26425505230557,0,-45.731380462646484,34.336021423339844,-27.13895034790039
2.4302423000335693,1.8988018035888672,7.943700790405273,0.2369220510426627,0.09185860952398896,1.3646303741675023,1.5999863147735596,2019-07-26 14:15:52:674,3.6020344482086486,106.35705043963358,0,-45.731380462646484,34.336021423339844,-27.13895034790039
1.1442617177963257,1.041481375694275,8.369966506958008,0.22679957547635327,0.0609583924818551,1.301231693889294,1.609985589981079,2019-07-26 14:15:52:684,0.051461629087805605,107.56071298037821,0,-45.731380462646484,34.336021423339844,-27.13895034790039
-0.3883781135082245,0.29671427607536316,8.705231666564941,0.16819571700375086,-0.012296420205924917,1.2708642006113386,1.6199820041656494,2019-07-26 14:15:52:694,3.606243962441859,108.87604796820206,0,-45.731380462646484,34.336021423339844,-27.13895034790039
-1.6216741800308228,-0.38339462876319885,9.540998458862305,0.10799357904769417,0.02180036620609043,1.2759254051049795,1.6299848556518555,2019-07-26 14:15:52:704,6.928948311352066,103.0838940788774,0,-45.731380462646484,38.234432220458984,-33.736263275146484
-2.2586777210235596,-0.6276590824127197,11.428061485290527,0.05125439523014879,-0.034139673708538626,1.2748598743528388,1.6399846076965332,2019-07-26 14:15:52:714,10.185937683576759,97.4563111562215,0,-45.731380462646484,38.234432220458984,-33.736263275146484
-3.5781846046447754,-0.8910815715789795,11.99801254272461,-0.04464281486316127,-0.0815555133791233,1.2607417916240564,1.649986982345581,2019-07-26 14:15:52:724,13.29589841387285,92.0172079198118,0,-45.731380462646484,38.234432220458984,-33.736263275146484
-3.573395252227783,-0.6995015740394592,11.63161563873291,-0.10218114674481217,-0.08022360826132582,1.2394311765812422,1.6600098609924316,2019-07-26 14:15:52:734,16.333575127557197,86.70319972482653,0,-45.731380462646484,38.234432220458984,-33.736263275146484
-3.0034446716308594,-0.3594471514225006,11.473562240600586,-0.07181369507874867,-0.05891311805418787,1.1880196506855896,1.669975757598877,2019-07-26 14:15:52:744,19.346486141660186,81.44520935104323,0,-45.731380462646484,38.234432220458984,-33.736263275146484
-2.3760204315185547,-0.3546576499938965,10.891637802124023,0.049922490112351316,-0.03120948078490851,1.1184942351615996,1.6799824237823486,2019-07-26 14:15:52:754,22.330965701075797,76.22555562687202,0,-45.731380462646484,38.234432220458984,-33.736263275146484
13.240142822265625,5.433452606201172,2.3543550968170166,0.13250064486649743,0.07587573978804088,1.1328787671574445,1.6899864673614502,2019-07-26 14:15:52:764,22.287474525610264,76.1496076517843,0,-45.731380462646484,38.234432220458984,-33.736263275146484
-2.4718103408813477,4.200156211853027,4.334813117980957,0.5736277879930641,0.16511342429236356,0.8569079002496565,1.699983835220337,2019-07-26 14:15:52:774,24.75518277552392,77.02268675905701,0,-45.731380462646484,38.234432220458984,-33.736263275146484
4.710043907165527,1.0845869779586792,7.4072771072387695,0.04299658183532878,0.07294554686441075,1.0385798282252103,1.7099997997283936,2019-07-26 14:15:52:784,21.26807368494027,78.89144880518705,0,-45.731380462646484,38.234432220458984,-33.736263275146484
1.6830804347991943,-1.0419508218765259,9.325471878051758,0.13889379608982805,0.10917338437773451,0.8920702153332178,1.719985008239746,2019-07-26 14:15:52:794,17.38611667788249,73.76325276491568,0,-45.731380462646484,38.234432220458984,-33.736263275146484
1.2137094736099243,0.24402979016304016,8.231070518493652,0.2696869385786644,0.09398965438351355,0.794841133411624,1.7300002574920654,2019-07-26 14:15:52:804,13.553300462183087,75.70236448059558,0,-45.731380462646484,38.234432220458984,-33.736263275146484
-0.13692939281463623,0.42842552065849304,8.10654354095459,0.21827537939349806,0.08120336025923076,0.7133284969260509,1.7399990558624268,2019-07-26 14:15:52:814,16.817290286217922,77.60526598979382,0,-45.731380462646484,38.234432220458984,-33.736263275146484
-0.4841681122779846,0.33024078607559204,7.704226016998291,0.1990959257235063,0.01460807524103272,0.6358115341819783,1.7499794960021973,2019-07-26 14:15:52:824,20.00083821674824,79.49249774979218,0,-45.731380462646484,38.234432220458984,-33.736263275146484
-1.157092809677124,-0.6061063408851624,8.223886489868164,0.14581970436685057,0.05696267712846268,0.5431109246674688,1.7599940299987793,2019-07-26 14:15:52:834,23.008612742913165,74.30495361310487,0,-37.93455505371094,39.13406753540039,-33.736263275146484
-1.2552775144577026,-1.0132137537002563,10.307318687438965,0.054450970841814085,-0.072232177554541,0.4453490440802909,1.7700841426849365,2019-07-26 14:15:52:844,26.05049269803126,69.3002881304458,0,-37.93455505371094,39.13406753540039,-33.736263275146484
-3.183051109313965,-2.488379716873169,10.862900733947754,-0.04117986072464999,-0.07249856024257617,0.41178502512494053,1.7800142765045166,2019-07-26 14:15:52:854,28.843273098153425,64.59528769054103,0,-37.93455505371094,39.13406753540039,-33.736263275146484
2.8589024543762207,-0.19899891316890717,11.064059257507324,-0.08939484429815098,-0.1215126918801827,0.4983588993936683,1.7899806499481201,2019-07-26 14:15:52:864,25.024168802234183,59.77401652411489,0,-37.93455505371094,39.13406753540039,-33.736263275146484
1.2903413772583008,2.236461639404297,5.35258150100708,0.40900428547273426,0.00714940366853443,0.2135974537149898,1.799997091293335,2019-07-26 14:15:52:874,21.190737078703737,61.49497191463664,0,-37.93455505371094,39.13406753540039,-33.736263275146484
0.41386303305625916,1.5779054164886475,5.757294178009033,0.24917558811325352,0.06255668028768774,0.1675135150010134,1.8099796772003174,2019-07-26 14:15:52:884,17.21409069479445,63.41886964722032,0,-37.93455505371094,39.13406753540039,-33.736263275146484
1.0341031551361084,-0.21815690398216248,9.763710975646973,-0.04091347803661482,-0.041598347361631524,0.21999060493832043,1.8199787139892578,2019-07-26 14:15:52:894,13.414080530406434,58.59906257676487,0,-37.93455505371094,39.13406753540039,-33.736263275146484
0.05944008380174637,-0.6995015740394592,10.063054084777832,0.022485231369917934,-0.06983475000698122,0.14966597477119753,1.829993486404419,2019-07-26 14:15:52:904,9.59183753669896,53.89396404413327,0,-37.93455505371094,39.13406753540039,-33.736263275146484
-1.1738560199737549,-0.5869483351707458,9.66792106628418,0.049389728897470175,-0.032541385902705985,0.09905356365013675,1.8399770259857178,2019-07-26 14:15:52:914,12.879786035985713,49.25788244526343,0,-37.93455505371094,39.13406753540039,-33.736263275146484
-0.5320630669593811,-0.7234491109848022,10.201950073242188,-0.021201275635309498,-0.0490570168535352,0.0870664092675811,1.849998950958252,2019-07-26 14:15:52:924,16.190087230864563,44.76577969777353,0,-37.93455505371094,39.13406753540039,-33.736263275146484
-0.48895758390426636,-0.2564729154109955,9.617630958557129,0.014493797542241197,-0.008034321644348672,0.0471092390889001,1.8599803447723389,2019-07-26 14:15:52:934,19.41258045010156,40.29289183543818,0,-37.93455505371094,39.13406753540039,-33.736263275146484
-0.278219610452652,-0.3019731342792511,10.051080703735352,0.012629130169265276,-0.03307414919818173,0.02473322229081063,1.8699767589569092,2019-07-26 14:15:52:944,22.611181776225102,35.914362662251364,0,-37.93455505371094,39.13406753540039,-33.736263275146484
0.3013097941875458,-0.06728767603635788,8.010753631591797,0.21614431788921667,0.11849672020231682,-0.10366248848927673,1.879997730255127,2019-07-26 14:15:52:954,18.53536406234426,31.48408123590234,0,-39.733821868896484,41.233211517333984,-35.83540725708008
0.65812748670578,0.5888737440109253,9.643973350524902,-0.0017554517608501525,-0.0533191148949628,-0.029342149210545208,1.8899633884429932,2019-07-26 14:15:52:964,14.672571504583864,34.38549755931105,0,-39.733821868896484,41.233211517333984,-35.83540725708008
-1.406146764755249,-0.16307766735553741,9.378155708312988,0.0035721710510086637,0.02233312950156618,-0.07302865413517805,1.899993896484375,2019-07-26 14:15:52:974,17.795995387251935,30.11570014997706,0,-39.733821868896484,41.233211517333984,-35.83540725708008
-0.520089328289032,-0.6013168692588806,9.945711135864258,0.010231699500813603,0.04444276153102587,-0.1310997472317101,1.909982442855835,2019-07-26 14:15:52:984,20.955280879700762,25.976845370124273,0,-39.733821868896484,41.233211517333984,-35.83540725708008
-0.44345736503601074,-0.5270796418190002,10.431845664978027,-0.052101488516254145,-0.0035058422152575287,-0.11937897553718962,1.919978380203247,2019-07-26 14:15:52:994,24.089459470713674,21.94440085230602,0,-39.733821868896484,41.233211517333984,-35.83540725708008
-1.1307505369186401,-0.38339462876319885,9.828369140625,0.025415424293548053,0.04444276153102587,-0.1835768371690171,1.9299933910369873,2019-07-26 14:15:53:004,27.05141818018574,17.935899029648933,0,-39.733821868896484,41.233211517333984,-35.83540725708008
-0.14411364495754242,-0.282815158367157,9.98881721496582,-0.008414980470729418,0.006616641413355981,-0.20755112928937158,1.9403235912322998,2019-07-26 14:15:53:015,30.090020355849664,14.01449791525235,0,-39.733821868896484,41.233211517333984,-35.83540725708008
0.7036277651786804,-0.0265769325196743,9.823579788208008,-0.029725471718164684,-0.0003092685216403804,-0.21634170806026198,1.9499883651733398,2019-07-26 14:15:53:024,25.970325670538678,10.153439427466537,0,-39.733821868896484,41.233211517333984,-35.83540725708008
-0.07706064730882645,-0.028971681371331215,9.768500328063965,-0.0036201196539747244,0.0010226372138336143,-0.24244706168489788,1.9601986408233643,2019-07-26 14:15:53:035,29.041293290914663,6.355844651101553,0,-39.733821868896484,41.233211517333984,-35.83540725708008
0.035492584109306335,0.29192477464675903,9.955290794372559,-0.019869370517512027,0.006616641413355981,-0.25097125776775303,1.9700117111206055,2019-07-26 14:15:53:044,24.86090703753533,9.80608310993925,0,-39.733821868896484,41.233211517333984,-35.83540725708008
0.6293905377388,-0.012208433821797371,9.907395362854004,-0.015340889788049256,0.005018354127671983,-0.28107231842340297,1.9799823760986328,2019-07-26 14:15:53:054,20.833578647460087,6.019962126698127,0,-39.733821868896484,41.233211517333984,-35.83540725708008
-0.505720853805542,-0.0984194204211235,9.926553726196289,-0.026795278794534565,-0.021086996896220678,-0.2871990869586984,1.9899837970733643,2019-07-26 14:15:53:064,23.970419386198188,2.3259716430754427,0,-39.733821868896484,41.233211517333984,-35.83540725708008
0.1097298264503479,-0.4121316373348236,10.503687858581543,-0.07021540727291603,-0.004304985598025202,-0.29199394205381796,1.9999675750732422,2019-07-26 14:15:53:074,19.905395025406357,-1.2362468235224329,0,-39.733821868896484,41.233211517333984,-35.83540725708008
-0.8816965222358704,-0.42889487743377686,10.501293182373047,-0.020934895027868924,-0.019755091778423203,-0.2909284445911909,2.009969711303711,2019-07-26 14:15:53:084,23.02239513919629,-4.752988857395479,0,-38.234432220458984,38.234432220458984,-31.936996459960938
0.4976792633533478,0.10034479945898056,10.113344192504883,-0.06488778264053693,-0.037069866632168755,-0.2704170774810232,2.019988775253296,2019-07-26 14:15:53:094,19.039146830794714,-1.0327946441138867,0,-38.234432220458984,38.234432220458984,-31.936996459960938
0.9886029362678528,0.10273955017328262,9.670315742492676,-0.04304452705732861,-0.010698133440389567,-0.2824042318635789,2.02996826171875,2019-07-26 14:15:53:104,15.181100719155728,2.5998071121544832,0,-38.234432220458984,38.234432220458984,-31.936996459960938
1.007761001586914,0.25839829444885254,9.332655906677246,0.009698937245635154,0.023132271323887905,-0.2927930901179235,2.0399832725524902,2019-07-26 14:15:53:114,11.38773138999721,6.11063737370469,0,-38.234432220458984,38.234432220458984,-31.936996459960938
0.8449179530143738,0.2488192766904831,8.777073860168457,-0.04917129559262403,-0.05172083125031936,-0.2520367885198938,2.0499660968780518,2019-07-26 14:15:53:124,7.698939840718502,9.58351021729112,0,-38.234432220458984,38.234432220458984,-31.936996459960938
-1.9904656410217285,0.7996116876602173,8.894416809082031,-0.1258890644995099,-0.037069866632168755,-0.22300124197162774,2.0599682331085205,2019-07-26 14:15:53:134,10.91349453783927,12.959799570110615,0,-38.234432220458984,38.234432220458984,-31.936996459960938
4.71962308883667,1.6042475700378418,8.29572868347168,0.060044974001039156,-0.003239461087668304,-0.26801964993346344,2.0699846744537354,2019-07-26 14:15:53:144,7.689776647665685,16.04793511412344,0,-38.234432220458984,38.234432220458984,-31.936996459960938
2.3009257316589355,-0.8982658386230469,10.609057426452637,-0.02413146855893962,-0.03467243700401438,-0.2693515633736393,2.080599069595337,2019-07-26 14:15:53:155,4.20138516247337,12.238152171770718,0,-38.234432220458984,38.234432220458984,-31.936996459960938
1.58250093460083,-0.1846304088830948,9.200944900512695,-0.05343339363405162,-0.04186472588847749,-0.24164791362079235,2.089968204498291,2019-07-26 14:15:53:164,0.7345616474430079,8.44449052137911,0,-38.234432220458984,38.234432220458984,-31.936996459960938
1.3765524625778198,-0.12715642154216766,10.101369857788086,-0.04544195876607758,-0.0376026278470499,-0.2056864671178822,2.100188970565796,2019-07-26 14:15:53:175,-2.7033473406462822,4.716103673250467,0,-38.234432220458984,38.234432220458984,-31.936996459960938
1.180182933807373,-0.22055165469646454,9.61044692993164,-0.019869370517512027,-0.03573796151437128,-0.19902693320651643,2.110003709793091,2019-07-26 14:15:53:184,-6.089565552095193,1.0590247172663374,0,-38.234432220458984,38.234432220458984,-31.936996459960938
1.27357816696167,0.16500304639339447,9.119523048400879,0.012362748521527401,0.004219211004978634,-0.1721224481625318,2.1199965476989746,2019-07-26 14:15:53:194,-9.411138264767503,4.610176297640498,0,-38.234432220458984,38.234432220458984,-31.936996459960938
2.025529623031616,0.1362660527229309,9.914579391479492,-0.02546337367673709,-0.03280776859074116,-0.12017811527891674,2.1300013065338135,2019-07-26 14:15:53:204,-12.573554689530862,8.116528744564928,0,-44.981685638427734,38.984127044677734,-34.18608093261719
1.3597891330718994,0.028502311557531357,9.567340850830078,0.00943255663819458,-0.00856708389952712,-0.09860125070612201,2.1399714946746826,2019-07-26 14:15:53:214,-15.755504144292216,11.545503774862436,0,-44.981685638427734,38.984127044677734,-34.18608093261719
2.1404776573181152,0.29910901188850403,9.186575889587402,0.008899794383016132,0.01753826816466284,-0.07729075217660564,2.149991750717163,2019-07-26 14:15:53:224,-18.78794290488543,14.872289254729669,0,-44.981685638427734,38.984127044677734,-34.18608093261719
1.27357816696167,0.18416103720664978,9.373366355895996,0.013161892424443725,-0.002973079960079079,-0.04079654029762512,2.160444974899292,2019-07-26 14:15:53:235,-21.855688795115856,18.144606920840797,0,-44.981685638427734,38.984127044677734,-34.18608093261719
1.4867109060287476,-0.35705238580703735,9.792448043823242,-0.006017549802277746,0.010079596592164551,-0.016822235693703003,2.169989824295044,2019-07-26 14:15:53:244,-24.851320206138844,14.226703729807985,0,-44.981685638427734,38.984127044677734,-34.18608093261719
0.8999972343444824,-0.26605188846588135,9.811605453491211,-0.0030873573987962753,-0.0013747930645065694,0.014344357794682223,2.180093288421631,2019-07-26 14:15:53:254,-27.848694850732862,10.374986219111298,0,-44.981685638427734,38.984127044677734,-34.18608093261719
0.6413642764091492,-0.13913017511367798,9.814000129699707,-0.010812410098883788,-0.007235178261580997,0.034056562276582145,2.1899728775024414,2019-07-26 14:15:53:264,-30.812925823110003,6.589728762935789,0,-44.981685638427734,38.984127044677734,-34.18608093261719
0.4881002902984619,-0.3139469027519226,9.665525436401367,-0.028393566600367213,0.002620923979368962,0.041248853241639856,2.200387954711914,2019-07-26 14:15:53:275,-33.740381451394406,2.9117464103407755,0,-44.981685638427734,38.984127044677734,-34.18608093261719
0.19354607164859772,-0.1966041624546051,9.842737197875977,-0.0038865007815639487,0.005018354127671983,0.04684285640086493,2.2104010581970215,2019-07-26 14:15:53:285,-36.645865109209076,-0.7214172983377223,0,-44.981685638427734,38.984127044677734,-34.18608093261719
-0.007612909190356731,0.25839829444885254,9.873868942260742,0.013961035287062747,0.002088161724190513,0.051904098345208836,2.2202272415161133,2019-07-26 14:15:53:295,-32.31498344586329,2.855326533516502,0,-44.981685638427734,38.984127044677734,-34.18608093261719
0.31088879704475403,-0.11757741868495941,9.931343078613281,-0.012144316256978562,0.006083879158177532,0.04764200030378125,2.2299792766571045,2019-07-26 14:15:53:304,-35.23615535535968,-0.7815641782617617,0,-44.981685638427734,38.984127044677734,-34.18608093261719
0.8592864871025085,-0.2564729154109955,9.643973350524902,0.011297224011170502,0.022865890716447332,0.025265985586286382,2.2399890422821045,2019-07-26 14:15:53:314,-38.04245078372723,-4.341815038117799,0,-44.981685638427734,38.984127044677734,-34.18608093261719
0.34920480847358704,0.5098469853401184,9.332655906677246,0.04512763085604257,0.00022349378230200473,0.03751951641509341,2.249964952468872,2019-07-26 14:15:53:324,-40.83886963506675,-0.742796491453015,0,-44.981685638427734,38.984127044677734,-34.18608093261719
0.8592864871025085,0.2943195402622223,9.380550384521484,0.03953362353562831,0.02046846108829296,0.031126369352952023,2.259989023208618,2019-07-26 14:15:53:334,-43.52893575617665,2.8138660364761825,0,-45.58143997192383,39.88376235961914,-35.08571243286133
0.5599427819252014,0.7062164545059204,9.299129486083984,0.05604925448645753,0.015140837496211167,0.023134936565572584,2.269976854324341,2019-07-26 14:15:53:344,-46.19793069104681,6.239296336688115,0,-45.58143997192383,39.88376235961914,-35.08571243286133
0.8808392286300659,0.0069495635107159615,9.512262344360352,0.01529294144515752,0.017804648772103412,0.022335792662656263,2.2799789905548096,2019-07-26 14:15:53:354,-48.77816101253892,9.705084415475532,0,-45.58143997192383,39.88376235961914,-35.08571243286133
0.8377337455749512,0.12189754843711853,9.660736083984375,0.030476666237891973,-0.0013747930645065694,0.018872838524144994,2.289973258972168,2019-07-26 14:15:53:364,-51.302705812878195,13.079421725216775,0,-45.58143997192383,39.88376235961914,-35.08571243286133
0.7611017227172852,-0.328315407037735,9.586499214172363,0.014760179189979072,0.013276170123235247,0.013811595539503774,2.299973487854004,2019-07-26 14:15:53:374,-53.79331908027575,9.248774904131709,0,-45.58143997192383,39.88376235961914,-35.08571243286133
0.5695217847824097,-0.00023468547442462295,9.624814987182617,0.013161892424443725,0.002887305106958187,0.027130653999559603,2.3099567890167236,2019-07-26 14:15:53:384,-56.25134379841398,5.456449303735911,0,-45.58143997192383,39.88376235961914,-35.08571243286133
0.6724960207939148,-0.0265769325196743,9.756525993347168,0.004104933306187114,-0.0011084119369173448,0.03485570617949847,2.3199732303619385,2019-07-26 14:15:53:394,-58.646832801747784,1.7481330982421146,0,-45.58143997192383,39.88376235961914,-35.08571243286133
0.4497842788696289,0.17458204925060272,9.677499771118164,0.019022277231406665,0.012743407868056797,0.03672037251217709,2.3299596309661865,2019-07-26 14:15:53:404,-61.02782103183248,5.2818339093644315,0,-45.58143997192383,39.88376235961914,-35.08571243286133
0.15283532440662384,-0.05531392991542816,10.02952766418457,-0.002820976271207051,-0.011497276303008591,0.044711807380151125,2.3401730060577393,2019-07-26 14:15:53:415,-63.38321043231999,1.5841347879357621,0,-45.58143997192383,39.88376235961914,-35.08571243286133
0.28933605551719666,-0.11997216939926147,9.8187894821167,0.003838552178597889,0.002620923979368962,0.045777333971102625,2.3501832485198975,2019-07-26 14:15:53:425,-65.68326177505521,-2.035704633767635,0,-45.58143997192383,39.88376235961914,-35.08571243286133
0.06183483079075813,-0.23252540826797485,9.979238510131836,-0.01027964784370534,-0.0013747930645065694,0.041515235929675036,2.359985828399658,2019-07-26 14:15:53:434,-67.96173943438686,-5.56263643050085,0,-45.58143997192383,39.88376235961914,-35.08571243286133
0.3707575500011444,-0.2109726518392563,9.976842880249023,-0.0017554517608501525,-0.006702416006402549,0.040449709338723536,2.369978666305542,2019-07-26 14:15:53:444,-70.15617923171496,-9.026170536006257,0,-45.58143997192383,39.88376235961914,-35.08571243286133
0.15044057369232178,-0.15349866449832916,9.914579391479492,-0.0030873573987962753,-0.0016411741920957937,0.033523801061701,2.379987955093384,2019-07-26 14:15:53:454,-72.33474686122277,-12.426172187683209,0,-45.28156280517578,38.68424987792969,-34.78583526611328
0.2869412899017334,-0.15589341521263123,9.861895561218262,0.005170458076618337,0.0004898749261458747,0.03379018166914157,2.38996958732605,2019-07-26 14:15:53:464,-74.45499437596571,-15.762433890025541,0,-45.28156280517578,38.68424987792969,-34.78583526611328
0.39470502734184265,0.05244980752468109,9.878658294677734,0.008633412735278257,0.001289018341422839,0.027397034607000176,2.3999862670898438,2019-07-26 14:15:53:474,-76.52085838612994,-11.858125021422657,0,-45.28156280517578,38.68424987792969,-34.78583526611328
0.3132835626602173,-0.16786716878414154,9.816394805908203,0.003039408795830215,0.004219211004978634,0.018073694621228667,2.4100265502929688,2019-07-26 14:15:53:484,-78.55626113510753,-15.203081977116906,0,-45.28156280517578,38.68424987792969,-34.78583526611328
0.39470502734184265,0.047660309821367264,9.847526550292969,0.009698937245635154,0.007415784796123656,0.018872838524144994,2.4201807975769043,2019-07-26 14:15:53:495,-80.5434584881297,-11.310096267944669,0,-45.28156280517578,38.68424987792969,-34.78583526611328
0.4833107888698578,-0.13913017511367798,9.837947845458984,0.009698937245635154,0.0015553994690120636,0.008750354635457157,2.430189609527588,2019-07-26 14:15:53:505,-82.4772130472211,-14.67314040031914,0,-45.28156280517578,38.68424987792969,-34.78583526611328
0.5862849950790405,0.15302929282188416,9.670315742492676,0.021686089547596214,0.00714940366853443,0.00715206734977316,2.440028190612793,2019-07-26 14:15:53:514,-84.36222954874147,-10.80978993845314,0,-45.28156280517578,38.68424987792969,-34.78583526611328
0.6078377366065979,-0.19420941174030304,9.744552612304688,0.0027730276682409903,0.0023545428517797373,-0.004302321916786473,2.450155735015869,2019-07-26 14:15:53:524,-86.20493739711723,-14.17233591942166,0,-45.28156280517578,38.68424987792969,-34.78583526611328
0.5288110375404358,0.02371281199157238,9.627209663391113,0.014493797542241197,0.002887305106958187,-0.0008393669980522279,2.460904836654663,2019-07-26 14:15:53:535,-88.01970073855995,-10.300459588867504,0,-45.28156280517578,38.68424987792969,-34.78583526611328
0.5862849950790405,-0.09602466970682144,9.849921226501465,-0.0017554517608501525,-0.002706698832489855,-0.006699752325163819,2.4699723720550537,2019-07-26 14:15:53:544,-89.78980205763499,-13.68238570500611,0,-45.28156280517578,38.68424987792969,-34.78583526611328
0.567126989364624,-0.0984194204211235,9.670315742492676,0.0009083597100978372,0.001289018341422839,0.0004925387374217668,2.4799766540527344,2019-07-26 14:15:53:554,-91.52760343438729,-16.99758612461309,0,-45.28156280517578,38.68424987792969,-34.78583526611328
0.23186205327510834,-0.03136643022298813,9.945711135864258,-0.0070830748327832945,-0.0013747930645065694,0.0023572067930927925,2.4899773597717285,2019-07-26 14:15:53:564,-93.2695697408933,-20.25004304869548,0,-45.28156280517578,38.68424987792969,-34.78583526611328
0.363573282957077,-0.07686667889356613,9.79005241394043,-0.014541746925430234,-0.004571366985688751,-0.0029704160187660244,2.5000357627868652,2019-07-26 14:15:53:574,-94.95906020659723,-23.427832348525488,0,-45.28156280517578,38.68424987792969,-34.78583526611328
0.18396706879138947,0.11231855303049088,9.876263618469238,-0.004152881909153174,0.002620923979368962,0.0039554935586281394,2.509997844696045,2019-07-26 14:15:53:584,-96.64000234484105,-19.369984155600644,0,-45.731380462646484,38.83418655395508,-34.63589859008789
0.3851260542869568,-0.043340180069208145,9.816394805908203,0.0003755974224100973,0.0018217805966012882,0.0015580632802879558,2.5199952125549316,2019-07-26 14:15:53:594,-98.2632903607497,-22.577736036923433,0,-45.731380462646484,38.83418655395508,-34.63589859008789
0.2150988131761551,0.03568655997514725,9.758920669555664,0.0014411220302948675,0.0010226372138336143,-0.0037695596616080236,2.5300207138061523,2019-07-26 14:15:53:604,-99.873346903858,-18.531182949533463,0,-45.731380462646484,38.83418655395508,-34.63589859008789
0.19354607164859772,-0.1894199103116989,9.811605453491211,-0.002021832888439377,-0.0024403177049006305,-0.006433371197574595,2.540008068084717,2019-07-26 14:15:53:614,-101.45190979027352,-21.737305515094135,0,-45.731380462646484,38.83418655395508,-34.63589859008789
0.34920480847358704,-0.024182181805372238,9.732579231262207,-0.0009563083130638975,0.004485591872493534,-0.009896326376383165,2.5499932765960693,2019-07-26 14:15:53:624,-102.98428871719953,-24.89917602474884,0,-45.731380462646484,38.83418655395508,-34.63589859008789
0.30370455980300903,-0.1582881659269333,9.758920669555664,-0.001489070633260928,0.005018354127671983,-0.008830800825728966,2.5599870681762695,2019-07-26 14:15:53:634,-104.49176878946312,-27.98177197036328,0,-45.731380462646484,38.83418655395508,-34.63589859008789
0.5072582960128784,-0.01460318360477686,9.701447486877441,0.011030843403729928,0.00395282987738941,-0.014691186672989206,2.5700573921203613,2019-07-26 14:15:53:644,-105.94430670717989,-31.02664899422392,0,-45.731380462646484,38.83418655395508,-34.63589859008789
0.4426000416278839,0.0021600641775876284,9.756525993347168,-0.0009563083130638975,0.002620923979368962,-0.017088616301143576,2.579989194869995,2019-07-26 14:15:53:654,-107.37493389632274,-26.80583641258664,0,-45.731380462646484,38.83418655395508,-34.63589859008789
0.5192320346832275,0.06681830435991287,9.770895004272461,0.006502363714564459,-0.0003092685216403804,-0.006699752325163819,2.590047597885132,2019-07-26 14:15:53:664,-108.76642303709303,-22.681228302223023,0,-45.731380462646484,38.83418655395508,-34.63589859008789
0.4042840301990509,0.06442355364561081,9.8187894821167,-0.0012226895056717034,-0.0008420308093281202,-0.007498895707931493,2.599994659423828,2019-07-26 14:15:53:674,-110.14346838208166,-18.63443936535994,0,-45.731380462646484,38.83418655395508,-34.63589859008789
0.45936328172683716,0.033291809260845184,9.782868385314941,-0.000689927185474673,-0.004304985598025202,-0.003503178534018799,2.6100215911865234,2019-07-26 14:15:53:684,-111.48440726927097,-14.66526176020741,0,-45.731380462646484,38.83418655395508,-34.63589859008789
0.3659680485725403,0.05244980752468109,9.766105651855469,-0.0030873573987962753,-0.004837748113277977,-0.0029704160187660244,2.6200926303863525,2019-07-26 14:15:53:694,-112.80906230089296,-10.776364853512959,0,-45.731380462646484,38.83418655395508,-34.63589859008789
0.38033655285835266,-0.01939268223941326,9.65115737915039,0.003039408795830215,0.002088161724190513,-0.0029704160187660244,2.6300086975097656,2019-07-26 14:15:53:704,-114.108908383432,-14.1602272984323,0,-45.881317138671875,39.88376235961914,-35.08571243286133
0.3731522858142853,-0.043340180069208145,9.773289680480957,0.0003755974224100973,-0.002173936447274243,0.0012916821526987312,2.6400821208953857,2019-07-26 14:15:53:714,-115.38176982721986,-17.472153607222356,0,-45.881317138671875,39.88376235961914,-35.08571243286133
0.4162577986717224,-0.1056036725640297,9.739763259887695,0.0003755974224100973,-0.002706698832489855,0.0012916821526987312,2.649989604949951,2019-07-26 14:15:53:724,-116.62368435206672,-20.71049534439051,0,-45.881317138671875,39.88376235961914,-35.08571243286133
0.45936328172683716,-0.13913017511367798,9.833158493041992,-0.005751168674688521,-0.0037722233428467535,0.0050210183290593634,2.6600232124328613,2019-07-26 14:15:53:734,-117.83559204420081,-23.87683273845276,0,-45.881317138671875,39.88376235961914,-35.08571243286133
0.4976792633533478,-0.11997216939926147,9.758920669555664,-0.0009563083130638975,-0.005104129240867201,0.006885686222183935,2.6700894832611084,2019-07-26 14:15:53:744,-119.01760715249581,-26.984668852550982,0,-45.881317138671875,39.88376235961914,-35.08571243286133
0.5407847762107849,-0.08884042501449585,9.823579788208008,-0.0012226895056717034,-0.0003092685216403804,0.011414165911349403,2.680009365081787,2019-07-26 14:15:53:754,-120.17406408480655,-30.033931529504915,0,-45.881317138671875,39.88376235961914,-35.08571243286133
0.5312057733535767,-0.057708676904439926,9.763710975646973,0.002240265413062541,0.0015553994690120636,0.019671980346466715,2.6901323795318604,2019-07-26 14:15:53:764,-121.30918346862254,-33.02775339284038,0,-45.881317138671875,39.88376235961914,-35.08571243286133
0.5647322535514832,-0.028971681371331215,9.761316299438477,0.001174740902705643,-4.288736560552649e-05,0.018340075228669244,2.7000038623809814,2019-07-26 14:15:53:774,-122.41675392062604,-35.96444838462254,0,-45.881317138671875,39.88376235961914,-35.08571243286133
0.5216267704963684,-0.03136643022298813,9.828369140625,0.003838552178597889,-0.002173936447274243,0.023667697780453734,2.710031509399414,2019-07-26 14:15:53:784,-123.5064339659908,-38.84366363486925,0,-45.881317138671875,39.88376235961914,-35.08571243286133
0.5072582960128784,-0.04812967777252197,9.787657737731934,0.0003755974224100973,-0.0056368914960456505,0.022069412055215686,2.720005512237549,2019-07-26 14:15:53:794,-124.57381290484334,-41.66136584904131,0,-45.881317138671875,39.88376235961914,-35.08571243286133
0.48091602325439453,-0.0529191792011261,9.770895004272461,-0.0012226895056717034,-0.005104129240867201,0.025265985586286382,2.7299845218658447,2019-07-26 14:15:53:804,-125.62312108520423,-44.42124721509114,0,-45.881317138671875,39.88376235961914,-35.08571243286133
0.4881002902984619,-0.09602466970682144,9.821184158325195,0.002240265413062541,0.001289018341422839,0.025265985586286382,2.739975929260254,2019-07-26 14:15:53:814,-126.65447810374963,-47.122875491715725,0,-45.881317138671875,39.88376235961914,-35.08571243286133
0.461758017539978,-0.10799842327833176,9.785263061523438,-0.001489070633260928,0.0018217805966012882,0.023667697780453734,2.749983549118042,2019-07-26 14:15:53:824,-127.66837757717364,-49.76693445536789,0,-45.881317138671875,39.88376235961914,-35.08571243286133
0.43302103877067566,-0.12715642154216766,9.854711532592773,-0.0009563083130638975,-0.0005756496817388956,0.016741788463133896,2.7599897384643555,2019-07-26 14:15:53:834,-128.66436685358812,-52.35627341429712,0,-44.381927490234375,39.88376235961914,-35.985347747802734
0.47852128744125366,-0.11278792470693588,9.773289680480957,0.002506646540651766,0.00022349378230200473,0.013278833284325326,2.7700207233428955,2019-07-26 14:15:53:844,-129.6351436745414,-54.897336018839866,0,-44.381927490234375,39.88376235961914,-35.985347747802734
0.4904950261116028,-0.08884042501449585,9.730184555053711,-0.001489070633260928,0.002088161724190513,0.01301245267688475,2.7800045013427734,2019-07-26 14:15:53:854,-130.585895070546,-57.388092172814744,0,-44.381927490234375,39.88376235961914,-35.985347747802734
0.5072582960128784,-0.1511039137840271,9.780473709106445,0.0009083597100978372,0.00075625608624439,0.015942644560217573,2.7900242805480957,2019-07-26 14:15:53:864,-131.51522363687113,-59.82313890953194,0,-44.381927490234375,39.88376235961914,-35.985347747802734
0.5048635005950928,-0.0792614221572876,9.804421424865723,0.0033057899234194394,0.0023545428517797373,0.008750354635457157,2.800004720687866,2019-07-26 14:15:53:874,-132.42728357289778,-62.2192650275836,0,-44.381927490234375,39.88376235961914,-35.985347747802734
0.4976792633533478,-0.06010342761874199,9.775684356689453,0.0009083597100978372,0.0018217805966012882,0.0050210183290593634,2.8100035190582275,2019-07-26 14:15:53:884,-133.32147256280894,-64.56834441278859,0,-44.381927490234375,39.88376235961914,-35.985347747802734
0.4569685459136963,-0.06249817833304405,9.847526550292969,0.0014411220302948675,0.002887305106958187,0.000226157593577897,2.8200132846832275,2019-07-26 14:15:53:894,-134.20352850859456,-66.87051494812718,0,-44.381927490234375,39.88376235961914,-35.985347747802734
0.46654751896858215,-0.016997933387756348,9.811605453491211,0.0017075031578840923,-0.0011084119369173448,0.0018244444078771805,2.830021858215332,2019-07-26 14:15:53:904,-135.06438709530804,-69.13207901369476,0,-44.381927490234375,39.88376235961914,-35.985347747802734
0.4761265218257904,-0.043340180069208145,9.763710975646973,-0.0012226895056717034,-0.0019075553196850185,0.002090825535466405,2.840008497238159,2019-07-26 14:15:53:914,-135.90619345186056,-71.34366523580847,0,-44.381927490234375,39.88376235961914,-35.985347747802734
0.48091602325439453,-0.06249817833304405,9.768500328063965,-0.0033537385263855,0.004219211004978634,-0.0029704160187660244,2.850001096725464,2019-07-26 14:15:53:924,-136.73406750224805,-73.50757881772661,0,-44.381927490234375,39.88376235961914,-35.985347747802734
0.43541577458381653,-0.08405092358589172,9.780473709106445,0.0009083597100978372,-0.0005756496817388956,0.0015580632802879558,2.8600096702575684,2019-07-26 14:15:53:934,-137.5480814279657,-75.62809025433026,0,-44.381927490234375,39.88376235961914,-35.985347747802734
0.461758017539978,-0.0792614221572876,9.756525993347168,0.001973884285473317,0.0010226372138336143,-0.0029704160187660244,2.8700129985809326,2019-07-26 14:15:53:944,-138.3435006106917,-77.70732800789533,0,-44.381927490234375,39.88376235961914,-35.985347747802734
0.40907353162765503,-0.06249817833304405,9.763710975646973,0.001973884285473317,-0.003239461087668304,-0.001372129253230677,2.8800337314605713,2019-07-26 14:15:53:954,-139.12682512059763,-79.74695709548337,0,-45.58143997192383,39.88376235961914,-36.58510208129883
0.43541577458381653,-0.07686667889356613,9.718210220336914,0.0017075031578840923,-0.0024403177049006305,-0.001372129253230677,2.8900139331817627,2019-07-26 14:15:53:964,-139.89161367932243,-81.74391132734887,0,-45.58143997192383,39.88376235961914,-36.58510208129883
0.38033655285835266,-0.04812967777252197,9.701447486877441,0.0003755974224100973,0.00075625608624439,0.002623587920682017,2.900014877319336,2019-07-26 14:15:53:974,-140.64930448360533,-83.70355908343608,0,-45.58143997192383,39.88376235961914,-36.58510208129883
0.40188929438591003,-0.04094542935490608,9.830763816833496,0.004371314693850663,-0.0008420308093281202,0.0004925387374217668,2.9100193977355957,2019-07-26 14:15:53:984,-141.3890255284904,-85.6271707529719,0,-45.58143997192383,39.88376235961914,-36.58510208129883
0.3779417872428894,-0.06728767603635788,9.768500328063965,-0.0012226895056717034,-0.004038604470435978,-0.0016385103808199016,2.9200117588043213,2019-07-26 14:15:53:994,-142.1146658819702,-87.50604811866593,0,-45.58143997192383,39.88376235961914,-36.58510208129883
0.4258367717266083,-0.005024184938520193,9.79963207244873,0.002506646540651766,-0.0005756496817388956,-0.0019048915084091261,2.9300284385681152,2019-07-26 14:15:54:004,-142.82228507326536,-89.35674948178972,0,-45.58143997192383,39.88376235961914,-36.58510208129883
0.4186525344848633,0.00934431329369545,9.804421424865723,-0.0033537385263855,-0.002173936447274243,0.0028899690482712416,2.9400134086608887,2019-07-26 14:15:54:014,-143.5157192178302,-83.96882634184949,0,-45.58143997192383,39.88376235961914,-36.58510208129883
0.4186525344848633,-0.0026294351555407047,9.809210777282715,0.0003755974224100973,-0.004837748113277977,-0.0059006089423961445,2.950012683868408,2019-07-26 14:15:54:024,-144.1938111622589,-85.88935352559929,0,-45.58143997192383,39.88376235961914,-36.58510208129883
0.4162577986717224,-0.04094542935490608,9.758920669555664,-0.0017554517608501525,-0.0016411741920957937,-0.0032367971463552496,2.960015296936035,2019-07-26 14:15:54:034,-144.86016481410329,-87.76577263261751,0,-45.58143997192383,39.88376235961914,-36.58510208129883
0.3923102915287018,-0.009813684038817883,9.69186782836914,0.003039408795830215,-4.288736560552649e-05,-0.005367846167069046,2.970210075378418,2019-07-26 14:15:54:045,-145.51657756629015,-89.61103672711948,0,-45.58143997192383,39.88376235961914,-36.58510208129883
0.44738954305648804,-0.05531392991542816,9.768500328063965,0.0003755974224100973,-0.005903272623634875,-0.005367846167069046,2.9799861907958984,2019-07-26 14:15:54:054,-146.15056017239982,-91.4125335145056,0,-45.58143997192383,39.88376235961914,-36.58510208129883
0.4426000416278839,-0.0265769325196743,9.842737197875977,-0.0012226895056717034,-0.0008420308093281202,0.000226157593577897,2.989971399307251,2019-07-26 14:15:54:064,-146.77558297641392,-93.18050317710704,0,-45.58143997192383,39.88376235961914,-36.58510208129883
0.4713370203971863,-0.050524428486824036,9.811605453491211,0.001973884285473317,-0.0003092685216403804,0.0039554935586281394,2.9999759197235107,2019-07-26 14:15:54:074,-147.38489154694858,-94.91210115840627,0,-45.58143997192383,39.88376235961914,-36.58510208129883
0.43541577458381653,-0.03376118093729019,9.722999572753906,0.0003755974224100973,-0.005104129240867201,0.0015580632802879558,3.010063886642456,2019-07-26 14:15:54:084,-147.98302036603727,-96.61009294004457,0,-44.68180847167969,39.28400421142578,-34.18608093261719
0.41386303305625916,-0.06249817833304405,9.732579231262207,-0.00015716488153228781,0.005284735255261208,-4.022355432963424e-05,3.019979476928711,2019-07-26 14:15:54:094,-148.57760331566539,-98.27044513291011,0,-44.68180847167969,39.28400421142578,-34.18608093261719
0.4306262731552124,-0.03855068236589432,9.713420867919922,-0.002288214016028602,0.0010226372138336143,0.0023572067930927925,3.030043601989746,2019-07-26 14:15:54:104,-149.1558603684563,-99.89919526950715,0,-44.68180847167969,39.28400421142578,-34.18608093261719
0.4761265218257904,-0.03136643022298813,9.742157936096191,0.0035721710510086637,0.002620923979368962,0.0039554935586281394,3.0401129722595215,2019-07-26 14:15:54:114,-149.71826543917672,-101.49954160224077,0,-44.68180847167969,39.28400421142578,-34.18608093261719
0.4497842788696289,-0.04573493078351021,9.773289680480957,0.001174740902705643,-0.0061696537512241,0.0012916821526987312,3.049997091293335,2019-07-26 14:15:54:124,-150.26777612162428,-103.06484037271795,0,-44.68180847167969,39.28400421142578,-34.18608093261719
0.4162577986717224,-0.06010342761874199,9.802026748657227,-0.001489070633260928,-0.0008420308093281202,0.0010253010251095067,3.0600032806396484,2019-07-26 14:15:54:134,-150.81331370093343,-104.59568057429304,0,-44.68180847167969,39.28400421142578,-34.18608093261719
0.42104730010032654,-0.03855068236589432,9.756525993347168,-0.004152881909153174,0.0010226372138336143,0.0007589198975202821,3.069979190826416,2019-07-26 14:15:54:144,-151.34819841226948,-106.0969129426554,0,-44.68180847167969,39.28400421142578,-34.18608093261719
0.44020527601242065,-0.050524428486824036,9.797237396240234,-0.004685644164331623,0.0023545428517797373,-0.0008393669980522279,3.0799849033355713,2019-07-26 14:15:54:154,-151.87110408991887,-107.56643275491645,0,-44.68180847167969,39.28400421142578,-34.18608093261719
0.4114682972431183,-0.028971681371331215,9.744552612304688,0.001174740902705643,-0.004038604470435978,0.006352923967005486,3.089987277984619,2019-07-26 14:15:54:164,-152.38305570332162,-109.01235694239446,0,-44.68180847167969,39.28400421142578,-34.18608093261719
0.45217904448509216,-0.04094542935490608,9.756525993347168,0.0017075031578840923,-0.0024403177049006305,-0.002171272635998351,3.099996328353882,2019-07-26 14:15:54:174,-152.88095212386054,-110.42826037078156,0,-44.68180847167969,39.28400421142578,-34.18608093261719
0.42823153734207153,-0.0529191792011261,9.744552612304688,-0.0009563083130638975,-0.0011084119369173448,-4.022355432963424e-05,3.109978437423706,2019-07-26 14:15:54:184,-153.3723860991114,-111.81293616177821,0,-44.68180847167969,39.28400421142578,-34.18608093261719
0.4761265218257904,-0.07447192817926407,9.763710975646973,-0.0017554517608501525,-0.0019075553196850185,-0.0005729858704630034,3.1199791431427,2019-07-26 14:15:54:194,-153.8480309689185,-113.16695147475959,0,-44.68180847167969,39.28400421142578,-34.18608093261719
0.4833107888698578,-0.04573493078351021,9.766105651855469,0.0009083597100978372,-0.0011084119369173448,-0.0019048915084091261,3.130037307739258,2019-07-26 14:15:54:204,-154.31378084047455,-114.49875914089367,0,-45.131622314453125,40.33357620239258,-34.93577575683594
0.44020527601242065,-0.09362992644309998,9.751736640930176,-0.00628393092986697,-0.002973079960079079,-0.001372129253230677,3.1399807929992676,2019-07-26 14:15:54:214,-154.7741523445625,-115.79427347103491,0,-45.131622314453125,40.33357620239258,-34.93577575683594
0.47852128744125366,-0.057708676904439926,9.802026748657227,-0.0038865007815639487,0.00022349378230200473,0.006086542839416261,3.1499974727630615,2019-07-26 14:15:54:224,-155.2228973740144,-117.06945568498841,0,-45.131622314453125,40.33357620239258,-34.93577575683594
0.4689422845840454,-0.0792614221572876,9.77807903289795,0.002506646540651766,0.0010226372138336143,-0.0032367971463552496,3.15999698638916,2019-07-26 14:15:54:234,-155.66409925779547,-118.3201853563791,0,-45.131622314453125,40.33357620239258,-34.93577575683594
0.4449947774410248,-0.09123517572879791,9.751736640930176,0.0014411220302948675,-0.0037722233428467535,-0.0027040348911768,3.1700406074523926,2019-07-26 14:15:54:244,-156.0964353498587,-119.54387373711174,0,-45.131622314453125,40.33357620239258,-34.93577575683594
0.4952845275402069,-0.10081417113542557,9.828369140625,-0.002288214016028602,0.00075625608624439,-0.0024376537635875752,3.18011474609375,2019-07-26 14:15:54:254,-156.51723670082376,-120.73994812874403,0,-45.131622314453125,40.33357620239258,-34.93577575683594
0.4641527831554413,-0.06968242675065994,9.785263061523438,0.0009083597100978372,0.002088161724190513,0.0012916821526987312,3.190002918243408,2019-07-26 14:15:54:264,-156.9337368679582,-121.91749339454748,0,-45.131622314453125,40.33357620239258,-34.93577575683594
0.49288979172706604,-0.036155931651592255,9.754131317138672,-0.000689927185474673,-0.0019075553196850185,0.002623587920682017,3.199983835220337,2019-07-26 14:15:54:274,-157.3361375894912,-123.07450929244601,0,-45.131622314453125,40.33357620239258,-34.93577575683594
0.48570552468299866,-0.057708676904439926,9.830763816833496,0.001973884285473317,0.002088161724190513,0.004221874686217364,3.2099802494049072,2019-07-26 14:15:54:284,-157.73401701758038,-124.20740035125597,0,-45.131622314453125,40.33357620239258,-34.93577575683594
0.44738954305648804,-0.06968242675065994,9.828369140625,0.002506646540651766,0.0015553994690120636,-0.0008393669980522279,3.219985246658325,2019-07-26 14:15:54:294,-158.12808412016983,-125.31653620363105,0,-45.131622314453125,40.33357620239258,-34.93577575683594
0.44020527601242065,-0.10320892184972763,9.79005241394043,-0.0036201196539747244,-0.0003092685216403804,-0.002171272635998351,3.2299816608428955,2019-07-26 14:15:54:304,-158.51385795320385,-126.39609346528295,0,-45.131622314453125,40.33357620239258,-34.93577575683594
0.4378105401992798,-0.016997933387756348,9.775684356689453,0.0035721710510086637,-0.002973079960079079,-0.002171272635998351,3.239997625350952,2019-07-26 14:15:54:314,-158.89062242610981,-127.46818805436781,0,-45.131622314453125,40.33357620239258,-34.93577575683594
0.4426000416278839,-0.07447192817926407,9.854711532592773,0.002240265413062541,-0.0011084119369173448,-0.0024376537635875752,3.24997878074646,2019-07-26 14:15:54:324,-159.26075737143324,-128.51142032426458,0,-45.131622314453125,40.33357620239258,-34.93577575683594
0.46654751896858215,-0.09602466970682144,9.739763259887695,-0.0009563083130638975,0.002088161724190513,-0.003503178534018799,3.259981870651245,2019-07-26 14:15:54:334,-159.62186614193587,-129.52935752982418,0,-44.83174514770508,38.83418655395508,-34.93577575683594
0.4306262731552124,-0.10320892184972763,9.734973907470703,-0.001489070633260928,-0.0005756496817388956,-0.00030660471036448813,3.2699837684631348,2019-07-26 14:15:54:344,-159.97844901333838,-130.52578571714378,0,-44.83174514770508,38.83418655395508,-34.93577575683594
0.3970997929573059,-0.06968242675065994,9.773289680480957,0.0006419785825086126,0.0015553994690120636,-0.002171272635998351,3.279982805252075,2019-07-26 14:15:54:354,-160.33321905591433,-131.50746033079963,0,-44.83174514770508,38.83418655395508,-34.93577575683594
0.44738954305648804,-0.043340180069208145,9.770895004272461,-0.001489070633260928,0.002887305106958187,0.0023572067930927925,3.29000186920166,2019-07-26 14:15:54:364,-160.67574644529523,-132.47139058253484,0,-44.83174514770508,38.83418655395508,-34.93577575683594
0.4306262731552124,-0.072077177464962,9.758920669555664,-0.0033537385263855,-0.0003092685216403804,-0.0024376537635875752,3.299978494644165,2019-07-26 14:15:54:374,-161.01152589189542,-133.41162073388642,0,-44.83174514770508,38.83418655395508,-34.93577575683594
0.43541577458381653,-0.021787432953715324,9.806816101074219,0.0009083597100978372,0.005817498030588307,-0.0024376537635875752,3.309983253479004,2019-07-26 14:15:54:384,-161.34371898749112,-134.3413527714707,0,-44.83174514770508,38.83418655395508,-34.93577575683594
0.44020527601242065,-0.06489292532205582,9.79963207244873,0.001174740902705643,-0.002706698832489855,0.002623587920682017,3.319981098175049,2019-07-26 14:15:54:394,-161.66388450206014,-135.24759707502778,0,-44.83174514770508,38.83418655395508,-34.93577575683594
0.46654751896858215,-0.0529191792011261,9.816394805908203,-0.0009563083130638975,0.0004898749261458747,-0.00030660471036448813,3.3299942016601562,2019-07-26 14:15:54:404,-161.97646082366919,-136.13593001033504,0,-44.83174514770508,38.83418655395508,-34.93577575683594
0.43302103877067566,-0.07447192817926407,9.792448043823242,-0.002554595143617826,0.005284735255261208,-0.002171272635998351,3.339982032775879,2019-07-26 14:15:54:414,-162.28925608859151,-137.00306419165693,0,-44.83174514770508,38.83418655395508,-34.93577575683594
0.40188929438591003,-0.01939268223941326,9.814000129699707,0.0009083597100978372,-0.0024403177049006305,-0.0037695596616080236,3.349980592727661,2019-07-26 14:15:54:424,-162.5952011908414,-137.8612485254047,0,-44.83174514770508,38.83418655395508,-34.93577575683594
0.4306262731552124,-0.07447192817926407,9.758920669555664,-0.0004235460253761578,0.002088161724190513,-0.0029704160187660244,3.359983444213867,2019-07-26 14:15:54:434,-162.8939376247799,-138.6950411660279,0,-44.83174514770508,38.83418655395508,-34.93577575683594
0.45936328172683716,-0.024182181805372238,9.787657737731934,0.0027730276682409903,-0.0013747930645065694,0.004488256073880914,3.3699796199798584,2019-07-26 14:15:54:444,-163.18154550299667,-139.51986561219053,0,-44.83174514770508,38.83418655395508,-34.93577575683594
0.41386303305625916,-0.08405092358589172,9.766105651855469,0.001174740902705643,-0.0016411741920957937,-0.00909718247346684,3.3799920082092285,2019-07-26 14:15:54:454,-163.4684599473337,-140.32026677839931,0,-45.58143997192383,39.58388137817383,-35.08571243286133
0.4042840301990509,-0.036155931651592255,9.773289680480957,0.0014411220302948675,-0.002973079960079079,-0.0027040348911768,3.389979362487793,2019-07-26 14:15:54:464,-163.75004829503985,-141.1104303536772,0,-45.58143997192383,39.58388137817383,-35.08571243286133
0.42104730010032654,-0.01939268223941326,9.787657737731934,-0.0012226895056717034,-0.0024403177049006305,-0.0024376537635875752,3.3999836444854736,2019-07-26 14:15:54:474,-164.0244116693747,-141.88526446818798,0,-45.58143997192383,39.58388137817383,-35.08571243286133
0.45217904448509216,-0.04094542935490608,9.816394805908203,0.0014411220302948675,0.002088161724190513,0.006352923967005486,3.4099812507629395,2019-07-26 14:15:54:484,-164.29234787917386,-142.6435884414547,0,-45.58143997192383,39.58388137817383,-35.08571243286133
0.38752079010009766,-0.03855068236589432,9.761316299438477,-0.000689927185474673,-0.0019075553196850185,0.0028899690482712416,3.4199798107147217,2019-07-26 14:15:54:494,-164.55996142124314,-143.38580375723924,0,-45.58143997192383,39.58388137817383,-35.08571243286133
0.4641527831554413,-0.072077177464962,9.763710975646973,-0.000689927185474673,0.0018217805966012882,0.0012916821526987312,3.4299895763397217,2019-07-26 14:15:54:504,-164.81535192021107,-144.10924074366977,0,-45.58143997192383,39.58388137817383,-35.08571243286133
0.4114682972431183,-0.03136643022298813,9.802026748657227,0.00010921627043890474,0.002887305106958187,-0.0011057481256414525,3.440062999725342,2019-07-26 14:15:54:514,-165.0726031217203,-144.82345079295183,0,-45.58143997192383,39.58388137817383,-35.08571243286133
0.461758017539978,-0.03376118093729019,9.758920669555664,0.0009083597100978372,-0.0013747930645065694,0.000226157593577897,3.449972152709961,2019-07-26 14:15:54:524,-165.3162058168912,-145.5235228841952,0,-45.58143997192383,39.58388137817383,-35.08571243286133
0.42104730010032654,-0.04573493078351021,9.794842720031738,0.0017075031578840923,0.002620923979368962,0.0023572067930927925,3.460002899169922,2019-07-26 14:15:54:534,-165.56212912626467,-146.20866356529308,0,-45.58143997192383,39.58388137817383,-35.08571243286133
0.45457378029823303,-0.06249817833304405,9.814000129699707,-0.0036201196539747244,0.00075625608624439,-0.00030660471036448813,3.470010280609131,2019-07-26 14:15:54:544,-165.79827184331577,-146.8751587029136,0,-45.58143997192383,39.58388137817383,-35.08571243286133
0.44738954305648804,-0.07447192817926407,9.797237396240234,0.003039408795830215,-0.0016411741920957937,0.002623587920682017,3.47998309135437,2019-07-26 14:15:54:554,-166.0290956393042,-147.53064721021926,0,-45.58143997192383,39.58388137817383,-35.08571243286133
0.461758017539978,-0.057708676904439926,9.814000129699707,0.00010921627043890474,-0.0013747930645065694,-0.0016385103808199016,3.489973306655884,2019-07-26 14:15:54:564,-166.25386585545962,-148.1733573496777,0,-45.58143997192383,39.58388137817383,-35.08571243286133
0.48091602325439453,-0.03376118093729019,9.830763816833496,0.002506646540651766,0.0010226372138336143,0.0023572067930927925,3.4999730587005615,2019-07-26 14:15:54:574,-166.47334977236076,-148.80736231521456,0,-45.58143997192383,39.58388137817383,-35.08571243286133
0.45217904448509216,-0.04812967777252197,9.766105651855469,-0.0009563083130638975,-0.0005756496817388956,0.004754637201470138,3.5099942684173584,2019-07-26 14:15:54:584,-166.69053985813602,-149.42502966695213,0,-44.381927490234375,39.88376235961914,-35.08571243286133
0.46654751896858215,-0.04812967777252197,9.74934196472168,-0.002554595143617826,-0.0008420308093281202,-0.0008393669980522279,3.5200860500335693,2019-07-26 14:15:54:594,-166.90145678487187,-150.02942449930063,0,-44.381927490234375,39.88376235961914,-35.08571243286133
0.48091602325439453,-0.005024184938520193,9.77807903289795,-0.0012226895056717034,0.0004898749261458747,-4.022355432963424e-05,3.529973030090332,2019-07-26 14:15:54:604,-167.10738532706765,-150.62756843432874,0,-44.381927490234375,39.88376235961914,-35.08571243286133
0.45217904448509216,-0.043340180069208145,9.794842720031738,0.0033057899234194394,0.0010226372138336143,-0.004302321916786473,3.540130138397217,2019-07-26 14:15:54:614,-167.31295717595145,-151.21183201504175,0,-44.381927490234375,39.88376235961914,-35.08571243286133
0.43302103877067566,-0.06249817833304405,9.787657737731934,-0.00015716488153228781,0.002887305106958187,0.0028899690482712416,3.5499794483184814,2019-07-26 14:15:54:624,-167.51763078912018,-151.78019141868413,0,-44.381927490234375,39.88376235961914,-35.08571243286133
0.4258367717266083,-0.06010342761874199,9.804421424865723,-0.00015716488153228781,-0.002973079960079079,-0.002171272635998351,3.5599937438964844,2019-07-26 14:15:54:634,-167.71586695959718,-152.3374745700573,0,-44.381927490234375,39.88376235961914,-35.08571243286133
0.4258367717266083,-0.072077177464962,9.782868385314941,0.005969601459386011,-0.004038604470435978,0.0010253010251095067,3.5699830055236816,2019-07-26 14:15:54:644,-167.90943549271057,-152.88563080005386,0,-44.381927490234375,39.88376235961914,-35.08571243286133
0.4162577986717224,-0.04094542935490608,9.780473709106445,0.001973884285473317,-0.0035058422152575287,-0.001372129253230677,3.5799951553344727,2019-07-26 14:15:54:654,-168.10053501473115,-153.42423057777825,0,-44.381927490234375,39.88376235961914,-35.08571243286133
0.4426000416278839,-0.036155931651592255,9.725394248962402,-0.004685644164331623,-0.0019075553196850185,-0.002171272635998351,3.589989423751831,2019-07-26 14:15:54:664,-168.2853394912009,-153.9488563602306,0,-44.381927490234375,39.88376235961914,-35.08571243286133
0.39470502734184265,-0.043340180069208145,9.751736640930176,-0.001489070633260928,0.00075625608624439,-0.0016385103808199016,3.5999979972839355,2019-07-26 14:15:54:674,-168.47370166223996,-154.4639495828304,0,-44.381927490234375,39.88376235961914,-35.08571243286133
0.47852128744125366,-0.043340180069208145,9.718210220336914,-0.0017554517608501525,-0.0005756496817388956,-4.022355432963424e-05,3.609999418258667,2019-07-26 14:15:54:684,-168.64752540686698,-154.96857437584896,0,-44.381927490234375,39.88376235961914,-35.08571243286133
0.43302103877067566,-0.03376118093729019,9.77807903289795,0.0014411220302948675,-0.0005756496817388956,0.0010253010251095067,3.620002508163452,2019-07-26 14:15:54:694,-168.8235379750388,-155.46605579163509,0,-44.381927490234375,39.88376235961914,-35.08571243286133
0.461758017539978,-0.07447192817926407,9.787657737731934,0.0033057899234194394,-0.0035058422152575287,0.0012916821526987312,3.6299972534179688,2019-07-26 14:15:54:704,-168.99107825372735,-155.94987106973682,0,-45.58143997192383,40.78339385986328,-35.38559341430664
0.45457378029823303,-0.01939268223941326,9.675105094909668,0.001973884285473317,0.0015553994690120636,-0.0005729858704630034,3.639997720718384,2019-07-26 14:15:54:714,-169.15833011106986,-156.42968517499764,0,-45.58143997192383,40.78339385986328,-35.38559341430664
0.4569685459136963,-0.06728767603635788,9.74934196472168,0.0009083597100978372,-0.0008420308093281202,0.000226157593577897,3.649996042251587,2019-07-26 14:15:54:724,-169.32101902225142,-156.89369271304497,0,-45.58143997192383,40.78339385986328,-35.38559341430664
0.4426000416278839,-0.050524428486824036,9.74934196472168,-0.0009563083130638975,-0.003239461087668304,0.0012916821526987312,3.659999370574951,2019-07-26 14:15:54:734,-169.48079257084535,-157.34934324043044,0,-45.58143997192383,40.78339385986328,-35.38559341430664
0.48570552468299866,-0.08884042501449585,9.864290237426758,-0.002021832888439377,-0.0011084119369173448,0.004488256073880914,3.6700055599212646,2019-07-26 14:15:54:744,-169.63417602002443,-157.79090027458741,0,-45.58143997192383,40.78339385986328,-35.38559341430664
0.45457378029823303,-0.009813684038817883,9.782868385314941,-0.000689927185474673,-0.0008420308093281202,-4.022355432963424e-05,3.6799962520599365,2019-07-26 14:15:54:754,-169.78781194545644,-158.23354571170597,0,-45.58143997192383,40.78339385986328,-35.38559341430664
0.4162577986717224,-0.04573493078351021,9.814000129699707,-0.0004235460253761578,-0.0003092685216403804,-0.003503178534018799,3.6899986267089844,2019-07-26 14:15:54:764,-169.9433074686236,-158.66329679513666,0,-45.58143997192383,40.78339385986328,-35.38559341430664
0.4378105401992798,-0.036155931651592255,9.7373685836792,0.0003755974224100973,-0.0013747930645065694,-0.00030660471036448813,3.6999948024749756,2019-07-26 14:15:54:774,-170.09218181079245,-159.085986783647,0,-45.58143997192383,40.78339385986328,-35.38559341430664
0.42823153734207153,-0.07447192817926407,9.842737197875977,-0.0030873573987962753,-0.004038604470435978,0.0018244444078771805,3.710002899169922,2019-07-26 14:15:54:784,-170.23824432386704,-159.49386205842012,0,-45.58143997192383,40.78339385986328,-35.38559341430664
0.45217904448509216,-0.05531392991542816,9.825974464416504,0.003039408795830215,0.002887305106958187,0.0023572067930927925,3.719998836517334,2019-07-26 14:15:54:794,-170.38240357351538,-159.89924004662873,0,-45.58143997192383,40.78339385986328,-35.38559341430664
0.44738954305648804,-0.05531392991542816,9.823579788208008,-0.000689927185474673,-0.0035058422152575287,-0.003503178534018799,3.7299978733062744,2019-07-26 14:15:54:804,-170.5206354394189,-160.2944156162081,0,-45.58143997192383,40.78339385986328,-35.38559341430664
0.4426000416278839,-0.06249817833304405,9.751736640930176,0.0006419785825086126,0.0015553994690120636,0.0007589198975202821,3.7400076389312744,2019-07-26 14:15:54:814,-170.65912317415658,-160.68154413600442,0,-45.58143997192383,40.78339385986328,-35.38559341430664
0.4761265218257904,-0.06489292532205582,9.809210777282715,0.0014411220302948675,-0.0019075553196850185,-0.005634227814806921,3.749998092651367,2019-07-26 14:15:54:824,-170.78929298877873,-161.06114096419054,0,-45.58143997192383,40.78339385986328,-35.38559341430664
0.40188929438591003,-0.01939268223941326,9.754131317138672,0.002506646540651766,0.0004898749261458747,0.005553780584237813,3.7600038051605225,2019-07-26 14:15:54:834,-170.92659507556462,-161.43904817776072,0,-43.78217315673828,38.984127044677734,-35.38559341430664
0.44738954305648804,-0.03136643022298813,9.782868385314941,0.0027730276682409903,-0.0003092685216403804,0.0012916821526987312,3.76998233795166,2019-07-26 14:15:54:844,-171.055521438419,-161.8081468309373,0,-43.78217315673828,38.984127044677734,-35.38559341430664
0.4497842788696289,-0.057708676904439926,9.773289680480957,-0.000689927185474673,0.00022349378230200473,0.0018244444078771805,3.780001640319824,2019-07-26 14:15:54:854,-171.18183684266137,-162.16482950515007,0,-43.78217315673828,38.984127044677734,-35.38559341430664
0.4306262731552124,-0.04573493078351021,9.787657737731934,-0.00015716488153228781,0.00395282987738941,-0.0037695596616080236,3.7899973392486572,2019-07-26 14:15:54:864,-171.31003445747243,-162.5160902076473,0,-43.78217315673828,38.984127044677734,-35.38559341430664
0.45217904448509216,-0.0529191792011261,9.782868385314941,-0.0004235460253761578,0.0004898749261458747,0.0015580632802879558,3.7999985218048096,2019-07-26 14:15:54:874,-171.43118057590323,-162.8593319310336,0,-43.78217315673828,38.984127044677734,-35.38559341430664
0.4641527831554413,-0.043340180069208145,9.763710975646973,0.0017075031578840923,-0.0016411741920957937,-0.0019048915084091261,3.8100059032440186,2019-07-26 14:15:54:884,-171.5472005682117,-163.19801818441465,0,-43.78217315673828,38.984127044677734,-35.38559341430664
0.43541577458381653,-0.06968242675065994,9.785263061523438,-0.0038865007815639487,-0.0005756496817388956,-0.0029704160187660244,3.819999933242798,2019-07-26 14:15:54:894,-171.66497722233296,-163.52371674797408,0,-43.78217315673828,38.984127044677734,-35.38559341430664
0.48091602325439453,-0.04094542935490608,9.809210777282715,0.0003755974224100973,0.002620923979368962,0.0023572067930927925,3.8299965858459473,2019-07-26 14:15:54:904,-171.7770129928932,-163.84867000760988,0,-43.78217315673828,38.984127044677734,-35.38559341430664
0.45936328172683716,-0.06010342761874199,9.758920669555664,0.002240265413062541,0.00075625608624439,-0.0008393669980522279,3.839996576309204,2019-07-26 14:15:54:914,-171.88799762919902,-164.16589711457442,0,-43.78217315673828,38.984127044677734,-35.38559341430664
0.4976792633533478,-0.07686667889356613,9.804421424865723,0.001973884285473317,0.001289018341422839,0.004754637201470138,3.850006103515625,2019-07-26 14:15:54:924,-171.99284455632107,-164.47470476564536,0,-43.78217315673828,38.984127044677734,-35.38559341430664
0.4497842788696289,-0.04812967777252197,9.84034252166748,-0.0004235460253761578,0.00075625608624439,-0.002171272635998351,3.8599965572357178,2019-07-26 14:15:54:934,-172.10107059607049,-164.7793683828826,0,-43.78217315673828,38.984127044677734,-35.38559341430664
0.4713370203971863,-0.05531392991542816,9.74934196472168,-0.00015716488153228781,0.0018217805966012882,0.0010253010251095067,3.870000123977661,2019-07-26 14:15:54:944,-172.2047156910865,-165.0771913315029,0,-43.78217315673828,38.984127044677734,-35.38559341430664
0.47373178601264954,-0.08884042501449585,9.84034252166748,-0.002288214016028602,0.00022349378230200473,-0.0027040348911768,3.880000591278076,2019-07-26 14:15:54:954,-172.3056229965842,-165.36401735980186,0,-44.53186798095703,40.33357620239258,-34.63589859008789
0.461758017539978,-0.0529191792011261,9.761316299438477,0.003838552178597889,0.005284735255261208,-4.022355432963424e-05,3.8899986743927,2019-07-26 14:15:54:964,-172.40831030582467,-165.65267963173451,0,-44.53186798095703,40.33357620239258,-34.63589859008789
0.45217904448509216,-0.04573493078351021,9.809210777282715,-0.0004235460253761578,0.0034200676222109604,-0.004302321916786473,3.8999974727630615,2019-07-26 14:15:54:974,-172.50927787956286,-165.93404551453457,0,-44.53186798095703,40.33357620239258,-34.63589859008789
0.4497842788696289,-0.09602466970682144,9.816394805908203,-0.002554595143617826,-0.0013747930645065694,0.0010253010251095067,3.9100024700164795,2019-07-26 14:15:54:984,-172.60585117952473,-166.20272041574066,0,-44.53186798095703,40.33357620239258,-34.63589859008789
0.4689422845840454,-0.08405092358589172,9.775684356689453,0.0027730276682409903,-0.0035058422152575287,0.0039554935586281394,3.9199986457824707,2019-07-26 14:15:54:994,-172.69683860153248,-166.47037017188265,0,-44.53186798095703,40.33357620239258,-34.63589859008789
0.4449947774410248,-0.028971681371331215,9.718210220336914,-0.000689927185474673,-0.004304985598025202,0.0034227313034496903,3.9300637245178223,2019-07-26 14:15:55:004,-172.78803425002292,-166.7371566898434,0,-44.53186798095703,40.33357620239258,-34.63589859008789
0.45457378029823303,-0.021787432953715324,9.773289680480957,0.0003755974224100973,-0.0005756496817388956,-0.0008393669980522279,3.9399921894073486,2019-07-26 14:15:55:014,-172.87869238183134,-167.0000683784003,0,-44.53186798095703,40.33357620239258,-34.63589859008789
0.44020527601242065,-0.03136643022298813,9.739763259887695,-0.00015716488153228781,-0.0016411741920957937,0.000226157593577897,3.9499990940093994,2019-07-26 14:15:55:024,-172.96843998631084,-167.25628834979545,0,-44.53186798095703,40.33357620239258,-34.63589859008789
0.4449947774410248,-0.03855068236589432,9.811605453491211,-0.0012226895056717034,-0.0037722233428467535,-0.001372129253230677,3.959998369216919,2019-07-26 14:15:55:034,-173.05501706782584,-167.5059737115734,0,-44.53186798095703,40.33357620239258,-34.63589859008789
0.4449947774410248,-0.03855068236589432,9.814000129699707,-0.001489070633260928,0.002887305106958187,0.0028899690482712416,3.970004081726074,2019-07-26 14:15:55:044,-173.14361535188084,-167.7505163646837,0,-44.53186798095703,40.33357620239258,-34.63589859008789
0.4378105401992798,-0.06728767603635788,9.756525993347168,-0.002554595143617826,-0.002173936447274243,0.0007589198975202821,3.9799976348876953,2019-07-26 14:15:55:054,-173.22813627347634,-167.98616966808837,0,-44.53186798095703,40.33357620239258,-34.63589859008789
0.4258367717266083,-0.07686667889356613,9.809210777282715,0.0003755974224100973,0.0015553994690120636,-0.0016385103808199016,3.9899957180023193,2019-07-26 14:15:55:064,-173.31473154320898,-168.21767772199522,0,-44.53186798095703,40.33357620239258,-34.63589859008789
0.4641527831554413,-0.04573493078351021,9.751736640930176,0.0009083597100978372,-0.0035058422152575287,0.000226157593577897,3.9999992847442627,2019-07-26 14:15:55:074,-173.39196674565213,-168.4484601714084,0,-44.53186798095703,40.33357620239258,-34.63589859008789
0.4497842788696289,-0.07447192817926407,9.74934196472168,-0.0004235460253761578,0.0004898749261458747,0.0010253010251095067,4.010004997253418,2019-07-26 14:15:55:084,-173.4715734654546,-168.670499919954,0,-44.68180847167969,40.18363952636719,-34.18608093261719
0.45936328172683716,-0.043340180069208145,9.713420867919922,-0.0012226895056717034,0.002620923979368962,0.0007589198975202821,4.019985198974609,2019-07-26 14:15:55:094,-173.5494588841885,-168.8912918310785,0,-44.68180847167969,40.18363952636719,-34.18608093261719
0.4449947774410248,-0.05531392991542816,9.792448043823242,-0.0017554517608501525,-0.0005756496817388956,0.0018244444078771805,4.029998779296875,2019-07-26 14:15:55:104,-173.62610840143975,-169.1060061861004,0,-44.68180847167969,40.18363952636719,-34.18608093261719
0.4641527831554413,-0.0792614221572876,9.754131317138672,0.0006419785825086126,0.002887305106958187,0.0034227313034496903,4.039998531341553,2019-07-26 14:15:55:114,-173.70071983218924,-169.3149350946336,0,-44.68180847167969,40.18363952636719,-34.18608093261719
0.4641527831554413,-0.06489292532205582,9.744552612304688,0.0003755974224100973,-0.003239461087668304,0.0028899690482712416,4.049999713897705,2019-07-26 14:15:55:124,-173.770345209128,-169.52121631157047,0,-44.68180847167969,40.18363952636719,-34.18608093261719
0.43302103877067566,-0.06010342761874199,9.744552612304688,0.001174740902705643,-0.0061696537512241,0.0015580632802879558,4.060003280639648,2019-07-26 14:15:55:134,-173.8405849671303,-169.72438403269825,0,-44.68180847167969,40.18363952636719,-34.18608093261719
0.4162577986717224,-0.028971681371331215,9.730184555053711,-0.0017554517608501525,0.0010226372138336143,-0.0029704160187660244,4.069997787475586,2019-07-26 14:15:55:144,-173.91535470652653,-169.92549924943836,0,-44.68180847167969,40.18363952636719,-34.18608093261719
0.4258367717266083,-0.05531392991542816,9.845131874084473,0.001973884285473317,-0.0013747930645065694,0.002090825535466405,4.079998016357422,2019-07-26 14:15:55:154,-173.9867416235356,-170.12165947397645,0,-44.68180847167969,40.18363952636719,-34.18608093261719
0.47373178601264954,-0.06489292532205582,9.746947288513184,0.001174740902705643,-0.0003092685216403804,-0.0008393669980522279,4.0899999141693115,2019-07-26 14:15:55:164,-174.05118185554232,-170.3122568963117,0,-44.68180847167969,40.18363952636719,-34.18608093261719
0.38752079010009766,-0.07686667889356613,9.842737197875977,-0.002820976271207051,0.0018217805966012882,-0.0011057481256414525,4.100003719329834,2019-07-26 14:15:55:174,-174.1260887045189,-170.49547835607507,0,-44.68180847167969,40.18363952636719,-34.18608093261719
0.4378105401992798,-0.06489292532205582,9.761316299438477,-0.002820976271207051,-0.0005756496817388956,0.002090825535466405,4.109999656677246,2019-07-26 14:15:55:184,-174.19188212331468,-170.6763675593662,0,-44.68180847167969,40.18363952636719,-34.18608093261719
0.43302103877067566,-0.06010342761874199,9.730184555053711,0.0017075031578840923,0.0036864487498001856,-0.004568702784301372,4.1199822425842285,2019-07-26 14:15:55:194,-174.25914791771075,-170.85671905956468,0,-44.68180847167969,40.18363952636719,-34.18608093261719
0.4569685459136963,-0.05531392991542816,9.768500328063965,0.004371314693850663,-0.0008420308093281202,-4.022355432963424e-05,4.129974603652954,2019-07-26 14:15:55:204,-174.31992586430135,-171.03554863681515,0,-45.28156280517578,39.88376235961914,-34.485958099365234
0.49288979172706604,-0.03376118093729019,9.785263061523438,-0.001489070633260928,-4.288736560552649e-05,0.0015580632802879558,4.139971733093262,2019-07-26 14:15:55:214,-174.37583153306605,-171.21004816290684,0,-45.28156280517578,39.88376235961914,-34.485958099365234
0.48091602325439453,-0.0792614221572876,9.785263061523438,-0.0033537385263855,-0.0011084119369173448,0.002623587920682017,4.149978160858154,2019-07-26 14:15:55:224,-174.43141913081487,-171.3746810636442,0,-45.28156280517578,39.88376235961914,-34.485958099365234
0.47373178601264954,-0.04094542935490608,9.802026748657227,0.003039408795830215,0.00022349378230200473,0.00715206734977316,4.159971475601196,2019-07-26 14:15:55:234,-174.48757713469746,-171.54410618745146,0,-45.28156280517578,39.88376235961914,-34.485958099365234
0.44738954305648804,-0.11757741868495941,9.701447486877441,0.002506646540651766,-0.002173936447274243,-0.0024376537635875752,4.169969797134399,2019-07-26 14:15:55:244,-174.543797789008,-171.7007439762652,0,-45.28156280517578,39.88376235961914,-34.485958099365234
0.48091602325439453,-0.05531392991542816,9.74934196472168,-0.0009563083130638975,-0.0016411741920957937,0.000226157593577897,4.1799726486206055,2019-07-26 14:15:55:254,-174.59552005281913,-171.85969057342913,0,-45.28156280517578,39.88376235961914,-34.485958099365234
0.4306262731552124,-0.050524428486824036,9.787657737731934,-0.002021832888439377,0.004219211004978634,-0.006433371197574595,4.189971685409546,2019-07-26 14:15:55:264,-174.6555943025016,-172.01544638802397,0,-45.28156280517578,39.88376235961914,-34.485958099365234
0.42104730010032654,-0.043340180069208145,9.794842720031738,-0.0009563083130638975,-0.0005756496817388956,-0.0027040348911768,4.199976444244385,2019-07-26 14:15:55:274,-174.71293029179563,-172.16952982938025,0,-45.28156280517578,39.88376235961914,-34.485958099365234
0.4449947774410248,-0.0792614221572876,9.794842720031738,-0.002021832888439377,-0.004304985598025202,0.0012916821526987312,4.21000075340271,2019-07-26 14:15:55:284,-174.76422363154964,-172.3157284881999,0,-45.28156280517578,39.88376235961914,-34.485958099365234
0.42823153734207153,-0.04573493078351021,9.809210777282715,0.00010921627043890474,0.001289018341422839,-4.022355432963424e-05,4.219971179962158,2019-07-26 14:15:55:294,-174.81966638022192,-172.46413232923908,0,-45.28156280517578,39.88376235961914,-34.485958099365234
0.4306262731552124,-0.0265769325196743,9.802026748657227,-0.0038865007815639487,-0.0011084119369173448,0.003156350175860466,4.229971170425415,2019-07-26 14:15:55:304,-174.87234024349704,-172.60956042497932,0,-45.28156280517578,39.88376235961914,-34.485958099365234
0.4162577986717224,-0.043340180069208145,9.806816101074219,-0.0012226895056717034,-0.0008420308093281202,0.002623587920682017,4.23996901512146,2019-07-26 14:15:55:314,-174.92581065769343,-172.75161860692847,0,-45.28156280517578,39.88376235961914,-34.485958099365234
0.45457378029823303,-0.0792614221572876,9.785263061523438,-0.0033537385263855,0.002887305106958187,-0.001372129253230677,4.249977350234985,2019-07-26 14:15:55:324,-174.97572182119615,-172.88541973960884,0,-45.28156280517578,39.88376235961914,-34.485958099365234
0.42823153734207153,-0.08405092358589172,9.746947288513184,0.0006419785825086126,-0.002173936447274243,0.0039554935586281394,4.259972333908081,2019-07-26 14:15:55:334,-175.0246739591568,-173.01819029652313,0,-46.03125762939453,40.63345718383789,-35.83540725708008
0.4569685459136963,-0.10320892184972763,9.792448043823242,-0.002021832888439377,-0.0016411741920957937,-0.0008393669980522279,4.269973039627075,2019-07-26 14:15:55:344,-175.06982304955454,-173.14461405820947,0,-46.03125762939453,40.63345718383789,-35.83540725708008
0.4234420359134674,-0.072077177464962,9.761316299438477,0.0017075031578840923,0.0010226372138336143,0.010615022008433079,4.2799694538116455,2019-07-26 14:15:55:354,-175.11932237320963,-173.2742189518623,0,-46.03125762939453,40.63345718383789,-35.83540725708008
0.44738954305648804,-0.09602466970682144,9.725394248962402,0.0017075031578840923,-0.0003092685216403804,0.0015580632802879558,4.289980888366699,2019-07-26 14:15:55:364,-175.16408457158434,-173.3983804832924,0,-46.03125762939453,40.63345718383789,-35.83540725708008
0.4114682972431183,-0.050524428486824036,9.780473709106445,0.00010921627043890474,-0.004571366985688751,0.006086542839416261,4.299969911575317,2019-07-26 14:15:55:374,-175.21005818284203,-173.52455455940816,0,-46.03125762939453,40.63345718383789,-35.83540725708008
0.4713370203971863,-0.01460318360477686,9.739763259887695,0.002240265413062541,0.00075625608624439,0.0007589198975202821,4.3099706172943115,2019-07-26 14:15:55:384,-175.25087054406333,-173.65360335106752,0,-46.03125762939453,40.63345718383789,-35.83540725708008
0.45936328172683716,-0.072077177464962,9.782868385314941,0.0006419785825086126,0.001289018341422839,0.000226157593577897,4.319972276687622,2019-07-26 14:15:55:394,-175.29280904377976,-173.7724492116843,0,-46.03125762939453,40.63345718383789,-35.83540725708008
0.45936328172683716,-0.0529191792011261,9.770895004272461,-0.0004235460253761578,0.0023545428517797373,0.0012916821526987312,4.330001354217529,2019-07-26 14:15:55:404,-175.334444997071,-173.89055549586485,0,-46.03125762939453,40.63345718383789,-35.83540725708008
0.42104730010032654,-0.05531392991542816,9.828369140625,-0.0012226895056717034,-0.0008420308093281202,-0.001372129253230677,4.339977979660034,2019-07-26 14:15:55:414,-175.37822338184236,-174.00561032269965,0,-46.03125762939453,40.63345718383789,-35.83540725708008
0.4641527831554413,-0.06489292532205582,9.756525993347168,0.002506646540651766,-0.0016411741920957937,0.0028899690482712416,4.350109815597534,2019-07-26 14:15:55:424,-175.4152510227942,-174.11930251156778,0,-46.03125762939453,40.63345718383789,-35.83540725708008
0.461758017539978,-0.04094542935490608,9.773289680480957,-0.002288214016028602,-0.002173936447274243,0.0007589198975202821,4.3599724769592285,2019-07-26 14:15:55:434,-175.45164133281372,-174.23084846544015,0,-46.03125762939453,40.63345718383789,-35.83540725708008
0.4426000416278839,-0.057708676904439926,9.845131874084473,-0.00015716488153228781,-0.0016411741920957937,-0.0016385103808199016,4.369973659515381,2019-07-26 14:15:55:444,-175.4902054956279,-174.33942636333214,0,-46.03125762939453,40.63345718383789,-35.83540725708008
0.44738954305648804,-0.072077177464962,9.809210777282715,0.0035721710510086637,-0.0011084119369173448,0.0039554935586281394,4.379966974258423,2019-07-26 14:15:55:454,-175.52755141466895,-174.44622233364458,0,-46.481075286865234,40.483516693115234,-34.78583526611328
0.4569685459136963,-0.07686667889356613,9.711026191711426,-0.002288214016028602,0.00075625608624439,-0.005367846167069046,4.389976978302002,2019-07-26 14:15:55:464,-175.56354222551445,-174.5469415791105,0,-46.481075286865234,40.483516693115234,-34.78583526611328
0.45217904448509216,-0.08884042501449585,9.74934196472168,0.0017075031578840923,-4.288736560552649e-05,-4.022355432963424e-05,4.399965524673462,2019-07-26 14:15:55:474,-175.59913728654615,-174.64651859661438,0,-46.481075286865234,40.483516693115234,-34.78583526611328
0.45457378029823303,-0.028971681371331215,9.727788925170898,0.001174740902705643,-0.002706698832489855,-0.0011057481256414525,4.409970283508301,2019-07-26 14:15:55:484,-175.63212498254578,-174.75083535347022,0,-46.481075286865234,40.483516693115234,-34.78583526611328
0.44020527601242065,-0.072077177464962,9.773289680480957,-0.00015716488153228781,-0.0003092685216403804,-0.0019048915084091261,4.419969081878662,2019-07-26 14:15:55:494,-175.66772976106094,-174.84727953264792,0,-46.481075286865234,40.483516693115234,-34.78583526611328
0.41386303305625916,-0.028971681371331215,9.754131317138672,0.003838552178597889,0.0004898749261458747,-0.0032367971463552496,4.42997932434082,2019-07-26 14:15:55:504,-175.70605901741766,-174.94908790757978,0,-46.481075286865234,40.483516693115234,-34.78583526611328
0.42104730010032654,-0.036155931651592255,9.809210777282715,-0.002021832888439377,-0.0013747930645065694,0.002090825535466405,4.439967632293701,2019-07-26 14:15:55:514,-175.74201007025974,-175.0447484903296,0,-46.481075286865234,40.483516693115234,-34.78583526611328
0.40907353162765503,-0.04573493078351021,9.84034252166748,-0.0004235460253761578,-0.003239461087668304,-0.001372129253230677,4.449982404708862,2019-07-26 14:15:55:524,-175.77773870871673,-175.13828951854165,0,-46.481075286865234,40.483516693115234,-34.78583526611328
0.42104730010032654,-0.03855068236589432,9.718210220336914,-0.001489070633260928,-0.0011084119369173448,-0.0008393669980522279,4.459969997406006,2019-07-26 14:15:55:534,-175.8119458827216,-175.23014300299084,0,-46.481075286865234,40.483516693115234,-34.78583526611328
0.4426000416278839,-0.0529191792011261,9.732579231262207,0.0017075031578840923,-0.0037722233428467535,0.0010253010251095067,4.469970464706421,2019-07-26 14:15:55:544,-175.84151284033516,-175.3202682963696,0,-46.481075286865234,40.483516693115234,-34.78583526611328
0.4186525344848633,-0.024182181805372238,9.775684356689453,-0.0004235460253761578,0.001289018341422839,-0.0016385103808199016,4.479981184005737,2019-07-26 14:15:55:554,-175.8763622377192,-175.41079020101367,0,-46.481075286865234,40.483516693115234,-34.78583526611328
0.43541577458381653,-0.036155931651592255,9.811605453491211,0.001174740902705643,0.00022349378230200473,-0.00030660471036448813,4.489966630935669,2019-07-26 14:15:55:564,-175.90814062975272,-175.4990103532969,0,-46.481075286865234,40.483516693115234,-34.78583526611328
0.4234420359134674,-0.03855068236589432,9.773289680480957,-0.0004235460253761578,-0.0019075553196850185,0.0010253010251095067,4.499971389770508,2019-07-26 14:15:55:574,-175.93928878419794,-175.58427217882758,0,-46.481075286865234,40.483516693115234,-34.78583526611328
0.46654751896858215,-0.05531392991542816,9.742157936096191,-0.002820976271207051,0.00022349378230200473,-0.0016385103808199016,4.5099711418151855,2019-07-26 14:15:55:584,-175.96579301412862,-175.66449660166944,0,-46.631011962890625,40.63345718383789,-34.93577575683594
0.4689422845840454,-0.0529191792011261,9.734973907470703,-0.00015716488153228781,-0.004038604470435978,0.0028899690482712416,4.519972801208496,2019-07-26 14:15:55:594,-175.98905197779885,-175.74488928768983,0,-46.631011962890625,40.63345718383789,-34.93577575683594
0.45936328172683716,-0.06968242675065994,9.787657737731934,-0.002288214016028602,-0.002973079960079079,-0.00030660471036448813,4.5299811363220215,2019-07-26 14:15:55:604,-176.01385844638116,-175.82054748770412,0,-46.631011962890625,40.63345718383789,-34.93577575683594
0.4713370203971863,-0.03855068236589432,9.70863151550293,0.0027730276682409903,0.00022349378230200473,-0.0011057481256414525,4.539982318878174,2019-07-26 14:15:55:614,-176.03811823843816,-175.90114363713653,0,-46.631011962890625,40.63345718383789,-34.93577575683594
0.47373178601264954,-0.06489292532205582,9.79963207244873,0.004371314693850663,-4.288736560552649e-05,0.005287399456648588,4.549973011016846,2019-07-26 14:15:55:624,-176.06197929198936,-175.97798485277872,0,-46.631011962890625,40.63345718383789,-34.93577575683594
0.461758017539978,-0.06728767603635788,9.754131317138672,0.0014411220302948675,-0.0011084119369173448,-0.0037695596616080236,4.559972763061523,2019-07-26 14:15:55:634,-176.08591047565838,-176.05132949124905,0,-46.631011962890625,40.63345718383789,-34.93577575683594
0.47373178601264954,-0.043340180069208145,9.754131317138672,-0.002021832888439377,0.0004898749261458747,0.004754637201470138,4.569976329803467,2019-07-26 14:15:55:644,-176.10885710307673,-176.12407566816378,0,-46.631011962890625,40.63345718383789,-34.93577575683594
0.45936328172683716,-0.0529191792011261,9.814000129699707,0.0006419785825086126,-0.0008420308093281202,0.0034227313034496903,4.579968452453613,2019-07-26 14:15:55:654,-176.1326098552875,-176.19577537987536,0,-46.631011962890625,40.63345718383789,-34.93577575683594
