ACCELEROMETER X (m/s²),ACCELEROMETER Y (m/s²),ACCELEROMETER Z (m/s²),GYROSCOPE X (rad/s),GYROSCOPE Y (rad/s),GYROSCOPE Z (rad/s),Pitch (Deg),Roll (Deg),Heading (Deg),Time since start in ms ,YYYY-MO-DD HH-MI-SS_SSS
0.09145309776067734,0.037954386323690414,9.69051742553711,-0.0021243895575426474,-0.0035521926614952163,0.003149690712689317,-3.5891858798831984,3.5955118701401463,0,0.0,2019-08-07 13:39:46:156
0.10342684388160706,0.0020331426057964563,9.79349136352539,-0.007452012629475789,-0.0006219999979394207,0.001018641496919776,-7.105197463054264,7.124602475927253,0,0.0029604434967041016,2019-08-07 13:39:46:159
-0.030679138377308846,0.05471763759851456,9.90125560760498,-0.006919250374297341,0.0009762868976330894,0.001817784944706031,-3.3668527390061933,10.577256233946844,0,0.006765842437744141,2019-08-07 13:39:46:163
0.1393480896949768,0.1624813675880432,9.757570266723633,-0.0039890577107415445,-0.0008883811255286454,0.003149690712689317,-6.88299141871229,13.947352107850687,0,0.009984016418457031,2019-08-07 13:39:46:166
0.11300584673881531,0.1313496232032776,9.759964942932129,0.004801520279925842,-0.006216004197461787,0.001817784944706031,-10.33103615413775,17.25219016291889,0,0.012929439544677734,2019-08-07 13:39:46:169
0.0028473574202507734,-0.05544085055589676,9.767149925231934,-0.007452012629475789,-0.008613434345764809,0.002084166072295256,-13.72221992778272,13.315261248617997,0,0.016778230667114258,2019-08-07 13:39:46:173
0.060321349650621414,0.009217391721904278,9.762359619140625,-0.006120106991529666,-0.0134082951625195,0.001018641496919776,-17.03826623582396,16.64898268450071,0,0.0200042724609375,2019-08-07 13:39:46:176
-0.04265288636088371,0.19121836125850677,9.757570266723633,-0.01384515969161718,-0.006216004197461787,-0.0013787888464389891,-13.101478196146477,19.895847608195744,0,0.022960424423217773,2019-08-07 13:39:46:179
-0.05941613391041756,0.25827136635780334,9.771939277648926,-0.0015916273023641983,-0.009146196080794608,-0.002177932229206663,-9.244460763495056,23.067991529719286,0,0.026767730712890625,2019-08-07 13:39:46:183
-0.08096887916326523,0.23192910850048065,9.829413414001465,-0.0039890577107415445,-0.008347053218175584,-0.0037762191247791726,-5.4674802698964395,26.180329755533883,0,0.030033111572265625,2019-08-07 13:39:46:186
0.04355810210108757,0.1696656197309494,9.719254493713379,-0.006386488119118891,-0.009412577728532483,-0.0027106946144222744,-8.951426962352812,29.237785355369475,0,0.03300023078918457,2019-08-07 13:39:46:189
0.00045260769547894597,0.13374437391757965,9.764754295349121,-0.007452012629475789,-0.01047810223888938,-0.0027106946144222744,-12.370130972522139,32.238910263397045,0,0.036763906478881836,2019-08-07 13:39:46:193
0.03637385368347168,0.11937587708234787,9.807860374450684,-0.007452012629475789,-0.009146196080794608,-0.0037762191247791726,-15.716820597701956,35.18153616174674,0,0.039992332458496094,2019-08-07 13:39:46:196
-0.10491637885570526,0.24629761278629303,9.786307334899902,-0.0026571518127210965,-0.007015147580229461,-0.0077719362986918665,-11.813604248201607,38.04951269970125,0,0.04294872283935547,2019-08-07 13:39:46:199
-0.011521141044795513,0.17445512115955353,9.745596885681152,-0.007185631501886564,-0.012076389004424728,-0.005907268405567294,-7.976097566226738,40.86955236000875,0,0.046767234802246094,2019-08-07 13:39:46:203
-0.07378463447093964,0.13374437391757965,9.795886039733887,-0.007452012629475789,-0.004084954916673665,-0.010169366967143538,-4.224467096296184,43.637866238183264,0,0.04999184608459473,2019-08-07 13:39:46:206
-0.14562712609767914,0.1960078626871109,9.79349136352539,-0.011714110670903381,-0.007015147580229461,-0.00857107968145954,-0.5558511223018354,46.344122692283406,0,0.05294919013977051,2019-08-07 13:39:46:209
-0.15041662752628326,0.1576918661594391,9.846176147460938,-0.005054581961024118,-0.008613434345764809,-0.011767653732678886,3.039610609032607,48.99997444672272,0,0.056772470474243164,2019-08-07 13:39:46:213
-0.07857413589954376,0.1505076289176941,9.963519096374512,-0.0029235329403103213,-0.006748766452640236,-0.010968509829762562,6.571001547720754,51.60319466081881,0,0.05999159812927246,2019-08-07 13:39:46:216
-0.14562712609767914,0.20558686554431915,9.827017784118652,-0.0034562954555630953,-0.007547909835407911,-0.01150127208494101,10.023847764473464,54.147731791410564,0,0.06293249130249023,2019-08-07 13:39:46:219
-0.15281137824058533,0.06908613443374634,9.867729187011719,-0.006652869246708115,-0.01047810223888938,-0.012300415987857336,13.407889901795722,56.65819151356798,0,0.06677937507629395,2019-08-07 13:39:46:223
-0.14323237538337708,0.1576918661594391,9.865334510803223,-0.005853725863940442,-0.010211721631448806,-0.017095276284463376,16.72494276702983,59.1077710523563,0,0.07000017166137695,2019-08-07 13:39:46:226
-0.2533908486366272,0.12895487248897552,9.889281272888184,-0.004788200833434893,-0.010211721631448806,-0.01842718140226085,19.962781762950716,61.51146771603186,0,0.0729527473449707,2019-08-07 13:39:46:229
-0.14562712609767914,0.1169811263680458,9.795886039733887,-0.006652869246708115,-0.007814290962997135,-0.014697845616011706,23.148203258476144,63.86901153961773,0,0.07685279846191406,2019-08-07 13:39:46:233
-0.193522110581398,0.07627038657665253,9.865334510803223,-0.007185631501886564,-0.0035521926614952163,-0.02082461311100982,26.263406482631268,66.18407318426516,0,0.0800771713256836,2019-08-07 13:39:46:237
-0.25578561425209045,0.1313496232032776,9.788702011108398,-0.0039890577107415445,-0.0003556188378409054,-0.01842718140226085,29.30826075306137,68.44567981285473,0,0.08303999900817871,2019-08-07 13:39:46:240
-0.2581803500652313,0.13374437391757965,9.829413414001465,-0.0026571518127210965,-0.0014211433807070943,-0.02082461311100982,32.29230104818301,70.66173113980388,0,0.08676600456237793,2019-08-07 13:39:46:243
-0.239022359251976,0.10500738024711609,9.903650283813477,-0.0018580084299534227,-0.0022202867634747683,-0.020558230422974645,35.219205692815905,72.8366831127614,0,0.08998823165893555,2019-08-07 13:39:46:246
-0.3060753643512726,0.052322886884212494,9.90125560760498,-0.002390770685131872,-0.0035521926614952163,-0.022156518228807296,38.0799959925018,74.9742887402289,0,0.09292912483215332,2019-08-07 13:39:46:249
-0.13844287395477295,0.11219162493944168,9.779123306274414,-0.0018580084299534227,-0.012342770652162603,-0.021090993718450395,40.904840843387454,77.06205833468543,0,0.09677648544311523,2019-08-07 13:39:46:253
-0.021100139245390892,0.06669138371944427,9.946755409240723,-0.0005261027594980092,-0.0003556188378409054,-0.024021186642080517,43.68437756399454,79.11322934053533,0,0.10000038146972656,2019-08-07 13:39:46:256
-0.2581803500652313,-0.17278358340263367,9.82222843170166,-0.011714110670903381,-0.006216004197461787,-0.022422898836247866,46.381607060528005,73.95306323631665,0,0.10295391082763672,2019-08-07 13:39:46:259
-0.1025216281414032,-0.019519604742527008,9.898860931396484,-0.0007924839195965244,0.004705623073993721,-0.029082428586424434,49.04109801753235,68.87643156240881,0,0.10677337646484375,2019-08-07 13:39:46:263
-0.07378463447093964,0.05711238458752632,9.805465698242188,6.659528697688281e-06,0.004172860558740947,-0.026951379565710636,51.65089979068285,71.09222736607153,0,0.10998964309692383,2019-08-07 13:39:46:266
-0.24381186068058014,-0.019519604742527008,10.01141357421875,-0.006652869246708115,-0.012076389004424728,-0.022955662131723616,54.1919853955413,66.0737216083266,0,0.1129465103149414,2019-08-07 13:39:46:269
0.05792659893631935,-0.12728333473205566,9.7982816696167,-0.0013252461747749735,-0.00435133604426289,-0.028016904076067536,49.51585446826017,61.16741676264678,0,0.11677050590515137,2019-08-07 13:39:46:273
0.012426355853676796,-0.1703888326883316,9.817439079284668,-0.0026571518127210965,-0.009412577728532483,-0.02482032846440224,44.92869143814074,56.36443556367141,0,0.11999392509460449,2019-08-07 13:39:46:276
-0.20549586415290833,-0.16320458054542542,9.913228988647461,-0.0031899140678995457,-0.007547909835407911,-0.024553947856961668,47.607789113499706,51.65661181441654,0,0.12334990501403809,2019-08-07 13:39:46:280
-0.028284389525651932,-0.11770433932542801,9.786307334899902,-0.0029235329403103213,-0.004884098039367014,-0.025619472367318562,50.25341777791624,47.0379176212877,0,0.12734770774841309,2019-08-07 13:39:46:284
-0.07138988375663757,-0.1775730848312378,9.891676902770996,-0.0034562954555630953,-8.92376858697129e-05,-0.022689279443688443,52.84009507583326,42.51833921915382,0,0.13049578666687012,2019-08-07 13:39:46:287
-0.140837624669075,-0.1440465897321701,9.83899211883545,-0.004788200833434893,0.001775430280400763,-0.02482032846440224,55.36659255692426,38.08555381182014,0,0.13349342346191406,2019-08-07 13:39:46:290
0.060321349650621414,-0.19433633983135223,9.779123306274414,-0.004521819705845669,-0.0022202867634747683,-0.020558230422974645,50.6667394791966,33.74744788816387,0,0.13678550720214844,2019-08-07 13:39:46:293
0.014821105636656284,-0.13686233758926392,9.676149368286133,0.0016049463587436595,0.001775430280400763,-0.0189599446977366,46.05484046287168,29.488417253255633,0,0.13998985290527344,2019-08-07 13:39:46:296
-0.06899513304233551,-0.10812534391880035,9.975492477416992,-0.0029235329403103213,-0.0019539056358855436,-0.01842718140226085,48.72614132161019,25.311552739797545,0,0.14293599128723145,2019-08-07 13:39:46:299
-0.028284389525651932,-0.16320458054542542,9.78151798248291,-0.005320963088613342,-0.0022202867634747683,-0.021623754933331542,51.348782611434736,21.22558421573701,0,0.14676737785339355,2019-08-07 13:39:46:303
0.024400103837251663,-0.14883609116077423,9.872518539428711,-0.001058865047185749,-0.006748766452640236,-0.022156518228807296,46.72585869670289,17.218538165414945,0,0.14998579025268555,2019-08-07 13:39:46:306
-0.11689012497663498,-0.1248885914683342,9.889281272888184,-0.0039890577107415445,-0.008613434345764809,-0.018693564090296027,49.37925519550055,13.289313093976045,0,0.1529996395111084,2019-08-07 13:39:46:309
-0.06181088462471962,-0.053046099841594696,9.843781471252441,0.0008058029759759856,-0.008347053218175584,-0.014964227263749581,51.986281330847426,9.429527473885301,0,0.15685415267944336,2019-08-07 13:39:46:313
-0.09054788202047348,-0.11052009463310242,9.767149925231934,0.0021377086139221083,-0.0064823853250510115,-0.016828894636725503,54.53709912741099,5.653518286883945,0,0.16005897521972656,2019-08-07 13:39:46:317
-0.10491637885570526,-0.12249384075403214,9.807860374450684,-0.002390770685131872,-0.006216004197461787,-0.012300415987857336,57.035142651504245,1.955160113498322,0,0.16304755210876465,2019-08-07 13:39:46:320
0.010031606070697308,-0.08178309351205826,9.846176147460938,-0.0026571518127210965,0.0009762868976330894,-0.01549698951892803,52.29540385107404,-1.6738715351703857,0,0.16675877571105957,2019-08-07 13:39:46:323
-0.06181088462471962,-0.1320728361606598,9.774333953857422,-0.005054581961024118,0.002308192665616375,-0.012566796595297908,54.84183329543521,-5.2240001341306135,0,0.169968843460083,2019-08-07 13:39:46:326
-0.09294263273477554,-0.09375684708356857,9.874913215637207,-0.00025972161565413924,0.0015090491528115383,-0.010435747574584113,57.333963314969104,-8.708597891144024,0,0.1728990077972412,2019-08-07 13:39:46:329
0.00045260769547894597,-0.12009909003973007,9.82222843170166,0.0005394218158774704,-0.0003556188378409054,-0.010968509829762562,52.5874140571514,-12.120532314594591,0,0.17676544189453125,2019-08-07 13:39:46:333
-0.028284389525651932,-0.0722040981054306,9.78151798248291,-0.002390770685131872,0.00017714346610147965,-0.009370223064227214,55.13232030870042,-15.469232108280874,0,0.1799755096435547,2019-08-07 13:39:46:336
-0.03307388722896576,-0.07459884881973267,9.867729187011719,-0.0018580084299534227,-0.005150479166956239,-0.008837460809048764,57.62668459395688,-18.75087748420105,0,0.18291974067687988,2019-08-07 13:39:46:339
-0.06899513304233551,-0.053046099841594696,9.779123306274414,-0.0005261027594980092,-0.003285811533905992,-0.006440030660745744,60.066779330117924,-21.96952988321764,0,0.18678498268127441,2019-08-07 13:39:46:343
-0.03546863794326782,-0.06023034825921059,9.764754295349121,0.0005394218158774704,-0.0011547622531178697,-0.00617364953315652,62.461490660531624,-25.123168943641783,0,0.19001173973083496,2019-08-07 13:39:46:346
-0.11210063099861145,-0.031493354588747025,9.827017784118652,0.00027304068828824584,-0.0027530490186532175,-0.005640887277978069,64.79964776922313,-28.217078628059014,0,0.1929762363433838,2019-08-07 13:39:46:349
-0.004336891695857048,-0.10333584249019623,9.824623107910156,0.0008058029759759856,-0.0027530490186532175,-0.004308981379957623,67.10373596952593,-31.240856517763675,0,0.19677352905273438,2019-08-07 13:39:46:353
-0.07378463447093964,-0.005151106510311365,9.776728630065918,-0.0018580084299534227,-0.003019430146242442,-0.0077719362986918665,69.35355839528488,-34.2151001654806,0,0.19998908042907715,2019-08-07 13:39:46:356
-0.11928487569093704,-0.045861851423978806,9.779123306274414,0.0021377086139221083,-0.004084954916673665,-4.688308251936486e-05,71.55318781296363,-37.12577875221714,0,0.2029435634613037,2019-08-07 13:39:46:359
-0.057021383196115494,-0.03628285229206085,9.728833198547363,0.00027304068828824584,0.00044352460994534954,-4.688308251936486e-05,73.71531228208445,-39.97904843015595,0,0.20678067207336426,2019-08-07 13:39:46:363
-0.016310639679431915,-0.04346710070967674,9.910834312438965,-0.0026571518127210965,-0.0011547622531178697,-0.00244431348683305,75.83932887291427,-42.77396146413673,0,0.20999956130981445,2019-08-07 13:39:46:366
-0.10970588028430939,-0.0075458562932908535,9.824623107910156,-0.0026571518127210965,-0.0008883811255286454,0.001817784944706031,77.90989505830751,-45.51715941783185,0,0.2129666805267334,2019-08-07 13:39:46:369
-0.10012687742710114,-0.038677603006362915,9.803071022033691,6.659528697688281e-06,-0.005150479166956239,0.001285022689527582,79.94109244831456,-48.20229651242036,0,0.2167670726776123,2019-08-07 13:39:46:373
-0.03546863794326782,-0.0027563569601625204,9.805465698242188,6.659528697688281e-06,-0.0006219999979394207,0.0026169284575108674,81.93823797104582,-50.8379296639459,0,0.2199852466583252,2019-08-07 13:39:46:376
-0.057021383196115494,-0.053046099841594696,9.843781471252441,0.00027304068828824584,-0.0022202867634747683,0.0034160718402785413,83.89320274217808,-53.41504120011056,0,0.2229316234588623,2019-08-07 13:39:46:379
-0.037863388657569885,-0.05783560127019882,9.82222843170166,-0.0005261027594980092,-0.003019430146242442,-4.688308251936486e-05,85.8115733573504,-55.93987942836371,0,0.2267773151397705,2019-08-07 13:39:46:383
-0.030679138377308846,-0.012335355393588543,9.862939834594727,-0.0015916273023641983,-0.0006219999979394207,0.0023505473299216427,87.6918901808551,-58.4193602744008,0,0.23000431060791016,2019-08-07 13:39:46:386
-0.14323237538337708,-0.012335355393588543,9.882097244262695,-0.0018580084299534227,-0.00435133604426289,0.0034160718402785413,89.52218190679787,-60.84922780399573,0,0.23302245140075684,2019-08-07 13:39:46:389
-0.0761793851852417,-0.031493354588747025,9.855754852294922,-0.0005261027594980092,-0.008613434345764809,0.005014358865888214,91.32470617233507,-63.22847009966954,0,0.23679590225219727,2019-08-07 13:39:46:393
-0.0761793851852417,-0.038677603006362915,9.903650283813477,-0.0005261027594980092,-0.0054168602945454634,0.004747977738298989,93.09038443991717,-65.55932964730309,0,0.24003982543945312,2019-08-07 13:39:46:397
-0.1216796264052391,-0.005151106510311365,9.774333953857422,0.0005394218158774704,-0.0064823853250510115,0.0028833095851000918,94.81539070726585,-67.84762890701974,0,0.24300312995910645,2019-08-07 13:39:46:399
-0.052231885492801666,-0.04346710070967674,9.726438522338867,-0.00025972161565413924,-0.005150479166956239,0.0023505473299216427,96.51401848685455,-70.0855003826084,0,0.24676942825317383,2019-08-07 13:39:46:403
-0.1480218768119812,-0.005151106510311365,9.733622550964355,-0.0007924839195965244,-0.0046177169117777896,0.0028833095851000918,98.16715071903229,-72.28304021550986,0,0.2499995231628418,2019-08-07 13:39:46:406
-0.1360481232404709,0.030770137906074524,9.762359619140625,-0.0018580084299534227,-0.003285811533905992,0.004481596610709765,99.78838392876936,-67.24068324559083,0,0.25295162200927734,2019-08-07 13:39:46:409
-0.1360481232404709,0.09063888341188431,9.90125560760498,-0.00025972161565413924,0.0033737171759732733,0.0026169284575108674,101.37614857743988,-62.30630364563044,0,0.25676941871643066,2019-08-07 13:39:46:413
-0.16239036619663239,0.004427892155945301,9.83899211883545,-0.0005261027594980092,0.00044352460994534954,0.0023505473299216427,102.92963415669206,-57.46059827860675,0,0.25998520851135254,2019-08-07 13:39:46:416
-0.11689012497663498,0.006822641938924789,9.81025505065918,-0.006386488119118891,-0.0008883811255286454,0.0028833095851000918,104.45753535105156,-52.71112702156603,0,0.26293063163757324,2019-08-07 13:39:46:419
-0.08336362987756729,0.004427892155945301,9.855754852294922,-0.0021243895575426474,0.00044352460994534954,0.0028833095851000918,105.95859638702704,-48.05695992196236,0,0.2667818069458008,2019-08-07 13:39:46:423
-0.2941015958786011,0.04274388775229454,9.8797025680542,-0.006386488119118891,-0.0024866678910639927,0.00394883409545699,107.40577178654029,-43.49962481041616,0,0.26999878883361816,2019-08-07 13:39:46:426
-0.0019421420292928815,0.14811287820339203,9.764754295349121,0.0008058029759759856,-0.004084954916673665,-0.000579645398652734,108.8581099329304,-39.04714678926479,0,0.27296996116638184,2019-08-07 13:39:46:429
-0.01870539039373398,0.0978231281042099,9.961124420166016,-0.0013252461747749735,-0.005150479166956239,0.004215215223046215,110.27989468421518,-34.67717421963519,0,0.27676939964294434,2019-08-07 13:39:46:433
-0.24141710996627808,-0.03388810157775879,9.721649169921875,-0.004521819705845669,-0.0134082951625195,0.00048587920923203625,111.64832560873401,-37.57880011314175,0,0.2800626754760742,2019-08-07 13:39:46:437
-0.12407437711954117,0.06669138371944427,9.745596885681152,-0.0029235329403103213,-0.0056832419422833385,0.00021949806538816636,113.00171831479724,-33.234578371635884,0,0.283031702041626,2019-08-07 13:39:46:439
-0.25099611282348633,0.19361311197280884,9.824623107910156,-0.0029235329403103213,-0.007547909835407911,-0.005374506150388846,114.31399823303673,-28.991853064353034,0,0.28676772117614746,2019-08-07 13:39:46:443
-0.3443913459777832,0.13853387534618378,9.877307891845703,-0.0015916273023641983,-0.0027530490186532175,-0.001911551101617438,115.5882774452058,-24.827799303164692,0,0.28998637199401855,2019-08-07 13:39:46:446
-0.24381186068058014,0.15290237963199615,9.8797025680542,-0.0015916273023641983,0.001775430280400763,-0.008304698553870315,116.84794524910964,-20.74871352721897,0,0.29292964935302734,2019-08-07 13:39:46:449
-0.22225911915302277,0.0978231281042099,9.925203323364258,-0.001058865047185749,-0.0014211433807070943,-0.0035098379971899483,118.0856386833069,-16.744802838751863,0,0.2968020439147949,2019-08-07 13:39:46:453
-0.2342328578233719,0.1313496232032776,9.827017784118652,-0.004788200833434893,-0.001687524508296319,-0.0051081250227996205,119.29692358357255,-12.824353879212529,0,0.300032377243042,2019-08-07 13:39:46:456
-0.16239036619663239,0.1624813675880432,9.745596885681152,0.0010721841035652101,-0.007547909835407911,-0.008038317426281092,120.49316874819671,-8.98715134776639,0,0.3030436038970947,2019-08-07 13:39:46:460
-0.19831161201000214,0.10979688167572021,9.891676902770996,-0.0029235329403103213,-0.0019539056358855436,-0.006440030660745744,121.66074278272993,-5.219516865638233,0,0.3067626953125,2019-08-07 13:39:46:463
-0.2605751156806946,0.037954386323690414,9.831808090209961,-0.0029235329403103213,-0.005150479166956239,-0.009370223064227214,122.79809493475081,-1.5190220350014916,0,0.3099799156188965,2019-08-07 13:39:46:466
-0.239022359251976,0.08105988055467606,9.946755409240723,-0.008517537139832687,-0.00435133604426289,-0.013632321105654805,123.91532415648834,2.1034341448762612,0,0.31293654441833496,2019-08-07 13:39:46:469
-0.22465386986732483,0.14092862606048584,9.92041301727295,-0.004788200833434893,-0.0008883811255286454,-0.010968509829762562,125.01126468899366,5.646125554453603,0,0.31679654121398926,2019-08-07 13:39:46:473
-0.17196936905384064,0.13374437391757965,9.755175590515137,-0.005054581961024118,-0.0035521926614952163,-0.013632321105654805,126.09148389714889,9.118408674981783,0,0.320021390914917,2019-08-07 13:39:46:476
-0.1671798676252365,0.10261262953281403,9.819833755493164,-0.0026571518127210965,-0.005150479166956239,-0.016828894636725503,127.15100509794439,12.52450924369006,0,0.32298779487609863,2019-08-07 13:39:46:479
-0.20549586415290833,0.03316488862037659,9.795886039733887,-0.006120106991529666,-0.009412577728532483,-0.013365940498214234,128.18595681726637,15.871444464857754,0,0.3267853260040283,2019-08-07 13:39:46:483
-0.2533908486366272,0.11458637565374374,9.858149528503418,-0.0029235329403103213,-0.007281528707818685,-0.015230607871190155,129.19410557745778,19.14122484855933,0,0.3300032615661621,2019-08-07 13:39:46:486
-0.1815483719110489,0.10261262953281403,9.771939277648926,-0.004788200833434893,-0.009678958335973056,-0.014964227263749581,130.19055005874762,22.3471660710064,0,0.33297228813171387,2019-08-07 13:39:46:489
-0.2270486205816269,0.03555963933467865,9.872518539428711,-0.0029235329403103213,-0.008879815473354034,-0.01762803957993913,131.1622836919224,25.49671882041146,0,0.33677053451538086,2019-08-07 13:39:46:493
-0.2845225930213928,0.0020331426057964563,9.834202766418457,-0.0021243895575426474,-0.0027530490186532175,-0.014964227263749581,132.10639058583422,28.586930957368313,0,0.3399848937988281,2019-08-07 13:39:46:496
-0.18633787333965302,-0.009940605610609055,9.81025505065918,-0.004788200833434893,-0.003285811533905992,-0.018693564090296027,133.04304263415094,24.417144735499015,0,0.3429279327392578,2019-08-07 13:39:46:499
-0.19591686129570007,0.06669138371944427,9.800676345825195,-0.004521819705845669,-0.0064823853250510115,-0.01602975177410648,133.96067777038954,27.521980805478535,0,0.3467741012573242,2019-08-07 13:39:46:503
-0.19591686129570007,0.03555963933467865,9.74080753326416,-0.0018580084299534227,-0.0022202867634747683,-0.019226325305177174,134.8588218275486,30.56769460895523,0,0.35000109672546387,2019-08-07 13:39:46:506
-0.22225911915302277,0.05471763759851456,9.764754295349121,-0.002390770685131872,-0.0011547622531178697,-0.019492705912617748,135.7357590927373,33.550316641928596,0,0.35295915603637695,2019-08-07 13:39:46:509
-0.10012687742710114,-0.017124855890870094,9.805465698242188,-0.006120106991529666,-0.0024866678910639927,-0.019226325305177174,136.6098744243933,29.282619548228162,0,0.3567652702331543,2019-08-07 13:39:46:513
-0.22944335639476776,0.02119114063680172,9.843781471252441,-0.0026571518127210965,-0.0046177169117777896,-0.019226325305177174,137.4518062359711,32.294980196676285,0,0.3599817752838135,2019-08-07 13:39:46:516
-0.20310111343860626,0.11219162493944168,9.853360176086426,-0.0005261027594980092,-0.009412577728532483,-0.021090993718450395,138.2807103707074,35.23612063805169,0,0.3629276752471924,2019-08-07 13:39:46:519
-0.16478511691093445,-0.0267038531601429,9.767149925231934,-0.0018580084299534227,-0.007281528707818685,-0.019759088600652924,139.09733883570772,30.934932837313912,0,0.3667774200439453,2019-08-07 13:39:46:523
-0.22944335639476776,0.03555963933467865,9.815044403076172,-0.001058865047185749,-0.009412577728532483,-0.02029184981553407,139.8903113242236,33.91227405636616,0,0.3699979782104492,2019-08-07 13:39:46:526
-0.2198643684387207,0.009217391721904278,9.74080753326416,-0.006919250374297341,-0.011277246141805704,-0.017095276284463376,140.66861449977557,36.834152953237094,0,0.3731091022491455,2019-08-07 13:39:46:530
-0.12646912038326263,0.023585889488458633,9.685728073120117,-0.0031899140678995457,-0.0024866678910639927,-0.0178944201873797,141.440794958068,39.69533936390311,0,0.37679338455200195,2019-08-07 13:39:46:533
-0.11210063099861145,0.04274388775229454,9.800676345825195,-0.0018580084299534227,-0.0008883811255286454,-0.0178944201873797,142.19903314434566,42.49677069542502,0,0.38001203536987305,2019-08-07 13:39:46:536
-0.1360481232404709,-0.0075458562932908535,9.79349136352539,-0.005320963088613342,-0.0038185737890844406,-0.014165083360833256,142.9397698152441,38.04860305780727,0,0.38297367095947266,2019-08-07 13:39:46:539
-0.24141710996627808,0.06190188601613045,9.783912658691406,-0.005320963088613342,0.0009762868976330894,-0.01656251402928493,143.65249667543063,40.88151530288371,0,0.38677024841308594,2019-08-07 13:39:46:543
-0.2198643684387207,0.04753338545560837,9.853360176086426,-0.0031899140678995457,-0.0024866678910639927,-0.015230607871190155,144.35433223782073,43.65893534920142,0,0.3899989128112793,2019-08-07 13:39:46:546
-0.11689012497663498,-0.014730105176568031,9.738412857055664,-0.007452012629475789,-0.0056832419422833385,-0.016828894636725503,145.0544338117701,39.18872507262074,0,0.39295077323913574,2019-08-07 13:39:46:549
-0.14562712609767914,0.004427892155945301,9.846176147460938,-0.0026571518127210965,-0.0035521926614952163,-0.017361656891903953,145.73716516385812,42.00500908858628,0,0.39679694175720215,2019-08-07 13:39:46:553
-0.23183810710906982,-0.012335355393588543,9.827017784118652,-0.004788200833434893,-0.0019539056358855436,-0.01602975177410648,146.3957452691739,37.56721171032508,0,0.4000120162963867,2019-08-07 13:39:46:556
-0.22944335639476776,0.06190188601613045,9.910834312438965,-0.0034562954555630953,-0.0038185737890844406,-0.014964227263749581,147.04194277762966,40.409286425422344,0,0.4029805660247803,2019-08-07 13:39:46:559
-0.11449537426233292,0.014006891287863255,9.882097244262695,-0.0029235329403103213,-0.003019430146242442,-0.015230607871190155,147.68847149066357,43.200099746490515,0,0.40677738189697266,2019-08-07 13:39:46:563
-0.12646912038326263,-0.009940605610609055,9.872518539428711,-0.004521819705845669,-0.007015147580229461,-0.012300415987857336,148.32128966325496,38.73806775465852,0,0.409991979598999,2019-08-07 13:39:46:566
-0.19591686129570007,-0.02909860387444496,9.843781471252441,-0.004788200833434893,-0.0064823853250510115,-0.008304698553870315,148.933135566777,34.36748809402829,0,0.4129464626312256,2019-08-07 13:39:46:569
-0.140837624669075,-0.053046099841594696,9.870123863220215,-0.004521819705845669,-0.0064823853250510115,-0.014964227263749581,149.53951398243402,30.087267320452607,0,0.41676855087280273,2019-08-07 13:39:46:573
-0.21268011629581451,-0.019519604742527008,9.819833755493164,-0.0005261027594980092,-0.006216004197461787,-0.010702129222321988,150.12506793880607,25.88789787282117,0,0.4200887680053711,2019-08-07 13:39:46:577
-0.21028536558151245,-0.0267038531601429,9.803071022033691,-0.0029235329403103213,-0.004084954916673665,-0.009902985319405663,150.69867117518476,21.773749385865038,0,0.4230613708496094,2019-08-07 13:39:46:580
-0.1360481232404709,-0.038677603006362915,9.848570823669434,-0.0018580084299534227,-0.004084954916673665,-0.010968509829762562,151.26971879537692,17.74316113319229,0,0.42676591873168945,2019-08-07 13:39:46:583
-0.21028536558151245,-0.04107235372066498,9.874913215637207,-0.00425543883833077,-0.0011547622531178697,-0.00857107968145954,151.82013479138521,13.79383368804628,0,0.42998695373535156,2019-08-07 13:39:46:586
-0.09773212671279907,-0.0003616072062868625,9.867729187011719,-0.0034562954555630953,-0.003285811533905992,-0.006440030660745744,152.3729266707292,9.918570811734373,0,0.43293333053588867,2019-08-07 13:39:46:589
-0.0953373834490776,-0.06741459667682648,9.803071022033691,-0.00025972161565413924,-0.0024866678910639927,-0.0051081250227996205,152.91486039163902,6.12813560806306,0,0.43677377700805664,2019-08-07 13:39:46:593
-0.07857413589954376,-0.06741459667682648,9.827017784118652,-0.0026571518127210965,-0.003019430146242442,-0.005907268405567294,153.44794785725412,2.4139151855533996,0,0.4399995803833008,2019-08-07 13:39:46:596
-0.10491637885570526,-0.0722040981054306,9.829413414001465,-0.004521819705845669,-0.0006219999979394207,-0.006972792915924193,153.96686167136485,-1.2251933757045026,0,0.442962646484375,2019-08-07 13:39:46:599
-0.1480218768119812,-0.08896734565496445,9.728833198547363,-0.0026571518127210965,-0.0035521926614952163,-0.0051081250227996205,154.47084957659425,-4.789643259957542,0,0.4467661380767822,2019-08-07 13:39:46:603
-0.14562712609767914,-0.0027563569601625204,9.898860931396484,-0.0037226765831523197,-0.0038185737890844406,-0.002977075742011499,154.9652662387341,-8.292858076384038,0,0.44998693466186523,2019-08-07 13:39:46:606
-0.20310111343860626,-0.04346710070967674,9.896466255187988,-0.0005261027594980092,-0.007547909835407911,-0.005907268405567294,155.44370143419903,-11.72188044296049,0,0.45294666290283203,2019-08-07 13:39:46:609
-0.14562712609767914,-0.02909860387444496,9.812649726867676,-0.0018580084299534227,-0.007547909835407911,-0.004308981379957623,155.91944417665414,-15.08364550654856,0,0.4567732810974121,2019-08-07 13:39:46:613
-0.03307388722896576,-0.06023034825921059,9.846176147460938,-0.0021243895575426474,-0.008080672090586358,-0.0008460265262419585,156.39866780162944,-18.374578692781032,0,0.4599947929382324,2019-08-07 13:39:46:616
-0.1025216281414032,-0.06501984596252441,9.896466255187988,-0.0013252461747749735,-0.007814290962997135,-0.00244431348683305,156.86011831150282,-21.599339023756166,0,0.46294498443603516,2019-08-07 13:39:46:619
-0.07138988375663757,-0.038677603006362915,9.759964942932129,-0.0029235329403103213,-0.0011547622531178697,-0.0035098379971899483,157.31478332866996,-24.762180470119397,0,0.46678686141967773,2019-08-07 13:39:46:623
-0.15281137824058533,-0.0075458562932908535,9.841386795043945,-0.0021243895575426474,-0.0003556188378409054,-0.0011124077188497644,157.75076016916196,-27.86567475415271,0,0.4700016975402832,2019-08-07 13:39:46:626
-0.08336362987756729,-0.07699359953403473,9.862939834594727,-0.0026571518127210965,-0.0014211433807070943,-0.004308981379957623,158.18629638838553,-30.898973434402127,0,0.47296810150146484,2019-08-07 13:39:46:629
-0.04025813564658165,-0.014730105176568031,9.85096549987793,-0.0034562954555630953,-0.0022202867634747683,-0.0011124077188497644,158.6183613302672,-33.87854280158419,0,0.47676920890808105,2019-08-07 13:39:46:633
-0.10970588028430939,0.023585889488458633,9.81025505065918,-0.0007924839195965244,-0.0022202867634747683,-0.000579645398652734,159.03358147545563,-29.60358370427025,0,0.47998857498168945,2019-08-07 13:39:46:636
-0.05462663620710373,-0.0267038531601429,9.90125560760498,-0.0039890577107415445,-0.0014211433807070943,0.001018641496919776,159.44682373693917,-32.607759029777135,0,0.48294615745544434,2019-08-07 13:39:46:639
-0.13844287395477295,0.030770137906074524,9.834202766418457,-0.0007924839195965244,-0.004884098039367014,0.00021949806538816636,159.84280557180324,-28.35901905792928,0,0.4867715835571289,2019-08-07 13:39:46:643
-0.07378463447093964,0.030770137906074524,9.81025505065918,-0.0031899140678995457,-0.003019430146242442,-0.004042600252368397,160.23787660353992,-24.194856443543532,0,0.4899897575378418,2019-08-07 13:39:46:646
-0.15999561548233032,0.04274388775229454,9.877307891845703,-0.0013252461747749735,-0.007547909835407911,-0.00031326423855421875,160.61580914073474,-20.11569868381526,0,0.49293994903564453,2019-08-07 13:39:46:649
-0.04265288636088371,0.004427892155945301,9.815044403076172,-0.005853725863940442,-0.0054168602945454634,0.00021949806538816636,160.99968443791715,-16.11263600030995,0,0.49679064750671387,2019-08-07 13:39:46:653
-0.1480218768119812,0.08584938198328018,9.824623107910156,-0.00025972161565413924,-0.005150479166956239,-0.002977075742011499,161.36335742134355,-12.200349341415258,0,0.500007152557373,2019-08-07 13:39:46:656
-0.14323237538337708,0.052322886884212494,9.915623664855957,-0.0039890577107415445,-0.0024866678910639927,0.0015514038171168065,161.71995482022888,-8.361721285702032,0,0.5029885768890381,2019-08-07 13:39:46:659
-0.009126391261816025,0.03316488862037659,9.877307891845703,-0.001058865047185749,-0.0027530490186532175,-0.002977075742011499,162.08508174977334,-4.598109536937595,0,0.5067718029022217,2019-08-07 13:39:46:663
-0.08815313130617142,-0.009940605610609055,9.846176147460938,-0.005054581961024118,-0.0027530490186532175,-0.0008460265262419585,162.43361914609758,-8.104075792349814,0,0.5099945068359375,2019-08-07 13:39:46:666
-0.10012687742710114,0.016401641070842743,9.834202766418457,-0.0034562954555630953,0.00017714346610147965,-0.001911551101617438,162.7732494560064,-4.343308845521885,0,0.513068675994873,2019-08-07 13:39:46:670
-0.06181088462471962,-0.017124855890870094,9.872518539428711,-0.004788200833434893,0.00044352460994534954,-0.00031326423855421875,163.11051738509863,-7.853454102518601,0,0.5167913436889648,2019-08-07 13:39:46:673
-0.1552061289548874,-0.0027563569601625204,9.846176147460938,-0.0037226765831523197,-0.0011547622531178697,-0.0016451699740282137,163.43045384644273,-11.295392140982695,0,0.5200066566467285,2019-08-07 13:39:46:676
-0.07138988375663757,0.10500738024711609,9.815044403076172,-0.0031899140678995457,-0.0014211433807070943,-0.002177932229206663,163.7537465057476,-7.481212858379177,0,0.5229694843292236,2019-08-07 13:39:46:679
-0.057021383196115494,-0.0267038531601429,9.889281272888184,6.659528697688281e-06,-0.003285811533905992,-4.688308251936486e-05,164.07276535649464,-10.92849573373663,0,0.5267691612243652,2019-08-07 13:39:46:683
-0.10970588028430939,0.04753338545560837,9.884491920471191,-0.004521819705845669,-0.0038185737890844406,-0.002977075742011499,164.37928236487505,-7.114619199442929,0,0.5299875736236572,2019-08-07 13:39:46:686
-0.0953373834490776,0.06908613443374634,9.800676345825195,-0.006652869246708115,-0.0003556188378409054,-0.00244431348683305,164.68060900344105,-3.379300974387671,0,0.5329413414001465,2019-08-07 13:39:46:689
-0.052231885492801666,0.02837538905441761,9.872518539428711,6.659528697688281e-06,-0.005150479166956239,-0.004042600252368397,164.98204180895627,0.2849900551746192,0,0.5367710590362549,2019-08-07 13:39:46:693
-0.13125862181186676,0.014006891287863255,9.906044960021973,-0.0021243895575426474,-0.0024866678910639927,-0.002977075742011499,165.267667346222,3.8780537805330213,0,0.5399887561798096,2019-08-07 13:39:46:696
-0.05941613391041756,0.0714808851480484,9.831808090209961,-0.0005261027594980092,-0.0022202867634747683,-0.004575362767621172,165.55575610572572,7.392248602469955,0,0.5429332256317139,2019-08-07 13:39:46:699
-0.016310639679431915,-0.014730105176568031,9.922808647155762,-0.0034562954555630953,-0.00435133604426289,-0.0032434568696007235,165.8436969899337,3.64685104111028,0,0.5467789173126221,2019-08-07 13:39:46:703
-0.10491637885570526,0.03316488862037659,9.913228988647461,-0.004788200833434893,-0.007547909835407911,-0.00031326423855421875,166.1160638890868,7.170948273315382,0,0.5500071048736572,2019-08-07 13:39:46:706
-0.011521141044795513,0.06429663300514221,9.836597442626953,-0.00025972161565413924,-0.009412577728532483,-0.004308981379957623,166.393968748119,10.62008244456934,0,0.5529744625091553,2019-08-07 13:39:46:709
-0.09773212671279907,0.04753338545560837,9.803071022033691,-0.0034562954555630953,-0.0046177169117777896,-0.004308981379957623,166.65564809793506,14.002859955865924,0,0.5567641258239746,2019-08-07 13:39:46:713
-0.02588963881134987,0.02837538905441761,9.759964942932129,-0.0021243895575426474,-0.0019539056358855436,-0.005907268405567294,166.91986763740871,17.319875883793635,0,0.5601565837860107,2019-08-07 13:39:46:717
-0.06660038232803345,0.04274388775229454,9.824623107910156,-0.004521819705845669,-0.0027530490186532175,-0.00617364953315652,167.17416346439083,20.569250280349184,0,0.5631396770477295,2019-08-07 13:39:46:720
-0.1360481232404709,0.08345463126897812,9.841386795043945,-0.0031899140678995457,0.00017714346610147965,-0.006440030660745744,167.41480391447433,23.748797537604087,0,0.5667650699615479,2019-08-07 13:39:46:723
-0.06899513304233551,-0.038677603006362915,9.807860374450684,-0.0029235329403103213,-0.0027530490186532175,-0.0051081250227996205,167.65894367222708,19.678868134414568,0,0.569979190826416,2019-08-07 13:39:46:726
-0.0953373834490776,0.018796389922499657,9.803071022033691,0.0008058029759759856,-0.0046177169117777896,-0.008038317426281092,167.8953829210198,22.88296061068435,0,0.5729184150695801,2019-08-07 13:39:46:729
-0.10970588028430939,0.025980640202760696,9.834202766418457,-0.007984774884654239,-0.0054168602945454634,-0.006972792915924193,168.12586478188044,26.024002091791733,0,0.5767726898193359,2019-08-07 13:39:46:733
0.005242106970399618,0.07627038657665253,9.736018180847168,6.659528697688281e-06,-0.0022202867634747683,-0.008304698553870315,161.1643666615285,29.09454411047717,0,0.5799987316131592,2019-08-07 13:39:46:736
-0.12407437711954117,0.009217391721904278,9.819833755493164,-0.001058865047185749,-0.008613434345764809,-0.00617364953315652,161.52803085656112,32.111753344402224,0,0.5829544067382812,2019-08-07 13:39:46:739
-0.13365337252616882,0.023585889488458633,9.779123306274414,-0.0034562954555630953,-0.0035521926614952163,-0.009902985319405663,161.8825700785534,35.067494304666575,0,0.5867664813995361,2019-08-07 13:39:46:743
-0.10970588028430939,0.04274388775229454,9.829413414001465,-0.0005261027594980092,-0.004084954916673665,-0.010702129222321988,162.23286792859165,37.96125643722477,0,0.5899851322174072,2019-08-07 13:39:46:746
-0.1360481232404709,0.011612141504883766,9.862939834594727,-0.006386488119118891,-0.0054168602945454634,-0.006706411788334968,162.5733009732409,40.80173856532366,0,0.5929310321807861,2019-08-07 13:39:46:749
-0.10491637885570526,0.016401641070842743,9.824623107910156,-0.0026571518127210965,-0.007281528707818685,-0.009370223064227214,162.91116983383077,43.58436424354826,0,0.5967748165130615,2019-08-07 13:39:46:753
-0.11689012497663498,-0.038677603006362915,9.898860931396484,-0.0021243895575426474,-0.0006219999979394207,-0.010702129222321988,163.23952824183027,39.11753910572304,0,0.6000003814697266,2019-08-07 13:39:46:756
-0.04744238778948784,-0.03628285229206085,9.932387351989746,-0.0015916273023641983,-0.0011547622531178697,-0.010435747574584113,163.56945633806782,34.73963912452961,0,0.6029634475708008,2019-08-07 13:39:46:759
-0.08096887916326523,0.006822641938924789,9.771939277648926,-0.005054581961024118,-0.0022202867634747683,-0.009370223064227214,163.88905066725513,37.645134762840854,0,0.6067986488342285,2019-08-07 13:39:46:763
-0.057021383196115494,-0.0075458562932908535,9.803071022033691,-0.0007924839195965244,-0.003019430146242442,-0.01150127208494101,164.2051488583932,33.29325705523119,0,0.6100106239318848,2019-08-07 13:39:46:766
-0.06420563161373138,0.03555963933467865,9.86054515838623,-0.0039890577107415445,-0.0003556188378409054,-0.010169366967143538,164.5136434995409,36.223921174944195,0,0.6129648685455322,2019-08-07 13:39:46:769
-0.0953373834490776,-0.06023034825921059,9.834202766418457,-0.0021243895575426474,-0.004084954916673665,-0.012300415987857336,164.81313368261783,31.906914268966744,0,0.6167654991149902,2019-08-07 13:39:46:773
-0.052231885492801666,-0.031493354588747025,9.764754295349121,-0.004788200833434893,0.00044352460994534954,-0.009902985319405663,165.1106614245051,27.67333669337327,0,0.6199824810028076,2019-08-07 13:39:46:776
-0.1671798676252365,0.052322886884212494,9.86054515838623,-0.005587344736351217,-0.0035521926614952163,-0.00857107968145954,165.3896080089232,30.71471165271789,0,0.6229219436645508,2019-08-07 13:39:46:779
-0.04744238778948784,-0.06501984596252441,9.841386795043945,-0.0029235329403103213,-0.0027530490186532175,-0.011767653732678886,165.67688721262724,26.508620428907467,0,0.6267738342285156,2019-08-07 13:39:46:783
-0.08336362987756729,-0.014730105176568031,9.759964942932129,-0.0013252461747749735,-0.005150479166956239,-0.009370223064227214,165.9544941384796,22.38041732239918,0,0.6299970149993896,2019-08-07 13:39:46:786
-0.028284389525651932,0.0020331426057964563,9.83899211883545,-0.004521819705845669,-0.0046177169117777896,-0.012034034340119461,166.23287643320532,25.533322627028195,0,0.6329526901245117,2019-08-07 13:39:46:789
-0.04265288636088371,-0.024309104308485985,9.870123863220215,-0.0029235329403103213,-0.003019430146242442,-0.00963660471196509,166.50391411053022,21.42610503826462,0,0.6367697715759277,2019-08-07 13:39:46:793
-0.1288638710975647,0.004427892155945301,9.827017784118652,-0.004788200833434893,-0.0003556188378409054,-0.008038317426281092,166.75887427516582,24.59793145030335,0,0.639986515045166,2019-08-07 13:39:46:796
-0.0761793851852417,-0.019519604742527008,9.81025505065918,-0.0031899140678995457,-0.0014211433807070943,-0.011767653732678886,167.015034770612,20.508782946736115,0,0.6429460048675537,2019-08-07 13:39:46:799
-0.0761793851852417,-0.06980934739112854,9.81025505065918,-0.006120106991529666,-0.003019430146242442,-0.012300415987857336,167.2664857157936,16.50807855699784,0,0.6467788219451904,2019-08-07 13:39:46:803
-0.0953373834490776,-0.04107235372066498,9.86054515838623,-0.0031899140678995457,-0.0022202867634747683,-0.008304698553870315,167.51047815632657,12.583266441473828,0,0.6499967575073242,2019-08-07 13:39:46:806
-0.05462663620710373,-0.03628285229206085,9.807860374450684,-0.0021243895575426474,-0.0027530490186532175,-0.010435747574584113,167.75435316288164,8.736200525391084,0,0.6530170440673828,2019-08-07 13:39:46:809
-0.08336362987756729,-0.08178309351205826,9.918018341064453,-0.005853725863940442,-0.006216004197461787,-0.010169366967143538,167.99092725289682,4.972142737583993,0,0.6567206382751465,2019-08-07 13:39:46:813
-0.11689012497663498,-0.0075458562932908535,9.867729187011719,0.0010721841035652101,-0.004084954916673665,-0.012300415987857336,168.21835726888733,1.2733603884114935,0,0.6603047847747803,2019-08-07 13:39:46:817
-0.06899513304233551,-0.10812534391880035,9.896466255187988,-0.00425543883833077,-0.008879815473354034,-0.008837460809048764,168.44729084282852,-2.338969450834052,0,0.662891149520874,2019-08-07 13:39:46:819
-0.03546863794326782,-0.0027563569601625204,9.824623107910156,-0.0039890577107415445,-0.0019539056358855436,-0.010968509829762562,168.67463293107477,-5.891001209851133,0,0.6667635440826416,2019-08-07 13:39:46:823
-0.13844287395477295,0.009217391721904278,9.896466255187988,0.0010721841035652101,-0.0054168602945454634,-0.010435747574584113,168.88608848653755,-2.1744419559750123,0,0.6699774265289307,2019-08-07 13:39:46:826
-0.11210063099861145,-0.045861851423978806,9.867729187011719,-0.0026571518127210965,-0.0038185737890844406,-0.008304698553870315,169.0959817051601,-5.72518727095331,0,0.6729269027709961,2019-08-07 13:39:46:829
-0.037863388657569885,-0.04825660213828087,9.862939834594727,-0.005054581961024118,-0.0014211433807070943,-0.00963660471196509,169.30996990529454,-9.203985261762298,0,0.6767733097076416,2019-08-07 13:39:46:833
-0.037863388657569885,-0.06023034825921059,9.889281272888184,-0.0031899140678995457,-0.003019430146242442,-0.008304698553870315,169.51992954669376,-12.612349209270022,0,0.6799962520599365,2019-08-07 13:39:46:836
-0.16239036619663239,0.018796389922499657,9.874913215637207,-0.001058865047185749,-0.003019430146242442,-0.007239174043513418,169.71118895329502,-8.762107868131977,0,0.6829488277435303,2019-08-07 13:39:46:839
-0.18394312262535095,-0.04107235372066498,9.82222843170166,-0.005054581961024118,-0.0038185737890844406,-0.006706411788334968,169.89632547024345,-12.180991751514497,0,0.6867620944976807,2019-08-07 13:39:46:843
-0.13365337252616882,-0.038677603006362915,9.906044960021973,-0.0021243895575426474,-0.0038185737890844406,-0.007239174043513418,170.0836289514914,-15.532513983427078,0,0.6899795532226562,2019-08-07 13:39:46:846
-0.06899513304233551,0.025980640202760696,9.800676345825195,-0.002390770685131872,-0.0024866678910639927,-0.004575362767621172,170.27430107438863,-11.624505657540988,0,0.6929275989532471,2019-08-07 13:39:46:849
-0.0761793851852417,-0.021914353594183922,9.755175590515137,-0.005320963088613342,0.002840954920794824,-0.008837460809048764,170.4592487632229,-14.98828408001469,0,0.696800947189331,2019-08-07 13:39:46:853
-0.12646912038326263,0.004427892155945301,9.841386795043945,-0.00025972161565413924,-0.008347053218175584,-0.009103842456786639,170.6369375581043,-11.088984227150224,0,0.7002122402191162,2019-08-07 13:39:46:857
-0.24381186068058014,-0.014730105176568031,9.877307891845703,-0.0015916273023641983,-0.004084954916673665,-0.008837460809048764,170.79660989994062,-14.46522632708875,0,0.7032256126403809,2019-08-07 13:39:46:860
-0.08815313130617142,0.023585889488458633,9.86054515838623,-0.0031899140678995457,-0.004084954916673665,-0.008304698553870315,170.97124821789077,-10.578026560227151,0,0.7067775726318359,2019-08-07 13:39:46:863
-0.16239036619663239,0.014006891287863255,9.865334510803223,-0.0039890577107415445,-0.0046177169117777896,-0.0051081250227996205,171.1337977266765,-6.767371385377527,0,0.7099993228912354,2019-08-07 13:39:46:866
-0.1480218768119812,-0.014730105176568031,9.788702011108398,-0.0015916273023641983,-0.00435133604426289,-0.00857107968145954,171.29451716128207,-10.230035387134093,0,0.7129554748535156,2019-08-07 13:39:46:869
-0.12407437711954117,0.059507135301828384,9.927597999572754,-0.005587344736351217,-0.005949623069872562,-0.00617364953315652,171.45558276371202,-6.431104319863463,0,0.7167773246765137,2019-08-07 13:39:46:873
-0.0953373834490776,-0.014730105176568031,9.81025505065918,0.0010721841035652101,-0.0024866678910639927,-0.0077719362986918665,171.61578390512855,-9.900955069580924,0,0.7199902534484863,2019-08-07 13:39:46:876
-0.04744238778948784,-0.014730105176568031,9.819833755493164,-0.0005261027594980092,-0.0027530490186532175,-0.004575362767621172,171.7783887423528,-13.301129777523483,0,0.7229447364807129,2019-08-07 13:39:46:879
-0.06660038232803345,-0.021914353594183922,9.7982816696167,-0.005320963088613342,-0.0038185737890844406,-0.004841743895210396,171.93585142685586,-16.63140264240029,0,0.7267658710479736,2019-08-07 13:39:46:883
-0.11210063099861145,0.03555963933467865,9.874913215637207,-0.002390770685131872,0.00044352460994534954,-0.005640887277978069,172.08404632469296,-12.702469106353869,0,0.7299833297729492,2019-08-07 13:39:46:886
0.00045260769547894597,-0.021914353594183922,9.819833755493164,-0.0013252461747749735,-0.003019430146242442,-0.004042600252368397,165.04291689640968,-16.04564358071524,0,0.7329246997833252,2019-08-07 13:39:46:889
-0.0953373834490776,-0.045861851423978806,9.788702011108398,-0.0013252461747749735,-0.0011547622531178697,-0.004575362767621172,165.33114753626427,-19.31907581128036,0,0.7367696762084961,2019-08-07 13:39:46:893
-0.20310111343860626,-0.021914353594183922,9.829413414001465,-0.0013252461747749735,-0.0024866678910639927,-0.0035098379971899483,165.60129984745478,-22.529899975215752,0,0.7399888038635254,2019-08-07 13:39:46:896
-0.1288638710975647,-0.019519604742527008,9.728833198547363,-0.0026571518127210965,-0.0054168602945454634,-0.005907268405567294,165.8749941946009,-25.67656247397211,0,0.7429404258728027,2019-08-07 13:39:46:899
-0.140837624669075,0.04753338545560837,9.886886596679688,-0.005853725863940442,-0.004884098039367014,-0.000579645398652734,166.14223479273323,-21.567266603422617,0,0.7468159198760986,2019-08-07 13:39:46:903
-0.13365337252616882,-0.017124855890870094,9.716859817504883,-0.002390770685131872,-0.004084954916673665,-0.002977075742011499,166.40436167119123,-24.733473076322383,0,0.7500090599060059,2019-08-07 13:39:46:906
-0.14323237538337708,0.05711238458752632,9.8797025680542,0.0021377086139221083,-0.005150479166956239,-0.002977075742011499,166.66052027163238,-20.645783832959577,0,0.7529749870300293,2019-08-07 13:39:46:909
-0.2078906148672104,-0.019519604742527008,9.8797025680542,-0.0018580084299534227,-0.004084954916673665,-0.0027106946144222744,166.90406947852875,-23.830209051463093,0,0.7567620277404785,2019-08-07 13:39:46:913
-0.2007063627243042,0.023585889488458633,9.81025505065918,-0.0015916273023641983,-0.0019539056358855436,-0.006440030660745744,167.14289952415038,-19.756072937492025,0,0.7599728107452393,2019-08-07 13:39:46:916
-0.1552061289548874,0.04274388775229454,9.884491920471191,-0.0015916273023641983,-0.0014211433807070943,-0.004308981379957623,167.38228644150186,-15.765641817267479,0,0.7629375457763672,2019-08-07 13:39:46:919
-0.13125862181186676,0.02119114063680172,9.721649169921875,0.001338565231154435,-0.004884098039367014,-0.0027106946144222744,167.62022294288803,-11.853115443876455,0,0.766777515411377,2019-08-07 13:39:46:923
-0.1360481232404709,-0.014730105176568031,9.834202766418457,-0.004788200833434893,-0.0008883811255286454,-0.006706411788334968,167.85212734305733,-15.213470864031262,0,0.7699980735778809,2019-08-07 13:39:46:926
-0.1216796264052391,-0.03388810157775879,9.726438522338867,-0.0013252461747749735,-0.0022202867634747683,-0.004308981379957623,168.08111762607075,-18.504989475234098,0,0.7729475498199463,2019-08-07 13:39:46:929
-0.08815313130617142,0.06190188601613045,9.786307334899902,-0.001058865047185749,-0.0038185737890844406,-0.0037762191247791726,168.30999195345558,-14.541910926484036,0,0.7767653465270996,2019-08-07 13:39:46:933
-0.1025216281414032,0.04274388775229454,9.877307891845703,0.0026704709991377204,0.00044352460994534954,-0.0032434568696007235,168.53181834097234,-10.65651423359697,0,0.7799839973449707,2019-08-07 13:39:46:936
-0.140837624669075,-0.014730105176568031,9.872518539428711,-0.005054581961024118,-0.0038185737890844406,-0.007239174043513418,168.74546680527797,-14.0408390678558,0,0.7829265594482422,2019-08-07 13:39:46:939
-0.18394312262535095,0.08345463126897812,9.795886039733887,-0.0031899140678995457,-0.0024866678910639927,-0.0051081250227996205,168.94958052293055,-10.16909428857328,0,0.7867801189422607,2019-08-07 13:39:46:943
-0.11210063099861145,0.08105988055467606,9.906044960021973,-0.001058865047185749,-0.004884098039367014,-0.0016451699740282137,169.1585047261337,-6.374897664284772,0,0.7899994850158691,2019-08-07 13:39:46:946
-0.21268011629581451,0.05471763759851456,9.805465698242188,-0.0029235329403103213,-0.001687524508296319,-0.006440030660745744,169.3507666695467,-2.6533039408020893,0,0.7929861545562744,2019-08-07 13:39:46:949
-0.10970588028430939,-0.019519604742527008,9.827017784118652,-0.0037226765831523197,-0.003019430146242442,-0.005907268405567294,169.551601145326,-6.197170262382722,0,0.7967724800109863,2019-08-07 13:39:46:953
-0.19112737476825714,0.016401641070842743,9.83899211883545,-0.0018580084299534227,-0.0046177169117777896,-0.004841743895210396,169.73934887243576,-2.4747198737650815,0,0.8007717132568359,2019-08-07 13:39:46:957
-0.1815483719110489,0.10740213096141815,9.891676902770996,-0.0026571518127210965,-0.0027530490186532175,-0.0037762191247791726,169.9238931174215,1.1626808916697495,0,0.8031044006347656,2019-08-07 13:39:46:960
-0.19831161201000214,0.03316488862037659,9.800676345825195,6.659528697688281e-06,-0.004884098039367014,-0.006440030660745744,170.10323152764778,4.735548216776204,0,0.8067512512207031,2019-08-07 13:39:46:963
-0.2270486205816269,0.025980640202760696,9.858149528503418,0.001871327486332884,-0.001687524508296319,-0.006972792915924193,170.2750842901049,8.237479084525006,0,0.8099696636199951,2019-08-07 13:39:46:966
-0.14562712609767914,-0.014730105176568031,9.764754295349121,-0.006386488119118891,-0.0038185737890844406,-0.008038317426281092,170.4531264044437,4.475515453547212,0,0.8129181861877441,2019-08-07 13:39:46:969
-0.239022359251976,0.004427892155945301,9.805465698242188,-0.0037226765831523197,-0.003019430146242442,-0.005640887277978069,170.61678899354112,7.986292681605072,0,0.8167693614959717,2019-08-07 13:39:46:973
-0.19591686129570007,0.04753338545560837,9.807860374450684,-0.0018580084299534227,-0.0035521926614952163,-0.005374506150388846,170.7822092872735,11.421349702942885,0,0.8199944496154785,2019-08-07 13:39:46:976
-0.18394312262535095,0.02119114063680172,9.843781471252441,-0.0018580084299534227,-0.0014211433807070943,-0.006440030660745744,170.94539057187274,14.79076415662062,0,0.8229496479034424,2019-08-07 13:39:46:979
-0.11689012497663498,0.02837538905441761,9.843781471252441,-0.00025972161565413924,-0.0027530490186532175,-0.008304698553870315,171.11346692929584,18.091701429102073,0,0.8267710208892822,2019-08-07 13:39:46:983
-0.11449537426233292,0.06908613443374634,9.867729187011719,-0.0034562954555630953,-0.006748766452640236,-0.002977075742011499,171.27912026279026,21.32246858408584,0,0.8299856185913086,2019-08-07 13:39:46:986
-0.24381186068058014,0.025980640202760696,9.805465698242188,-0.005054581961024118,-0.00435133604426289,-0.009902985319405663,171.42577042095544,24.4938190803274,0,0.8329315185546875,2019-08-07 13:39:46:989
-0.10970588028430939,-0.014730105176568031,9.829413414001465,0.0010721841035652101,-0.004084954916673665,-0.007505555171102641,171.58534830704082,20.405428357397184,0,0.8367781639099121,2019-08-07 13:39:46:993
-0.09773212671279907,0.030770137906074524,9.877307891845703,-0.00425543883833077,-0.0056832419422833385,-0.009103842456786639,171.74351082687826,23.594654148809326,0,0.840562105178833,2019-08-07 13:39:46:997
-0.1552061289548874,-0.0027563569601625204,9.834202766418457,-0.0031899140678995457,-0.003285811533905992,-0.006440030660745744,171.89109501023725,19.523604600549916,0,0.8434784412384033,2019-08-07 13:39:47:000
-0.21746961772441864,0.0714808851480484,9.870123863220215,-0.0037226765831523197,-0.0035521926614952163,-0.010968509829762562,172.02869342615801,22.725529975208094,0,0.8468091487884521,2019-08-07 13:39:47:003
-0.17196936905384064,0.04274388775229454,9.803071022033691,-0.0018580084299534227,-0.0019539056358855436,-0.0077719362986918665,172.16837287099858,25.86635893917214,0,0.8500299453735352,2019-08-07 13:39:47:006
-0.2869173586368561,0.06190188601613045,9.862939834594727,-0.0037226765831523197,-0.004084954916673665,-0.00963660471196509,172.29235897595737,28.942458961381035,0,0.8529918193817139,2019-08-07 13:39:47:009
-0.193522110581398,0.02119114063680172,9.714465141296387,0.0021377086139221083,-0.001687524508296319,-0.011234891477500435,172.42404570415187,31.96065569055319,0,0.8567774295806885,2019-08-07 13:39:47:013
-0.08096887916326523,0.05471763759851456,9.78151798248291,-0.005054581961024118,-0.0024866678910639927,-0.009902985319405663,172.56652828837602,34.915944827962875,0,0.859992265701294,2019-08-07 13:39:47:016
-0.2078906148672104,-0.0003616072062868625,9.786307334899902,-0.0013252461747749735,-0.0003556188378409054,-0.00963660471196509,172.69091758307593,30.617887750936966,0,0.8629417419433594,2019-08-07 13:39:47:019
-0.2342328578233719,0.004427892155945301,9.862939834594727,-0.001058865047185749,-0.0019539056358855436,-0.0077719362986918665,172.81031011712165,33.60524308625166,0,0.8667688369750977,2019-08-07 13:39:47:023
-0.1216796264052391,0.03316488862037659,9.853360176086426,-0.005853725863940442,-0.0035521926614952163,-0.013099558850476358,172.94059526241944,36.530338562444314,0,0.8699855804443359,2019-08-07 13:39:47:026
-0.18633787333965302,0.02837538905441761,9.795886039733887,-0.0037226765831523197,-0.00435133604426289,-0.012566796595297908,173.06071163348992,39.39703128314636,0,0.87294602394104,2019-08-07 13:39:47:029
-0.1025216281414032,-0.005151106510311365,9.8797025680542,-0.0031899140678995457,0.0007099057700438648,-0.010702129222321988,173.18745412403896,35.0103735587431,0,0.8767728805541992,2019-08-07 13:39:47:033
-0.19831161201000214,0.016401641070842743,9.829413414001465,-0.0021243895575426474,-0.008347053218175584,-0.006440030660745744,173.30209961735633,37.90863845622101,0,0.8799960613250732,2019-08-07 13:39:47:036
-0.11210063099861145,0.009217391721904278,9.7982816696167,-0.0018580084299534227,-0.0038185737890844406,-0.010435747574584113,173.4235803575315,40.74969541706541,0,0.8829455375671387,2019-08-07 13:39:47:039
-0.2078906148672104,0.052322886884212494,9.86054515838623,-0.006386488119118891,-0.00435133604426289,-0.010435747574584113,173.53189682116292,43.5300064017964,0,0.8868088722229004,2019-08-07 13:39:47:043
-0.19591686129570007,0.10979688167572021,9.891676902770996,-0.0015916273023641983,-0.0054168602945454634,-0.009370223064227214,173.6395415789215,46.24697399396426,0,0.8900177478790283,2019-08-07 13:39:47:046
-0.11210063099861145,0.02837538905441761,9.786307334899902,-0.0031899140678995457,-0.004884098039367014,-0.011767653732678886,173.7544378279212,48.91924279468724,0,0.8929815292358398,2019-08-07 13:39:47:049
-0.09054788202047348,0.0020331426057964563,9.807860374450684,-0.007185631501886564,-0.004884098039367014,-0.01150127208494101,173.8698085115374,51.542148167005976,0,0.8967680931091309,2019-08-07 13:39:47:053
-0.23662760853767395,0.02119114063680172,9.819833755493164,-0.002390770685131872,-0.0027530490186532175,-0.013898702753392682,173.96530118186283,54.10926350892339,0,0.8999800682067871,2019-08-07 13:39:47:056
-0.0498371347784996,-0.02909860387444496,9.745596885681152,-0.005853725863940442,-0.003019430146242442,-0.010169366967143538,174.08063721042097,49.43147293974122,0,0.9029409885406494,2019-08-07 13:39:47:059
-0.11689012497663498,0.09063888341188431,9.867729187011719,-0.004521819705845669,-0.004884098039367014,-0.012300415987857336,174.1865005462252,52.033289860320046,0,0.9067683219909668,2019-08-07 13:39:47:063
-0.2007063627243042,0.04992813616991043,9.783912658691406,-0.0026571518127210965,-0.00435133604426289,-0.009103842456786639,174.2800532517848,54.58725677026566,0,0.9099879264831543,2019-08-07 13:39:47:066
-0.18394312262535095,0.07387563586235046,9.762359619140625,-0.005320963088613342,-0.004884098039367014,-0.010435747574584113,174.3736746658482,57.08772412979582,0,0.9129464626312256,2019-08-07 13:39:47:069
-0.18394312262535095,0.04274388775229454,9.831808090209961,-0.001058865047185749,-0.0035521926614952163,-0.009902985319405663,174.46552671370344,59.54121492800567,0,0.9167666435241699,2019-08-07 13:39:47:073
-0.052231885492801666,-0.019519604742527008,9.865334510803223,-0.0039890577107415445,-0.007547909835407911,-0.008837460809048764,174.57150886454727,54.75337652129222,0,0.9199748039245605,2019-08-07 13:39:47:076
-0.08096887916326523,0.023585889488458633,9.843781471252441,-0.0018580084299534227,-0.007547909835407911,-0.00963660471196509,174.67189949438975,57.25587012493638,0,0.9229152202606201,2019-08-07 13:39:47:079
-0.15760086476802826,-0.0075458562932908535,9.824623107910156,-0.0018580084299534227,-0.008347053218175584,-0.006972792915924193,174.76188909288314,52.512035326809766,0,0.9267730712890625,2019-08-07 13:39:47:083
-0.16239036619663239,0.004427892155945301,9.834202766418457,-0.0013252461747749735,-0.007281528707818685,-0.00963660471196509,174.84904865602064,55.06151852921147,0,0.9299964904785156,2019-08-07 13:39:47:086
-0.17915362119674683,-0.019519604742527008,9.858149528503418,-0.0039890577107415445,-0.0054168602945454634,-0.008837460809048764,174.93214500908243,50.36321984427211,0,0.932955265045166,2019-08-07 13:39:47:089
-0.13365337252616882,0.03316488862037659,9.774333953857422,-0.0021243895575426474,-0.004884098039367014,-0.007239174043513418,175.0188827010282,52.95252347410814,0,0.9367794990539551,2019-08-07 13:39:47:093
-0.09773212671279907,0.006822641938924789,9.795886039733887,-0.0018580084299534227,-0.0024866678910639927,-0.011767653732678886,175.10752196806678,55.493010514900575,0,0.9399964809417725,2019-08-07 13:39:47:096
-0.11689012497663498,-0.019519604742527008,9.7982816696167,-0.006919250374297341,-0.003285811533905992,-0.009103842456786639,175.19224918210367,50.78658580999921,0,0.9429633617401123,2019-08-07 13:39:47:099
-0.12407437711954117,0.05711238458752632,9.747991561889648,-0.006386488119118891,-0.0056832419422833385,-0.007239174043513418,175.27503306064474,53.36550405750907,0,0.9467661380767822,2019-08-07 13:39:47:103
-0.20549586415290833,0.03316488862037659,9.815044403076172,-0.002390770685131872,-0.0027530490186532175,-0.008304698553870315,175.34604095663497,55.89475345965671,0,0.9499804973602295,2019-08-07 13:39:47:106
-0.08815313130617142,-0.014730105176568031,9.83899211883545,-0.0029235329403103213,-0.00435133604426289,-0.007505555171102641,175.4295727987852,51.17905723087411,0,0.9529244899749756,2019-08-07 13:39:47:109
-0.10012687742710114,-0.0075458562932908535,9.829413414001465,-0.0037226765831523197,-0.0006219999979394207,-0.008837460809048764,175.50944330715248,46.55716003908407,0,0.9567720890045166,2019-08-07 13:39:47:113
-0.08575838059186935,-0.031493354588747025,9.843781471252441,-0.005587344736351217,-0.003285811533905992,-0.010968509829762562,175.58986652976415,42.030694698098735,0,0.9599969387054443,2019-08-07 13:39:47:116
-0.17196936905384064,0.018796389922499657,9.836597442626953,-0.0015916273023641983,-0.0054168602945454634,-0.00857107968145954,175.65893474850688,44.78815471279835,0,0.9629464149475098,2019-08-07 13:39:47:119
-0.10970588028430939,0.009217391721904278,9.894071578979492,-0.0007924839195965244,-0.007281528707818685,-0.0077719362986918665,175.73461144896496,47.49149394843325,0,0.966763973236084,2019-08-07 13:39:47:123
-0.1025216281414032,0.03316488862037659,9.791096687316895,-0.0031899140678995457,-0.0056832419422833385,-0.007239174043513418,175.8089462512194,50.13835810294026,0,0.9699771404266357,2019-08-07 13:39:47:126
-0.11928487569093704,-0.005151106510311365,9.82222843170166,-0.00425543883833077,-0.005949623069872562,-0.007239174043513418,175.87983483799638,45.53689517094842,0,0.9729204177856445,2019-08-07 13:39:47:129
-0.17915362119674683,-0.038677603006362915,9.82222843170166,-0.0039890577107415445,-0.0022202867634747683,-0.005640887277978069,175.9418209229115,41.03153470326038,0,0.9767827987670898,2019-08-07 13:39:47:133
-0.07857413589954376,0.018796389922499657,9.82222843170166,-0.0029235329403103213,-0.003285811533905992,-0.006440030660745744,176.01465546409736,43.80945642266648,0,0.9813230037689209,2019-08-07 13:39:47:138
-0.12407437711954117,0.02837538905441761,9.829413414001465,-0.004788200833434893,-0.0064823853250510115,-0.007239174043513418,176.0807907797761,46.53061837406725,0,0.9837744235992432,2019-08-07 13:39:47:140
-0.11449537426233292,-0.009940605610609055,9.673754692077637,-0.00025972161565413924,-0.003019430146242442,-0.00963660471196509,176.1462027503166,42.00123426736388,0,0.9872534275054932,2019-08-07 13:39:47:144
-0.1360481232404709,-0.03628285229206085,9.807860374450684,-0.0029235329403103213,-0.0035521926614952163,-0.013099558850476358,176.20811133755757,37.566047061561235,0,0.9908983707427979,2019-08-07 13:39:47:147
-0.10012687742710114,-0.038677603006362915,9.776728630065918,0.0008058029759759856,0.00044352460994534954,-0.007239174043513418,176.27215727569057,33.2191567438296,0,0.9931681156158447,2019-08-07 13:39:47:150
-0.1288638710975647,0.018796389922499657,9.747991561889648,-0.00425543883833077,-0.005949623069872562,-0.007505555171102641,176.33275960317542,36.15341734846643,0,0.996739387512207,2019-08-07 13:39:47:153
-0.2078906148672104,0.014006891287863255,9.817439079284668,-0.001058865047185749,-0.005150479166956239,-0.004308981379957623,176.38277157110215,39.028905080611636,0,0.9999518394470215,2019-08-07 13:39:47:156
-0.12646912038326263,-0.03388810157775879,9.836597442626953,-0.0013252461747749735,-0.0022202867634747683,-0.010702129222321988,176.4407498701493,34.65249319265611,0,1.00288724899292,2019-08-07 13:39:47:159
-0.2007063627243042,-0.019519604742527008,9.86054515838623,-0.0018580084299534227,-0.004884098039367014,-0.005907268405567294,176.48967861039517,30.362116905992735,0,1.0067708492279053,2019-08-07 13:39:47:163
-0.05462663620710373,0.018796389922499657,9.812649726867676,-0.0029235329403103213,-0.0035521926614952163,-0.011234891477500435,176.5541473378284,33.35320750834582,0,1.0099871158599854,2019-08-07 13:39:47:166
-0.193522110581398,0.02837538905441761,9.843781471252441,-0.002390770685131872,-0.006216004197461787,-0.006440030660745744,176.60156506883763,36.28323468714553,0,1.0129258632659912,2019-08-07 13:39:47:169
-0.11689012497663498,-0.03388810157775879,9.915623664855957,-0.0015916273023641983,-0.003285811533905992,-0.01150127208494101,176.6567333773391,31.961829063765638,0,1.016761064529419,2019-08-07 13:39:47:173
-0.0498371347784996,0.02837538905441761,9.827017784118652,-0.0013252461747749735,-0.008879815473354034,-0.010702129222321988,176.71938880918702,34.91952268572296,0,1.0199730396270752,2019-08-07 13:39:47:176
-0.13365337252616882,0.004427892155945301,9.829413414001465,-0.0026571518127210965,-0.0054168602945454634,-0.009902985319405663,176.77031513819205,37.821054804691805,0,1.022913932800293,2019-08-07 13:39:47:179
-0.1360481232404709,0.0451386384665966,9.848570823669434,-0.004521819705845669,-0.0064823853250510115,-0.0077719362986918665,176.82048619073714,40.660362485142784,0,1.0267767906188965,2019-08-07 13:39:47:183
-0.15041662752628326,-0.04825660213828087,9.750386238098145,-0.006120106991529666,0.0015090491528115383,-0.008304698553870315,176.86612433625916,36.253945074350604,0,1.030031681060791,2019-08-07 13:39:47:186
-0.17196936905384064,-0.02909860387444496,9.78151798248291,-0.0029235329403103213,-0.004884098039367014,-0.012034034340119461,176.90948391571592,31.932769759349956,0,1.0330450534820557,2019-08-07 13:39:47:190
-0.10012687742710114,-0.019519604742527008,9.76954460144043,-0.00025972161565413924,0.001242668025222314,-0.005640887277978069,176.95929102963055,27.696458094946177,0,1.0367608070373535,2019-08-07 13:39:47:193
-0.14323237538337708,0.03555963933467865,9.855754852294922,0.0010721841035652101,-0.0027530490186532175,-0.006440030660745744,177.00395086065,30.738200562778545,0,1.0399818420410156,2019-08-07 13:39:47:196
-0.023494889959692955,-0.009940605610609055,9.81025505065918,6.659528697688281e-06,-0.0038185737890844406,-0.010435747574584113,177.06175986348595,26.52459658979252,0,1.042931318283081,2019-08-07 13:39:47:199
-0.07378463447093964,0.02837538905441761,9.865334510803223,-0.005320963088613342,-0.0008883811255286454,-0.008837460809048764,177.11214560007025,29.59195440754403,0,1.0467660427093506,2019-08-07 13:39:47:203
-0.1480218768119812,0.0020331426057964563,9.884491920471191,-0.005853725863940442,-0.006216004197461787,-0.010435747574584113,177.15387109089778,32.600941302536185,0,1.0499961376190186,2019-08-07 13:39:47:206
-0.1025216281414032,0.025980640202760696,9.79349136352539,-0.0037226765831523197,-0.0038185737890844406,-0.008304698553870315,177.19943149182853,35.54649986403581,0,1.0529494285583496,2019-08-07 13:39:47:209
-0.15999561548233032,0.02837538905441761,9.815044403076172,-0.001058865047185749,-0.0022202867634747683,-0.01150127208494101,177.23724104710698,38.43248410966136,0,1.0567688941955566,2019-08-07 13:39:47:213
-0.09054788202047348,0.05711238458752632,9.843781471252441,-0.005054581961024118,-0.0056832419422833385,-0.010169366967143538,177.28298135182234,41.25809812109025,0,1.0599825382232666,2019-08-07 13:39:47:216
-0.06899513304233551,-0.021914353594183922,9.886886596679688,0.00027304068828824584,-0.005150479166956239,-0.009902985319405663,177.33017743638896,36.83543090201418,0,1.062929630279541,2019-08-07 13:39:47:219
-0.08096887916326523,-0.0267038531601429,9.855754852294922,-0.0029235329403103213,-0.0027530490186532175,-0.010435747574584113,177.37475487696864,32.50245886101674,0,1.0667781829833984,2019-08-07 13:39:47:223
-0.21746961772441864,-0.009940605610609055,9.855754852294922,-0.00425543883833077,-0.003019430146242442,-0.009902985319405663,177.40252377942653,28.254333283044954,0,1.0699915885925293,2019-08-07 13:39:47:226
-0.057021383196115494,-0.021914353594183922,9.803071022033691,-0.0026571518127210965,-0.008613434345764809,-0.009103842456786639,177.4492336350245,24.09224806835306,0,1.072939395904541,2019-08-07 13:39:47:229
-0.14562712609767914,-0.0267038531601429,9.803071022033691,-0.00025972161565413924,-0.003019430146242442,-0.00857107968145954,177.48387894194383,20.01358065519731,0,1.0767827033996582,2019-08-07 13:39:47:233
-0.1288638710975647,0.004427892155945301,9.824623107910156,-0.002390770685131872,-0.006748766452640236,-0.00617364953315652,177.52038988259181,23.213224053850066,0,1.0799968242645264,2019-08-07 13:39:47:236
-0.04744238778948784,-0.017124855890870094,9.70249080657959,-0.0015916273023641983,-0.0019539056358855436,-0.010968509829762562,177.5647029683804,19.151246062824267,0,1.0829503536224365,2019-08-07 13:39:47:239
-0.09294263273477554,0.09542837738990784,9.75278091430664,-0.007185631501886564,-0.006216004197461787,-0.006972792915924193,177.60382001061876,22.358547854752242,0,1.0867643356323242,2019-08-07 13:39:47:243
-0.0953373834490776,0.03555963933467865,9.862939834594727,-0.00425543883833077,-0.004884098039367014,-0.010435747574584113,177.64155003167934,25.508014584019634,0,1.0899832248687744,2019-08-07 13:39:47:246
-0.10491637885570526,0.011612141504883766,9.86054515838623,-0.0007924839195965244,-0.004084954916673665,-0.006706411788334968,177.67720257390687,28.596635896165317,0,1.0929288864135742,2019-08-07 13:39:47:249
-0.06181088462471962,0.052322886884212494,9.783912658691406,-0.0015916273023641983,-0.005150479166956239,-0.008837460809048764,177.71753217441074,31.618918997026853,0,1.0967774391174316,2019-08-07 13:39:47:253
-0.08815313130617142,0.05711238458752632,9.870123863220215,-0.004521819705845669,-0.006216004197461787,-0.006972792915924193,177.75406776227607,34.58072507206995,0,1.0999877452850342,2019-08-07 13:39:47:256
-0.13125862181186676,0.009217391721904278,9.889281272888184,-0.005054581961024118,-0.006748766452640236,-0.008038317426281092,177.78489735065935,37.48888103412908,0,1.1029422283172607,2019-08-07 13:39:47:259
-0.140837624669075,-0.024309104308485985,9.755175590515137,-0.005054581961024118,-0.00435133604426289,-0.004841743895210396,177.81359241959186,33.1430458638274,0,1.1067719459533691,2019-08-07 13:39:47:263
-0.13125862181186676,0.03316488862037659,9.800676345825195,-0.005587344736351217,-0.009678958335973056,-0.010435747574584113,177.84372448057607,36.077317484921004,0,1.1099920272827148,2019-08-07 13:39:47:266
-0.0953373834490776,0.011612141504883766,9.779123306274414,-0.002390770685131872,-0.0064823853250510115,-0.009902985319405663,177.876754899244,38.95480732972213,0,1.1129486560821533,2019-08-07 13:39:47:269
-0.04744238778948784,0.006822641938924789,9.815044403076172,-0.001058865047185749,-0.0054168602945454634,-0.011767653732678886,177.914844209995,41.77514203211905,0,1.1167733669281006,2019-08-07 13:39:47:273
-0.09773212671279907,0.06190188601613045,9.834202766418457,-0.0015916273023641983,-0.003019430146242442,-0.005374506150388846,177.9457060321183,44.53271429642799,0,1.1199963092803955,2019-08-07 13:39:47:276
-0.10970588028430939,0.04753338545560837,9.800676345825195,-0.0005261027594980092,-0.0011547622531178697,-0.006706411788334968,177.97416536820555,47.23659345272612,0,1.1230802536010742,2019-08-07 13:39:47:280
-0.09773212671279907,-0.05544085055589676,9.7982816696167,-0.005320963088613342,-0.006216004197461787,-0.0077719362986918665,178.00454742320804,42.69945373890912,0,1.1267900466918945,2019-08-07 13:39:47:283
-0.057021383196115494,0.02837538905441761,9.76954460144043,-0.0039890577107415445,-0.0006219999979394207,-0.007505555171102641,178.03788061633682,45.44285705400762,0,1.1300075054168701,2019-08-07 13:39:47:286
-0.17915362119674683,0.08345463126897812,9.848570823669434,-0.002390770685131872,-0.004084954916673665,-0.009902985319405663,178.05695798651595,48.124686617797316,0,1.132962703704834,2019-08-07 13:39:47:289
-0.10012687742710114,-0.021914353594183922,9.848570823669434,-0.0026571518127210965,-0.0019539056358855436,-0.00857107968145954,178.08458690037324,43.565310844675075,0,1.1367707252502441,2019-08-07 13:39:47:293
-0.04025813564658165,-0.005151106510311365,9.932387351989746,-0.00425543883833077,-0.0035521926614952163,-0.007239174043513418,178.1188937544214,39.09536947225857,0,1.1399955749511719,2019-08-07 13:39:47:296
-0.0761793851852417,-0.009940605610609055,9.831808090209961,-0.0015916273023641983,-0.003285811533905992,-0.006972792915924193,178.1481813795136,34.71488427224144,0,1.1429450511932373,2019-08-07 13:39:47:299
-0.15999561548233032,-0.0075458562932908535,9.85096549987793,-0.0034562954555630953,-0.0035521926614952163,-0.007239174043513418,178.1673715318908,30.422207410123207,0,1.1467738151550293,2019-08-07 13:39:47:303
-0.15999561548233032,0.0451386384665966,9.862939834594727,-0.0031899140678995457,-0.0046177169117777896,-0.008304698553870315,178.18627036053107,33.40909473164775,0,1.1499886512756348,2019-08-07 13:39:47:306
-0.04025813564658165,-0.021914353594183922,9.829413414001465,-0.0015916273023641983,-0.001687524508296319,-0.008304698553870315,178.21813223541432,29.14373223029661,0,1.152949571609497,2019-08-07 13:39:47:309
-0.0953373834490776,0.018796389922499657,9.872518539428711,-0.004521819705845669,-0.0024866678910639927,-0.006440030660745744,178.2432376350285,32.15964623380265,0,1.1567714214324951,2019-08-07 13:39:47:313
-0.013915890827775002,-0.05065134912729263,9.872518539428711,-0.0007924839195965244,-0.0011547622531178697,-0.013365940498214234,178.2769667778674,27.922475943209257,0,1.159996747970581,2019-08-07 13:39:47:316
-0.11928487569093704,-0.031493354588747025,9.76954460144043,-0.0026571518127210965,-0.0027530490186532175,-0.008837460809048764,178.29789171174616,23.768159618778174,0,1.162940502166748,2019-08-07 13:39:47:319
-0.01870539039373398,-0.04346710070967674,9.85096549987793,-0.002390770685131872,-0.0008883811255286454,-0.007505555171102641,178.32994894808323,19.698366659843423,0,1.166769027709961,2019-08-07 13:39:47:323
-0.14562712609767914,0.03555963933467865,9.92041301727295,0.0005394218158774704,-0.0027530490186532175,-0.005907268405567294,178.3470351710069,22.900192771386717,0,1.170039176940918,2019-08-07 13:39:47:326
-0.057021383196115494,-0.019519604742527008,9.906044960021973,-0.0021243895575426474,-0.004884098039367014,-0.009902985319405663,178.37431400033972,18.844801665138768,0,1.1730132102966309,2019-08-07 13:39:47:329
-0.12646912038326263,0.025980640202760696,9.819833755493164,-0.00025972161565413924,-0.00435133604426289,-0.00617364953315652,178.39298758707505,22.064928602180125,0,1.176767349243164,2019-08-07 13:39:47:333
-0.05462663620710373,0.02837538905441761,9.771939277648926,-0.005587344736351217,-0.0019539056358855436,-0.006440030660745744,178.4190758094198,25.221314151112157,0,1.1799917221069336,2019-08-07 13:39:47:336
-0.045047637075185776,-0.009940605610609055,9.848570823669434,-0.0015916273023641983,-0.0019539056358855436,-0.009103842456786639,178.44577660233276,21.11830819207146,0,1.1829423904418945,2019-08-07 13:39:47:339
-0.030679138377308846,-0.04346710070967674,9.827017784118652,-0.00025972161565413924,-0.0056832419422833385,-0.007505555171102641,178.47450619820358,17.101066507402557,0,1.1867735385894775,2019-08-07 13:39:47:343
-0.07138988375663757,-0.005151106510311365,9.872518539428711,-0.005853725863940442,-0.0027530490186532175,-0.006706411788334968,178.49722738149887,13.160700841029293,0,1.1899917125701904,2019-08-07 13:39:47:346
-0.05462663620710373,-0.012335355393588543,9.807860374450684,-0.0031899140678995457,-0.0046177169117777896,-0.007505555171102641,178.52166564102995,9.299456589057039,0,1.1929426193237305,2019-08-07 13:39:47:349
-0.004336891695857048,-0.02909860387444496,9.925203323364258,-0.0037226765831523197,-0.00435133604426289,-0.006706411788334968,178.55167331497293,5.517632681105919,0,1.1967968940734863,2019-08-07 13:39:47:353
-0.13365337252616882,0.011612141504883766,9.776728630065918,0.0008058029759759856,-0.0064823853250510115,-0.00963660471196509,178.56614427839065,9.005773701563617,0,1.2000079154968262,2019-08-07 13:39:47:356
-0.004336891695857048,-0.06023034825921059,9.762359619140625,-0.001058865047185749,-0.003019430146242442,-0.0077719362986918665,178.5948154117171,5.232904461312419,0,1.2029752731323242,2019-08-07 13:39:47:359
-0.006731641478836536,-0.021914353594183922,9.81025505065918,-0.001058865047185749,-0.004084954916673665,-0.006972792915924193,178.6230047079058,1.531032147624105,0,1.2067766189575195,2019-08-07 13:39:47:363
-0.006731641478836536,0.018796389922499657,9.855754852294922,-0.0037226765831523197,-0.0046177169117777896,-0.010169366967143538,178.65059802549195,5.098900109257503,0,1.2100012302398682,2019-08-07 13:39:47:366
0.014821105636656284,-0.053046099841594696,9.846176147460938,0.0008058029759759856,-0.0046177169117777896,-0.008304698553870315,171.4800799266143,1.4029614625753286,0,1.2129669189453125,2019-08-07 13:39:47:369
-0.06420563161373138,-0.06023034825921059,9.824623107910156,-0.0021243895575426474,-0.004084954916673665,-0.0077719362986918665,171.64386962798875,-2.2176151402178816,0,1.2168033123016357,2019-08-07 13:39:47:373
0.0483475998044014,0.004427892155945301,9.872518539428711,-0.0007924839195965244,-0.004084954916673665,-0.0077719362986918665,164.61734052261025,1.426366105837841,0,1.2200145721435547,2019-08-07 13:39:47:376
-0.06181088462471962,-0.017124855890870094,9.779123306274414,-0.0031899140678995457,-0.0038185737890844406,-0.004841743895210396,164.9183874183976,-2.199622739386818,0,1.2229835987091064,2019-08-07 13:39:47:379
-0.016310639679431915,-0.009940605610609055,9.762359619140625,-0.0015916273023641983,-0.0024866678910639927,-0.005907268405567294,165.21863364908302,-5.754125149342833,0,1.226768970489502,2019-08-07 13:39:47:383
-0.16478511691093445,-0.0027563569601625204,9.86054515838623,-0.0034562954555630953,-0.003285811533905992,-0.004841743895210396,165.49570677264958,-9.23809744748717,0,1.2299888134002686,2019-08-07 13:39:47:386
-0.03546863794326782,-0.019519604742527008,9.776728630065918,-0.0034562954555630953,-0.0054168602945454634,-0.004042600252368397,165.78253129799728,-12.650476018402996,0,1.2329342365264893,2019-08-07 13:39:47:389
-0.10491637885570526,-0.0075458562932908535,9.910834312438965,-0.0031899140678995457,-0.0022202867634747683,-0.004841743895210396,166.05522858920438,-15.995907049288586,0,1.236769676208496,2019-08-07 13:39:47:393
-0.18394312262535095,0.02119114063680172,9.800676345825195,-0.001058865047185749,-0.003285811533905992,-0.00857107968145954,166.3132152530125,-12.078274642124658,0,1.2399985790252686,2019-08-07 13:39:47:396
-0.13125862181186676,0.04034913703799248,9.855754852294922,-0.0031899140678995457,-0.0027530490186532175,-0.007505555171102641,166.57214729749055,-8.240871276875371,0,1.2429530620574951,2019-08-07 13:39:47:399
-0.1743641197681427,-0.012335355393588543,9.877307891845703,-0.0029235329403103213,-0.0014211433807070943,-0.004575362767621172,166.8207818152907,-11.673996952204181,0,1.246765375137329,2019-08-07 13:39:47:403
-0.13125862181186676,0.06429663300514221,9.891676902770996,-0.004788200833434893,-0.0022202867634747683,-0.008038317426281092,167.0695623435748,-7.847100408790058,0,1.2499828338623047,2019-08-07 13:39:47:406
-0.05941613391041756,-0.014730105176568031,9.870123863220215,-0.005320963088613342,-0.003019430146242442,-0.00617364953315652,167.3217722896727,-11.287568379725874,0,1.2529277801513672,2019-08-07 13:39:47:409
-0.1480218768119812,0.08584938198328018,9.877307891845703,-0.0007924839195965244,-0.007015147580229461,-0.009370223064227214,167.55968404227661,-7.471605014878124,0,1.2567832469940186,2019-08-07 13:39:47:413
-0.18633787333965302,0.059507135301828384,9.908439636230469,-0.0015916273023641983,-0.006748766452640236,-0.009103842456786639,167.7881627045363,-3.728767167009971,0,1.2600023746490479,2019-08-07 13:39:47:416
-0.16478511691093445,0.02119114063680172,9.848570823669434,-0.00425543883833077,-0.007281528707818685,-0.008304698553870315,168.0144758428957,-0.05592817503907188,0,1.263054609298706,2019-08-07 13:39:47:420
-0.0953373834490776,0.009217391721904278,9.862939834594727,0.00027304068828824584,-0.006748766452640236,-0.0032434568696007235,168.24452320052828,3.544062300230903,0,1.2667839527130127,2019-08-07 13:39:47:423
-0.0498371347784996,0.04274388775229454,9.829413414001465,-0.00425543883833077,-0.0056832419422833385,-0.008038317426281092,168.47484911341297,7.068966494190883,0,1.2700002193450928,2019-08-07 13:39:47:426
-0.1025216281414032,0.02119114063680172,9.815044403076172,-0.005320963088613342,-0.007015147580229461,-0.010169366967143538,168.69454975163717,10.525998005819261,0,1.2729620933532715,2019-08-07 13:39:47:429
-0.11928487569093704,0.030770137906074524,9.7982816696167,-0.005853725863940442,-0.004884098039367014,-0.006706411788334968,168.90775305556753,13.913130798908382,0,1.2767691612243652,2019-08-07 13:39:47:433
-0.0761793851852417,0.011612141504883766,9.7982816696167,-0.00425543883833077,-0.007547909835407911,-0.009370223064227214,169.12205840897317,17.234282227041838,0,1.2800004482269287,2019-08-07 13:39:47:436
-0.1552061289548874,0.059507135301828384,9.78151798248291,-0.0039890577107415445,-0.005150479166956239,-0.005907268405567294,169.3222903546559,20.483286888565207,0,1.2829539775848389,2019-08-07 13:39:47:439
-0.1360481232404709,0.13374437391757965,9.841386795043945,-0.0015916273023641983,-0.006216004197461787,-0.0077719362986918665,169.5213353464822,23.658389936633668,0,1.2867674827575684,2019-08-07 13:39:47:443
-0.11449537426233292,0.07866512984037399,9.884491920471191,-0.004788200833434893,-0.0054168602945454634,-0.00857107968145954,169.71861489920573,26.776968179202864,0,1.2899868488311768,2019-08-07 13:39:47:446
-0.1216796264052391,0.04034913703799248,9.776728630065918,-0.00425543883833077,-0.0022202867634747683,-0.004841743895210396,169.9103482683439,29.83740262670673,0,1.2929291725158691,2019-08-07 13:39:47:449
-0.2797331213951111,0.052322886884212494,9.719254493713379,-0.006120106991529666,-0.0064823853250510115,-0.009370223064227214,170.08058117455923,32.83581853420283,0,1.2968077659606934,2019-08-07 13:39:47:453
-0.17915362119674683,0.025980640202760696,9.906044960021973,-0.0029235329403103213,-0.003019430146242442,-0.007239174043513418,170.2587950734854,35.776626853936804,0,1.300036907196045,2019-08-07 13:39:47:456
-0.22465386986732483,0.02119114063680172,9.908439636230469,-0.0037226765831523197,-0.0035521926614952163,-0.00857107968145954,170.42823263253038,38.659262220891,0,1.3029966354370117,2019-08-07 13:39:47:459
-0.19112737476825714,0.04274388775229454,9.829413414001465,-0.0018580084299534227,-0.0064823853250510115,-0.008304698553870315,170.598762327333,41.48148751214025,0,1.3067693710327148,2019-08-07 13:39:47:463
-0.1288638710975647,0.011612141504883766,9.774333953857422,-0.00425543883833077,-0.007281528707818685,-0.008038317426281092,170.77302094560397,44.25127987237113,0,1.3100483417510986,2019-08-07 13:39:47:467
-0.1743641197681427,0.0451386384665966,9.78151798248291,-0.0021243895575426474,-0.0038185737890844406,-0.006706411788334968,170.9377728488083,46.961320713624616,0,1.3130197525024414,2019-08-07 13:39:47:469
-0.11449537426233292,0.04992813616991043,9.788702011108398,-0.0015916273023641983,-0.004084954916673665,-0.00617364953315652,171.1064743612543,49.61658450144141,0,1.3167681694030762,2019-08-07 13:39:47:473
-0.24381186068058014,0.06908613443374634,9.946755409240723,-0.007452012629475789,-0.006216004197461787,-0.010169366967143538,171.25738755669,52.2176430465327,0,1.3199925422668457,2019-08-07 13:39:47:476
-0.21507486701011658,0.0714808851480484,9.81025505065918,-0.005054581961024118,-0.0064823853250510115,-0.01150127208494101,171.4081972875663,54.765779729003626,0,1.3229484558105469,2019-08-07 13:39:47:479
-0.19591686129570007,-0.0075458562932908535,9.829413414001465,-0.006652869246708115,-0.0014211433807070943,-0.009902985319405663,171.5575010515163,50.07277035577422,0,1.3267672061920166,2019-08-07 13:39:47:483
-0.15760086476802826,0.04992813616991043,9.834202766418457,-0.0015916273023641983,-0.008080672090586358,-0.012300415987857336,171.70945030872406,52.66578514617978,0,1.3299891948699951,2019-08-07 13:39:47:486
-0.20310111343860626,0.03316488862037659,9.829413414001465,-0.0031899140678995457,-0.0046177169117777896,-0.010702129222321988,171.85235252285992,55.20913184651787,0,1.3329412937164307,2019-08-07 13:39:47:489
-0.1480218768119812,0.037954386323690414,9.795886039733887,-0.006652869246708115,-0.0046177169117777896,-0.008837460809048764,171.998983418859,57.70193872906817,0,1.3367676734924316,2019-08-07 13:39:47:493
-0.11210063099861145,0.06429663300514221,9.783912658691406,-0.007452012629475789,-0.007547909835407911,-0.010435747574584113,172.14723812834097,60.1417154655701,0,1.33998441696167,2019-08-07 13:39:47:496
-0.16239036619663239,0.0714808851480484,9.771939277648926,-0.0029235329403103213,-0.0035521926614952163,-0.01150127208494101,172.28583916952638,62.53098207212787,0,1.3429269790649414,2019-08-07 13:39:47:499
-0.24860136210918427,0.016401641070842743,9.889281272888184,-0.006919250374297341,-0.0054168602945454634,-0.012566796595297908,172.4124936121752,64.87995860275144,0,1.3467793464660645,2019-08-07 13:39:47:503
-0.22944335639476776,0.12177062779664993,9.764754295349121,-0.0021243895575426474,-0.0038185737890844406,-0.009370223064227214,172.53801297177614,67.16845396675043,0,1.3499972820281982,2019-08-07 13:39:47:506
-0.2462066113948822,0.08584938198328018,9.886886596679688,-0.005320963088613342,-0.005150479166956239,-0.01150127208494101,172.6595808541007,69.41602160594825,0,1.3529648780822754,2019-08-07 13:39:47:509
-0.17675887048244476,-0.024309104308485985,9.776728630065918,-0.0039890577107415445,-0.0046177169117777896,-0.00963660471196509,172.78666578804646,64.43140729299286,0,1.356790542602539,2019-08-07 13:39:47:513
-0.2007063627243042,0.08584938198328018,9.73122787475586,-0.002390770685131872,-0.0038185737890844406,-0.010968509829762562,172.90799120169996,66.73310200070632,0,1.3600080013275146,2019-08-07 13:39:47:516
-0.32762810587882996,-0.005151106510311365,9.848570823669434,-0.0037226765831523197,-0.0003556188378409054,-0.009103842456786639,173.01178378999683,61.799657277587855,0,1.362964391708374,2019-08-07 13:39:47:519
-0.2533908486366272,0.04992813616991043,9.898860931396484,-0.0034562954555630953,-0.004084954916673665,-0.009902985319405663,173.12311261126976,64.15863844420878,0,1.3668498992919922,2019-08-07 13:39:47:523
-0.16239036619663239,0.04274388775229454,9.846176147460938,-0.006652869246708115,-0.007015147580229461,-0.011234891477500435,173.2430244667497,66.47169709986171,0,1.3700783252716064,2019-08-07 13:39:47:527
-0.21507486701011658,0.04034913703799248,9.805465698242188,-0.0018580084299534227,-0.003019430146242442,-0.011234891477500435,173.35353738434793,68.737857980353,0,1.373051643371582,2019-08-07 13:39:47:530
-0.23662760853767395,-0.0027563569601625204,9.812649726867676,-0.001058865047185749,-0.0056832419422833385,-0.011767653732678886,173.46002526219996,63.76364376887414,0,1.376769781112671,2019-08-07 13:39:47:533
-0.13125862181186676,-0.009940605610609055,9.836597442626953,-0.0015916273023641983,-0.003285811533905992,-0.013365940498214234,173.5761306212854,58.88981759760897,0,1.3799998760223389,2019-08-07 13:39:47:536
-0.0953373834490776,-0.031493354588747025,9.82222843170166,-0.002390770685131872,-0.0038185737890844406,-0.012300415987857336,173.6941177149473,54.11609107621812,0,1.3829472064971924,2019-08-07 13:39:47:539
-0.11689012497663498,-0.02909860387444496,9.858149528503418,-0.005320963088613342,-0.0056832419422833385,-0.012034034340119461,173.80786725226505,49.438292612464586,0,1.386765956878662,2019-08-07 13:39:47:543
-0.09773212671279907,-0.06023034825921059,9.812649726867676,-0.0013252461747749735,-0.0035521926614952163,-0.0077719362986918665,173.92093973012396,44.85680005770982,0,1.3899874687194824,2019-08-07 13:39:47:546
-0.14323237538337708,-0.04825660213828087,9.906044960021973,-0.006120106991529666,-0.0064823853250510115,-0.010435747574584113,174.02702381044736,40.36625704142681,0,1.3929288387298584,2019-08-07 13:39:47:549
-0.2845225930213928,-0.05783560127019882,9.819833755493164,-0.001058865047185749,-0.004884098039367014,-0.008304698553870315,174.11434787262394,35.96591011696252,0,1.3967843055725098,2019-08-07 13:39:47:553
-0.1216796264052391,0.006822641938924789,9.874913215637207,-0.005320963088613342,-0.004884098039367014,-0.008837460809048764,174.2188303816464,38.846768530724134,0,1.4000253677368164,2019-08-07 13:39:47:556
-0.18633787333965302,-0.07699359953403473,9.736018180847168,-0.004521819705845669,-0.007015147580229461,-0.009370223064227214,174.3137175355064,34.47966385620637,0,1.4030535221099854,2019-08-07 13:39:47:560
-0.19112737476825714,-0.05783560127019882,9.872518539428711,-0.002390770685131872,-0.0046177169117777896,-0.009902985319405663,174.40627531802852,30.19730841369951,0,1.4069633483886719,2019-08-07 13:39:47:563
-0.14323237538337708,-0.009940605610609055,9.831808090209961,-0.0013252461747749735,-0.0035521926614952163,-0.009902985319405663,174.50210391377348,25.99476219377759,0,1.4102067947387695,2019-08-07 13:39:47:567
-0.21268011629581451,-0.0075458562932908535,9.855754852294922,0.0008058029759759856,-0.006748766452640236,-0.01150127208494101,174.58847230331443,21.875608817234905,0,1.413201093673706,2019-08-07 13:39:47:570
-0.13365337252616882,-0.0075458562932908535,9.925203323364258,-0.002390770685131872,-0.007015147580229461,-0.0077719362986918665,174.68267597685374,17.839446045001804,0,1.4167633056640625,2019-08-07 13:39:47:573
-0.15999561548233032,-0.07938835024833679,9.836597442626953,-0.006386488119118891,-0.0056832419422833385,-0.008304698553870315,174.7714125827176,13.893059573715291,0,1.4199821949005127,2019-08-07 13:39:47:576
-0.21028536558151245,-0.0075458562932908535,9.776728630065918,-0.005054581961024118,-0.0011547622531178697,-0.010435747574584113,174.8515315876297,10.01691748739752,0,1.4229230880737305,2019-08-07 13:39:47:579
-0.1025216281414032,-0.09375684708356857,9.82222843170166,-0.0037226765831523197,-0.0022202867634747683,-0.00963660471196509,174.94302059209508,6.228321702335364,0,1.4267728328704834,2019-08-07 13:39:47:583
-0.17915362119674683,-0.012335355393588543,9.896466255187988,-0.0021243895575426474,-0.0022202867634747683,-0.009370223064227214,175.02382015863148,2.505568199727639,0,1.429997205734253,2019-08-07 13:39:47:586
-0.03546863794326782,0.011612141504883766,9.891676902770996,-0.0031899140678995457,-0.0003556188378409054,-0.009103842456786639,175.1192941381154,6.054643360321684,0,1.4329659938812256,2019-08-07 13:39:47:589
-0.1671798676252365,0.025980640202760696,9.8797025680542,-0.0013252461747749735,-0.0054168602945454634,-0.013632321105654805,175.1986750612851,9.530819812722592,0,1.436765432357788,2019-08-07 13:39:47:593
-0.09054788202047348,-0.017124855890870094,9.896466255187988,-0.004521819705845669,-0.0035521926614952163,-0.007505555171102641,175.28485958823583,5.743003945834203,0,1.439985752105713,2019-08-07 13:39:47:596
-0.17196936905384064,0.004427892155945301,9.865334510803223,-0.0018580084299534227,-0.003285811533905992,-0.008038317426281092,175.35973208020079,9.227936530143191,0,1.4429283142089844,2019-08-07 13:39:47:599
-0.028284389525651932,0.02119114063680172,9.918018341064453,-0.0026571518127210965,-0.0035521926614952163,-0.009902985319405663,175.4500367371887,12.641503319583482,0,1.446774959564209,2019-08-07 13:39:47:603
-0.004336891695857048,-0.009940605610609055,9.771939277648926,-0.00025972161565413924,-0.004084954916673665,-0.006706411788334968,175.5413106455567,8.789888743895737,0,1.4501895904541016,2019-08-07 13:39:47:607
-0.1216796264052391,0.0451386384665966,9.795886039733887,-0.0015916273023641983,-0.004884098039367014,-0.009103842456786639,175.6169597400406,12.209041629595552,0,1.4527733325958252,2019-08-07 13:39:47:609
-0.1360481232404709,0.016401641070842743,9.843781471252441,-0.0029235329403103213,-0.0064823853250510115,-0.005640887277978069,175.69012988765968,15.563558392488485,0,1.4564704895019531,2019-08-07 13:39:47:613
-0.07378463447093964,-0.03628285229206085,9.7982816696167,-0.0018580084299534227,-0.0006219999979394207,-0.005907268405567294,175.7678222187577,11.656900701015966,0,1.4600188732147217,2019-08-07 13:39:47:616
-0.13844287395477295,0.037954386323690414,9.819833755493164,-0.004521819705845669,-0.003285811533905992,-0.0037762191247791726,175.83685895229297,15.02008719211077,0,1.462986707687378,2019-08-07 13:39:47:619
0.019610606133937836,-0.014730105176568031,9.76954460144043,-0.002390770685131872,-0.004084954916673665,-0.006706411788334968,168.7232885440764,11.12192037152207,0,1.4667646884918213,2019-08-07 13:39:47:623
-0.030679138377308846,0.009217391721904278,9.764754295349121,-0.001058865047185749,-0.0019539056358855436,-0.006972792915924193,168.94557676794366,14.49859225786683,0,1.4699935913085938,2019-08-07 13:39:47:626
0.031584352254867554,-0.005151106510311365,9.858149528503418,-0.0031899140678995457,-0.0014211433807070943,-0.004841743895210396,161.97057226264963,10.609748153028171,0,1.4729468822479248,2019-08-07 13:39:47:629
-0.021100139245390892,-0.0267038531601429,9.925203323364258,-0.0021243895575426474,-0.0054168602945454634,-0.0037762191247791726,162.3298885180991,6.801092705824091,0,1.4767732620239258,2019-08-07 13:39:47:633
-0.10491637885570526,0.05471763759851456,9.697701454162598,-0.005054581961024118,-0.0024866678910639927,-0.00244431348683305,162.67134393813706,10.259520002175812,0,1.4799962043762207,2019-08-07 13:39:47:636
-0.006731641478836536,0.025980640202760696,9.815044403076172,-0.002390770685131872,-0.007281528707818685,-0.005374506150388846,163.018339777043,13.651693183358162,0,1.482952356338501,2019-08-07 13:39:47:639
0.026794854551553726,0.04753338545560837,9.76954460144043,-0.00025972161565413924,-0.0038185737890844406,-0.004841743895210396,156.16193450153315,16.97313963021346,0,1.4867703914642334,2019-08-07 13:39:47:643
-0.016310639679431915,0.06669138371944427,9.764754295349121,-0.0026571518127210965,-0.005150479166956239,-0.001911551101617438,156.63771227735836,20.226330653661293,0,1.489988088607788,2019-08-07 13:39:47:646
-0.037863388657569885,0.04274388775229454,9.791096687316895,-0.0039890577107415445,-0.0064823853250510115,-0.0035098379971899483,157.10160204345593,23.41746323779617,0,1.4929425716400146,2019-08-07 13:39:47:649
0.024400103837251663,0.023585889488458633,9.776728630065918,0.0010721841035652101,-0.0008883811255286454,-0.0008460265262419585,150.36262219241084,26.546117430003566,0,1.4967975616455078,2019-08-07 13:39:47:653
-0.011521141044795513,-0.05544085055589676,9.786307334899902,-0.0031899140678995457,-0.0038185737890844406,-0.0032434568696007235,150.95470692891138,22.4222600474708,0,1.4999980926513672,2019-08-07 13:39:47:656
0.010031606070697308,0.04034913703799248,9.83899211883545,-0.001058865047185749,-0.0006219999979394207,-0.002177932229206663,144.33688459938347,25.569291666323394,0,1.502960443496704,2019-08-07 13:39:47:659
-0.13365337252616882,0.018796389922499657,9.774333953857422,6.659528697688281e-06,-0.003019430146242442,-0.0013787888464389891,145.0351237035611,28.65570077698765,0,1.5067646503448486,2019-08-07 13:39:47:663
-0.052231885492801666,0.025980640202760696,9.819833755493164,-0.0018580084299534227,-0.0056832419422833385,-0.0037762191247791726,145.72935439520188,31.67989114896239,0,1.5099868774414062,2019-08-07 13:39:47:666
-0.03307388722896576,-0.009940605610609055,9.891676902770996,0.001338565231154435,-0.003285811533905992,-0.0037762191247791726,146.41147775807715,27.447224139914006,0,1.5129241943359375,2019-08-07 13:39:47:669
-0.013915890827775002,0.014006891287863255,9.76954460144043,-0.0031899140678995457,-0.007281528707818685,-0.0011124077188497644,147.08318974364067,30.49732617929425,0,1.5167734622955322,2019-08-07 13:39:47:673
-0.08336362987756729,0.08824413269758224,9.76954460144043,-0.0029235329403103213,-0.0024866678910639927,-0.004042600252368397,147.73220181111125,33.47756281872544,0,1.5200231075286865,2019-08-07 13:39:47:676
0.014821105636656284,0.006822641938924789,9.774333953857422,-0.004521819705845669,-0.0038185737890844406,-0.0051081250227996205,141.17993047218272,36.40796377405674,0,1.5229852199554443,2019-08-07 13:39:47:679
-0.11210063099861145,-0.021914353594183922,9.829413414001465,-0.0005261027594980092,-0.0024866678910639927,-0.0035098379971899483,141.94379084677192,32.082470801764664,0,1.5267605781555176,2019-08-07 13:39:47:683
-0.08336362987756729,-0.0027563569601625204,9.812649726867676,0.00027304068828824584,-0.0019539056358855436,-0.001911551101617438,142.69553391050613,27.84109383069343,0,1.5299854278564453,2019-08-07 13:39:47:686
-0.21746961772441864,0.023585889488458633,9.755175590515137,-0.0013252461747749735,-0.001687524508296319,-0.004308981379957623,143.4163609756077,30.88172057893243,0,1.5329310894012451,2019-08-07 13:39:47:689
-0.09294263273477554,0.08584938198328018,9.848570823669434,-0.005054581961024118,-0.0064823853250510115,-0.0008460265262419585,144.13862086662076,33.85518995391984,0,1.5367801189422607,2019-08-07 13:39:47:693
-0.02588963881134987,0.04753338545560837,9.8797025680542,-0.0039890577107415445,-0.003285811533905992,-0.004042600252368397,144.8534402684695,36.77329489398008,0,1.5400032997131348,2019-08-07 13:39:47:696
-0.0498371347784996,-0.0027563569601625204,9.918018341064453,-0.0031899140678995457,-0.004084954916673665,-0.0032434568696007235,145.55129023904686,32.438676008643355,0,1.5429542064666748,2019-08-07 13:39:47:699
-0.0019421420292928815,0.011612141504883766,9.841386795043945,6.659528697688281e-06,-0.0064823853250510115,-0.0035098379971899483,146.24143208072607,35.38854895774182,0,1.546783447265625,2019-08-07 13:39:47:703
-0.05941613391041756,-0.0003616072062868625,9.90125560760498,-0.002390770685131872,-0.0008883811255286454,-0.004841743895210396,146.90988805087002,31.081253153538565,0,1.550011396408081,2019-08-07 13:39:47:706
-0.08575838059186935,-0.06262510269880295,9.762359619140625,-0.0005261027594980092,-0.0014211433807070943,-0.005640887277978069,147.56186026419786,26.86706639818706,0,1.5529704093933105,2019-08-07 13:39:47:709
-0.11928487569093704,0.04274388775229454,9.807860374450684,-0.002390770685131872,-0.0024866678910639927,-0.0051081250227996205,148.19721762496027,29.925241291886774,0,1.5567712783813477,2019-08-07 13:39:47:713
-0.057021383196115494,0.018796389922499657,9.886886596679688,-0.0029235329403103213,-0.003285811533905992,-0.005640887277978069,148.82725825496,32.92508627949747,0,1.5599899291992188,2019-08-07 13:39:47:716
-0.08815313130617142,0.04274388775229454,9.803071022033691,-0.0031899140678995457,-0.0038185737890844406,-0.006972792915924193,149.44104205897236,35.8621170750977,0,1.5629432201385498,2019-08-07 13:39:47:719
-0.08096887916326523,0.004427892155945301,9.827017784118652,-0.0015916273023641983,-0.0006219999979394207,-0.00617364953315652,150.04291347757876,38.74470057828291,0,1.5667719841003418,2019-08-07 13:39:47:723
-0.03307388722896576,-0.06023034825921059,9.803071022033691,-0.0026571518127210965,-0.0027530490186532175,-0.005907268405567294,150.6386863909866,34.377326985789466,0,1.5699889659881592,2019-08-07 13:39:47:726
-0.08096887916326523,0.0451386384665966,9.791096687316895,-0.0007924839195965244,-0.0038185737890844406,-0.008837460809048764,151.21706723195356,37.284628500370566,0,1.5729303359985352,2019-08-07 13:39:47:729
-0.03546863794326782,0.03316488862037659,9.922808647155762,-0.0018580084299534227,-0.004884098039367014,-0.00963660471196509,151.78968309004685,40.135506626149315,0,1.5767707824707031,2019-08-07 13:39:47:733
0.0076368567533791065,-0.038677603006362915,9.776728630065918,-0.0021243895575426474,-0.0022202867634747683,-0.007239174043513418,145.15518630313576,35.73771423099468,0,1.579993486404419,2019-08-07 13:39:47:736
-0.14323237538337708,-0.02909860387444496,9.85096549987793,6.659528697688281e-06,-0.0027530490186532175,-0.006972792915924193,145.83587800793055,31.426343735071697,0,1.582942008972168,2019-08-07 13:39:47:739
-0.11689012497663498,-0.014730105176568031,9.81025505065918,-0.0034562954555630953,-0.006216004197461787,-0.012300415987857336,146.50684357885106,27.20028040985023,0,1.5867702960968018,2019-08-07 13:39:47:743
-0.06420563161373138,-0.017124855890870094,9.86054515838623,-0.0021243895575426474,-0.0008883811255286454,-0.007239174043513418,147.1694155586013,23.058671972238496,0,1.5901827812194824,2019-08-07 13:39:47:747
-0.19831161201000214,-0.014730105176568031,9.83899211883545,-0.002390770685131872,-0.0006219999979394207,-0.01150127208494101,147.80303959610524,18.999621275169503,0,1.5932159423828125,2019-08-07 13:39:47:750
-0.011521141044795513,-0.0267038531601429,9.862939834594727,-0.004788200833434893,-0.0035521926614952163,-0.009103842456786639,148.44635178044356,15.023690537204686,0,1.5967833995819092,2019-08-07 13:39:47:753
-0.11689012497663498,0.03555963933467865,9.846176147460938,-0.006919250374297341,-0.001687524508296319,-0.01150127208494101,149.06412659593335,18.32032920719005,0,1.6000032424926758,2019-08-07 13:39:47:756
-0.07857413589954376,-0.021914353594183922,9.827017784118652,-0.0039890577107415445,-0.0054168602945454634,-0.010435747574584113,149.6745773382904,14.357137486424627,0,1.602947473526001,2019-08-07 13:39:47:759
-0.07138988375663757,-0.014730105176568031,9.78151798248291,0.00027304068828824584,-0.0019539056358855436,-0.008304698553870315,150.27314217767258,10.471661742362059,0,1.6067724227905273,2019-08-07 13:39:47:763
-0.05941613391041756,0.016401641070842743,9.83899211883545,-0.0034562954555630953,-0.0024866678910639927,-0.010702129222321988,150.86120991938236,13.860944435342779,0,1.6099989414215088,2019-08-07 13:39:47:766
-0.05462663620710373,-0.0075458562932908535,9.884491920471191,-0.0034562954555630953,-0.0008883811255286454,-0.011767653732678886,151.4378009030862,9.985176219141731,0,1.6129662990570068,2019-08-07 13:39:47:769
-0.09294263273477554,-0.017124855890870094,9.707281112670898,-0.002390770685131872,-0.003019430146242442,-0.012300415987857336,151.9987181828728,6.188004593018631,0,1.6167681217193604,2019-08-07 13:39:47:773
-0.06420563161373138,-0.03628285229206085,9.827017784118652,-0.004521819705845669,-0.0027530490186532175,-0.014431465008571131,152.55175586823026,2.469294770780163,0,1.619995355606079,2019-08-07 13:39:47:776
-0.11210063099861145,-0.05544085055589676,9.800676345825195,0.00027304068828824584,-0.0006219999979394207,-0.012300415987857336,153.08771733474856,-1.173654170777278,0,1.62294602394104,2019-08-07 13:39:47:779
-0.0953373834490776,0.018796389922499657,9.83899211883545,-0.0026571518127210965,-0.0038185737890844406,-0.014964227263749581,153.6156823202623,2.4482021810814665,0,1.6267826557159424,2019-08-07 13:39:47:783
-0.06420563161373138,0.006822641938924789,9.889281272888184,-0.0029235329403103213,-0.0006219999979394207,-0.013632321105654805,154.13604166102098,5.99897718049502,0,1.6300089359283447,2019-08-07 13:39:47:786
-0.11210063099861145,-0.06501984596252441,9.807860374450684,0.001338565231154435,-0.00435133604426289,-0.00963660471196509,154.64094808989324,2.2863714550314604,0,1.6329727172851562,2019-08-07 13:39:47:789
-0.0761793851852417,0.05711238458752632,9.862939834594727,-0.0007924839195965244,-0.003285811533905992,-0.011767653732678886,155.13997880853123,5.834177463789507,0,1.6367685794830322,2019-08-07 13:39:47:793
-0.0953373834490776,0.03316488862037659,9.898860931396484,-0.0018580084299534227,-0.0046177169117777896,-0.012300415987857336,155.62698845564333,9.313994827596067,0,1.640028953552246,2019-08-07 13:39:47:796
-0.08096887916326523,0.018796389922499657,9.817439079284668,-0.0037226765831523197,-0.006216004197461787,-0.014697845616011706,156.10603170758327,12.726140037072764,0,1.6429905891418457,2019-08-07 13:39:47:799
-0.18873262405395508,0.009217391721904278,9.800676345825195,-0.001058865047185749,-0.006216004197461787,-0.012566796595297908,156.56316374316407,16.070763856747135,0,1.646763801574707,2019-08-07 13:39:47:803
-0.12407437711954117,-0.012335355393588543,9.918018341064453,-0.0013252461747749735,-0.00435133604426289,-0.012833178243035783,157.01835332561373,12.151013635197415,0,1.649986982345581,2019-08-07 13:39:47:806
-0.21028536558151245,-0.04346710070967674,9.786307334899902,-0.0013252461747749735,-0.005949623069872562,-0.012300415987857336,157.45435378854168,8.313302870251839,0,1.6529409885406494,2019-08-07 13:39:47:809
-0.1360481232404709,0.014006891287863255,9.719254493713379,-0.0015916273023641983,-0.0056832419422833385,-0.014697845616011706,157.8904494313121,11.74572759712506,0,1.6567702293395996,2019-08-07 13:39:47:813
-0.1360481232404709,0.0451386384665966,9.848570823669434,-0.0039890577107415445,-0.005150479166956239,-0.011234891477500435,158.31774494944156,15.106283789153844,0,1.6599969863891602,2019-08-07 13:39:47:816
-0.06899513304233551,0.014006891287863255,9.779123306274414,-0.0034562954555630953,-0.0035521926614952163,-0.015230607871190155,158.74389496926156,18.403090491896613,0,1.6629531383514404,2019-08-07 13:39:47:819
-0.1216796264052391,0.025980640202760696,9.872518539428711,-0.0026571518127210965,-0.008879815473354034,-0.011234891477500435,159.1567977145571,21.632582658358416,0,1.6667706966400146,2019-08-07 13:39:47:823
-0.07378463447093964,-0.017124855890870094,9.75278091430664,-0.0034562954555630953,-0.007015147580229461,-0.012034034340119461,159.56625976646964,17.60256747780103,0,1.6699879169464111,2019-08-07 13:39:47:826
-0.1216796264052391,-0.021914353594183922,9.71207046508789,-0.0007924839195965244,-0.0027530490186532175,-0.008837460809048764,159.96103343327457,13.65323273120157,0,1.6729309558868408,2019-08-07 13:39:47:829
-0.18873262405395508,-0.0075458562932908535,9.783912658691406,-0.0034562954555630953,-0.006216004197461787,-0.011767653732678886,160.34105193761113,9.781797645542795,0,1.6767737865447998,2019-08-07 13:39:47:833
-0.14323237538337708,0.018796389922499657,9.791096687316895,-0.006120106991529666,-0.007015147580229461,-0.01150127208494101,160.71874138871883,13.185072159625037,0,1.6800048351287842,2019-08-07 13:39:47:836
-0.10731112957000732,-0.009940605610609055,9.716859817504883,-0.002390770685131872,-0.007015147580229461,-0.012300415987857336,161.0928774520823,9.322940272295888,0,1.6829640865325928,2019-08-07 13:39:47:839
-0.140837624669075,-0.014730105176568031,9.824623107910156,-0.00425543883833077,-0.006216004197461787,-0.012300415987857336,161.4559234903961,5.539109610752547,0,1.6867728233337402,2019-08-07 13:39:47:843
-0.13125862181186676,0.006822641938924789,9.755175590515137,-0.0026571518127210965,-0.005150479166956239,-0.014697845616011706,161.812318440969,9.028006341170455,0,1.6899924278259277,2019-08-07 13:39:47:846
-0.052231885492801666,0.014006891287863255,9.846176147460938,-0.00425543883833077,-0.0054168602945454634,-0.009370223064227214,162.17089075230254,12.446521107899843,0,1.6929430961608887,2019-08-07 13:39:47:849
-0.09294263273477554,-0.021914353594183922,9.853360176086426,-0.0031899140678995457,-0.007547909835407911,-0.010702129222321988,162.51828932269984,8.600826018212333,0,1.69677734375,2019-08-07 13:39:47:853
-0.09773212671279907,0.009217391721904278,9.776728630065918,-0.0034562954555630953,-0.0046177169117777896,-0.007239174043513418,162.8573080026525,12.028357210829409,0,1.7000136375427246,2019-08-07 13:39:47:856
-0.2198643684387207,0.03555963933467865,9.764754295349121,-0.0029235329403103213,-0.005150479166956239,-0.010702129222321988,163.17522044155737,15.384102861260548,0,1.7029728889465332,2019-08-07 13:39:47:859
-0.19591686129570007,-0.005151106510311365,9.815044403076172,-0.0015916273023641983,-0.0054168602945454634,-0.012300415987857336,163.49000020021313,11.47736145667845,0,1.7067689895629883,2019-08-07 13:39:47:863
-0.2078906148672104,-0.005151106510311365,9.83899211883545,-0.006919250374297341,-0.007015147580229461,-0.0077719362986918665,163.7972616239035,7.649666969951159,0,1.709993600845337,2019-08-07 13:39:47:866
-0.23183810710906982,0.02837538905441761,9.815044403076172,-0.004788200833434893,-0.005949623069872562,-0.010435747574584113,164.0952403972741,11.094154542662947,0,1.7129459381103516,2019-08-07 13:39:47:869
-0.2078906148672104,0.05711238458752632,9.85096549987793,-0.00425543883833077,-0.006748766452640236,-0.012833178243035783,164.39060325560402,14.466540320422762,0,1.7167644500732422,2019-08-07 13:39:47:873
-0.23662760853767395,0.014006891287863255,9.795886039733887,-0.0029235329403103213,-0.004084954916673665,-0.009103842456786639,164.67585474611818,17.776099673095697,0,1.719985008239746,2019-08-07 13:39:47:876
-0.23662760853767395,0.018796389922499657,9.975492477416992,-0.004521819705845669,-0.005150479166956239,-0.009370223064227214,164.95601103804086,21.01916511385307,0,1.7229256629943848,2019-08-07 13:39:47:879
-0.18873262405395508,0.03316488862037659,9.891676902770996,-0.0037226765831523197,-0.00435133604426289,-0.010169366967143538,165.23597076191035,24.195745093229387,0,1.726778268814087,2019-08-07 13:39:47:883
-0.22465386986732483,0.030770137906074524,9.812649726867676,0.0008058029759759856,-0.007281528707818685,-0.008038317426281092,165.506345622281,27.308090293860428,0,1.730018138885498,2019-08-07 13:39:47:886
-0.21268011629581451,-0.017124855890870094,9.803071022033691,-0.0026571518127210965,-0.005949623069872562,-0.009902985319405663,165.77237982774142,23.164384984444126,0,1.7330658435821533,2019-08-07 13:39:47:890
-0.193522110581398,0.037954386323690414,9.8797025680542,-0.006120106991529666,-0.007281528707818685,-0.006972792915924193,166.0360120939972,26.297975185312065,0,1.7367908954620361,2019-08-07 13:39:47:893
-0.21268011629581451,0.006822641938924789,9.819833755493164,-0.004521819705845669,-0.004084954916673665,-0.008304698553870315,166.29121364161927,29.372034676279583,0,1.7400014400482178,2019-08-07 13:39:47:896
-0.2342328578233719,0.011612141504883766,9.788702011108398,-0.0018580084299534227,-0.004884098039367014,-0.008837460809048764,166.53878748274306,32.38354403267881,0,1.7429673671722412,2019-08-07 13:39:47:899
-0.18394312262535095,-0.05783560127019882,9.786307334899902,-0.0026571518127210965,-0.005949623069872562,-0.007505555171102641,166.78774447838302,28.14321191949947,0,1.746765375137329,2019-08-07 13:39:47:903
-0.16957461833953857,0.07866512984037399,9.819833755493164,-0.00025972161565413924,-0.006216004197461787,-0.010968509829762562,167.03332811293825,31.171215130769856,0,1.749988317489624,2019-08-07 13:39:47:906
-0.2342328578233719,-0.0075458562932908535,9.867729187011719,0.0010721841035652101,-0.004084954916673665,-0.007505555171102641,167.2661413516852,26.94848978679147,0,1.7529337406158447,2019-08-07 13:39:47:909
-0.16478511691093445,-0.06262510269880295,9.79349136352539,-0.0039890577107415445,-0.007015147580229461,-0.008038317426281092,167.5030533469097,22.817708524841652,0,1.7567777633666992,2019-08-07 13:39:47:913
-0.2270486205816269,-0.009940605610609055,9.82222843170166,-0.004788200833434893,-0.005150479166956239,-0.00857107968145954,167.72743893813313,18.763379308116207,0,1.759995937347412,2019-08-07 13:39:47:916
-0.22944335639476776,0.07866512984037399,9.805465698242188,-0.002390770685131872,-0.006748766452640236,-0.0035098379971899483,167.94720841564103,21.97931805461274,0,1.7629706859588623,2019-08-07 13:39:47:919
-0.19112737476825714,0.004427892155945301,9.791096687316895,-0.00425543883833077,-0.008080672090586358,-0.010702129222321988,168.16762309844876,25.140121827926805,0,1.7667722702026367,2019-08-07 13:39:47:923
-0.23183810710906982,-0.014730105176568031,9.872518539428711,-0.005054581961024118,-0.0054168602945454634,-0.010702129222321988,168.37834742441308,21.03994506630047,0,1.7699995040893555,2019-08-07 13:39:47:926
-0.140837624669075,0.0714808851480484,9.86054515838623,-0.0031899140678995457,-0.004884098039367014,-0.009370223064227214,168.59522530410916,24.21136888862748,0,1.7729558944702148,2019-08-07 13:39:47:929
-0.140837624669075,0.030770137906074524,9.807860374450684,-0.005320963088613342,-0.008080672090586358,-0.007239174043513418,168.8086370665399,27.32471202867816,0,1.7768571376800537,2019-08-07 13:39:47:933
-0.2725488543510437,0.014006891287863255,9.795886039733887,-0.0039890577107415445,-0.009945339983710931,-0.00963660471196509,169.00239522720878,30.377303353700796,0,1.7800898551940918,2019-08-07 13:39:47:937
-0.2270486205816269,0.03555963933467865,9.874913215637207,-0.0026571518127210965,-0.0046177169117777896,-0.00617364953315652,169.19677503878867,33.36607421973578,0,1.7830615043640137,2019-08-07 13:39:47:940
-0.2198643684387207,0.025980640202760696,9.846176147460938,6.659528697688281e-06,-0.008080672090586358,-0.010435747574584113,169.38893600804175,36.29572768409339,0,1.7867650985717773,2019-08-07 13:39:47:943
-0.17915362119674683,0.07627038657665253,9.82222843170166,-0.0026571518127210965,-0.005150479166956239,-0.007505555171102641,169.5811904840071,39.161395971068806,0,1.789987564086914,2019-08-07 13:39:47:946
-0.11689012497663498,0.0020331426057964563,9.862939834594727,-0.0015916273023641983,-0.0064823853250510115,-0.007239174043513418,169.77706202478282,41.97819589549481,0,1.7929422855377197,2019-08-07 13:39:47:949
-0.15281137824058533,0.04034913703799248,9.815044403076172,-0.00425543883833077,-0.0064823853250510115,-0.010169366967143538,169.96507583530237,44.73483662812699,0,1.7967734336853027,2019-08-07 13:39:47:953
-0.22225911915302277,0.03316488862037659,9.836597442626953,-0.0015916273023641983,-0.003285811533905992,-0.008038317426281092,170.1404826106324,47.43656505633523,0,1.8000037670135498,2019-08-07 13:39:47:956
-0.2533908486366272,0.018796389922499657,9.834202766418457,-0.006386488119118891,-0.0046177169117777896,-0.009902985319405663,170.30891992648765,50.086703528887945,0,1.802959680557251,2019-08-07 13:39:47:959
-0.2078906148672104,-0.03388810157775879,9.82222843170166,-0.004788200833434893,-0.0054168602945454634,-0.010169366967143538,170.47965079788045,45.48994779040502,0,1.8067712783813477,2019-08-07 13:39:47:963
-0.17915362119674683,-0.019519604742527008,9.805465698242188,-0.0037226765831523197,-0.0056832419422833385,-0.009370223064227214,170.6501504402916,40.98310277732278,0,1.8099899291992188,2019-08-07 13:39:47:966
-0.22465386986732483,0.04992813616991043,9.707281112670898,-0.0026571518127210965,-0.0038185737890844406,-0.006972792915924193,170.81126689413682,43.757988387076836,0,1.8129489421844482,2019-08-07 13:39:47:969
-0.2198643684387207,0.0451386384665966,9.803071022033691,-0.005320963088613342,-0.00435133604426289,-0.012300415987857336,170.97028072846325,46.47869630922787,0,1.8167781829833984,2019-08-07 13:39:47:973
-0.20310111343860626,0.016401641070842743,9.757570266723633,-0.0034562954555630953,-0.0019539056358855436,-0.01150127208494101,171.12737994930123,49.147821167884786,0,1.8199985027313232,2019-08-07 13:39:47:976
-0.17196936905384064,0.04274388775229454,9.788702011108398,-0.002390770685131872,-0.004084954916673665,-0.01150127208494101,171.28538271689067,51.76025888423145,0,1.822962760925293,2019-08-07 13:39:47:979
-0.22944335639476776,0.07387563586235046,9.757570266723633,-0.0039890577107415445,-0.0064823853250510115,-0.011767653732678886,171.4341263932174,54.317234537392686,0,1.826786756515503,2019-08-07 13:39:47:983
-0.22225911915302277,0.030770137906074524,9.874913215637207,-0.001058865047185749,-0.0027530490186532175,-0.008304698553870315,171.58015368845832,56.827510391054844,0,1.8300025463104248,2019-08-07 13:39:47:986
-0.1288638710975647,0.004427892155945301,9.853360176086426,-0.0026571518127210965,-0.005150479166956239,-0.010968509829762562,171.73442122112485,59.290886962911614,0,1.832963228225708,2019-08-07 13:39:47:989
-0.13844287395477295,-0.012335355393588543,9.85096549987793,-0.0029235329403103213,-0.001687524508296319,-0.009103842456786639,171.88399125873056,54.50713092808287,0,1.8367815017700195,2019-08-07 13:39:47:993
-0.10731112957000732,0.04274388775229454,9.90125560760498,-0.005853725863940442,-0.004884098039367014,-0.012300415987857336,172.03477593654034,57.01310042557033,0,1.840003490447998,2019-08-07 13:39:47:996
-0.1216796264052391,-0.0027563569601625204,9.85096549987793,-0.007984774884654239,-0.005150479166956239,-0.014431465008571131,172.18078261062914,52.274485920415195,0,1.8429629802703857,2019-08-07 13:39:47:999
-0.11689012497663498,0.004427892155945301,9.817439079284668,-0.005320963088613342,-0.005150479166956239,-0.010968509829762562,172.3246262098906,54.829618163839804,0,1.8467745780944824,2019-08-07 13:39:48:003
-0.2725488543510437,0.011612141504883766,9.882097244262695,-0.0034562954555630953,-0.008879815473354034,-0.010169366967143538,172.4481439951482,57.33230465738859,0,1.8499970436096191,2019-08-07 13:39:48:006
-0.11449537426233292,-0.0075458562932908535,9.75278091430664,-0.0026571518127210965,-0.0054168602945454634,-0.010968509829762562,172.5866274299578,52.586985908116965,0,1.8529510498046875,2019-08-07 13:39:48:009
-0.140837624669075,0.03555963933467865,9.891676902770996,-0.00425543883833077,-0.0038185737890844406,-0.009902985319405663,172.71939913097086,55.13203909705558,0,1.856769323348999,2019-08-07 13:39:48:013
-0.15041662752628326,-0.0027563569601625204,9.805465698242188,6.659528697688281e-06,-0.006748766452640236,-0.010968509829762562,172.84865521880636,50.429719231735774,0,1.8599917888641357,2019-08-07 13:39:48:016
-0.10970588028430939,-0.053046099841594696,9.803071022033691,-0.005853725863940442,-0.0056832419422833385,-0.008837460809048764,172.97980505648854,45.82830023424652,0,1.862957239151001,2019-08-07 13:39:48:019
-0.1288638710975647,-0.009940605610609055,9.807860374450684,-0.006120106991529666,-0.004084954916673665,-0.011767653732678886,173.10602923769065,41.3142072043628,0,1.8667738437652588,2019-08-07 13:39:48:023
-0.19112737476825714,0.0451386384665966,9.884491920471191,-0.0039890577107415445,-0.0056832419422833385,-0.014431465008571131,173.2227821480467,44.08341187556553,0,1.8699960708618164,2019-08-07 13:39:48:026
-0.193522110581398,0.04274388775229454,9.913228988647461,-0.00425543883833077,-0.005150479166956239,-0.010968509829762562,173.3368460774122,46.79753543281129,0,1.8730626106262207,2019-08-07 13:39:48:030
-0.10731112957000732,-0.014730105176568031,9.774333953857422,-0.0007924839195965244,-0.0024866678910639927,-0.008837460809048764,173.45804878562012,42.263477353619514,0,1.876786708831787,2019-08-07 13:39:48:033
-0.15760086476802826,-0.009940605610609055,9.908439636230469,-0.00425543883833077,-0.0011547622531178697,-0.010435747574584113,173.5708712763163,37.8201259439455,0,1.8800029754638672,2019-08-07 13:39:48:036
-0.045047637075185776,-0.005151106510311365,9.865334510803223,-0.0034562954555630953,-0.0038185737890844406,-0.010435747574584113,173.69485446384854,33.46489480995542,0,1.88295578956604,2019-08-07 13:39:48:039
-0.1552061289548874,0.011612141504883766,9.889281272888184,-0.006652869246708115,-0.0024866678910639927,-0.007239174043513418,173.80350691531467,36.395676016500175,0,1.8867695331573486,2019-08-07 13:39:48:043
-0.006731641478836536,0.02837538905441761,9.83899211883545,-0.0039890577107415445,-0.005949623069872562,-0.008038317426281092,173.92773295920497,39.265181956135514,0,1.890002965927124,2019-08-07 13:39:48:046
-0.03546863794326782,0.011612141504883766,9.7982816696167,-0.006919250374297341,-0.0054168602945454634,-0.006972792915924193,174.0459356774175,42.07967683795944,0,1.8929798603057861,2019-08-07 13:39:48:049
-0.13125862181186676,0.025980640202760696,9.867729187011719,-0.0034562954555630953,-0.0027530490186532175,-0.011767653732678886,174.15036045526037,44.835801099506426,0,1.8967664241790771,2019-08-07 13:39:48:053
-0.08096887916326523,0.0451386384665966,9.944360733032227,-0.0039890577107415445,-0.0038185737890844406,-0.009103842456786639,174.25871857332763,47.53461009589535,0,1.9000096321105957,2019-08-07 13:39:48:056
-0.0498371347784996,-0.024309104308485985,9.776728630065918,-0.001058865047185749,-0.0046177169117777896,-0.009103842456786639,174.36847051334453,42.98694313503916,0,1.9029700756072998,2019-08-07 13:39:48:059
-0.016310639679431915,-0.012335355393588543,9.78151798248291,-0.0039890577107415445,-0.0035521926614952163,-0.007239174043513418,174.47994915916672,38.52950156428072,0,1.9067747592926025,2019-08-07 13:39:48:063
