ACCELEROMETER X (m/s²),ACCELEROMETER Y (m/s²),ACCELEROMETER Z (m/s²),GYROSCOPE X (rad/s),GYROSCOPE Y (rad/s),GYROSCOPE Z (rad/s),Time since start in ms ,YYYY-MO-DD HH-MI-SS_SSS,Pitch (Deg),Roll (Deg),Heading (Deg),MagX,MagY,MagZ
-0.0029623054433614016,-0.02519276738166809,9.611100196838379,0.0031566164919694735,0.0194343681205828,0.001541281334268416,0.0,2019-08-06 15:26:17:834,3.599646809229576,-3.596996314865464,0,-27.88864517211914,38.984127044677734,-48.58021926879883
-0.0149360541254282,-0.01800851710140705,9.666179656982422,-0.003236530830246241,0.017836082395344753,-0.001122530201698155,0.010005950927734375,2019-08-06 15:26:17:844,7.115862324891781,-7.121103110857625,0,-27.88864517211914,38.984127044677734,-48.58021926879883
-0.007751804776489735,-0.022798016667366028,9.630258560180664,-0.0013718629371216693,0.015438651726893083,0.0026068058446253144,0.019984006881713867,2019-08-06 15:26:17:854,10.563972923267286,-10.575199682545893,0,-27.88864517211914,38.984127044677734,-48.58021926879883
-0.012541304342448711,-0.008429518900811672,9.627863883972168,-0.0013718629371216693,0.016770557884987856,-0.0013889113292873795,0.030019521713256836,2019-08-06 15:26:17:864,13.941750701695348,-13.961919366604025,0,-27.88864517211914,38.984127044677734,-48.58021926879883
0.0018271940061822534,0.0035442295484244823,9.615889549255371,-0.002171006319889343,0.016770557884987856,-0.003519960350001176,0.03998923301696777,2019-08-06 15:26:17:874,10.053745308834396,-10.08188801656382,0,-27.88864517211914,38.984127044677734,-48.58021926879883
0.030564190819859505,0.022702226415276527,9.663784980773926,-0.0003063383292368989,0.01810246300278533,0.003405949227392988,0.04999423027038574,2019-08-06 15:26:17:884,6.246125053807859,-6.282770149112412,0,-27.88864517211914,38.984127044677734,-48.58021926879883
-0.010146554559469223,0.015517977997660637,9.66139030456543,-0.002703768575067792,0.015172271119452508,-0.0019216735844658289,0.05999922752380371,2019-08-06 15:26:17:894,9.711475626499565,-2.5574363756802425,0,-27.88864517211914,38.984127044677734,-48.58021926879883
-0.010146554559469223,-0.03956126421689987,9.66139030456543,-0.0016382440647108938,0.0183688436102259,-0.0003233867214026093,0.0699930191040039,2019-08-06 15:26:17:904,13.105734977312876,-6.10067610185707,0,-27.88864517211914,38.984127044677734,-48.58021926879883
0.00422194367274642,-0.003640019567683339,9.627863883972168,-0.0005727194893354142,0.010377409782549165,0.00047575672638364575,0.08001422882080078,2019-08-06 15:26:17:914,9.238283516476516,-9.577907078699305,0,-27.88864517211914,38.984127044677734,-48.58021926879883
-0.0005675556603819132,-0.022798016667366028,9.64462661743164,-0.0008391006169246387,0.01357398435391716,-0.001122530201698155,0.09000730514526367,2019-08-06 15:26:17:924,12.645833915977404,-12.983169393520129,0,-28.938217163085938,39.43394470214844,-48.730159759521484
0.0018271940061822534,-0.03716651350259781,9.663784980773926,-0.0008391006169246387,0.015172271119452508,0.004205092610160662,0.09999942779541016,2019-08-06 15:26:17:934,8.784621404580973,-16.31862810115878,0,-28.938217163085938,39.43394470214844,-48.730159759521484
0.00422194367274642,-0.029982266947627068,9.62067985534668,-0.0011054818095324445,0.010377409782549165,0.0007421378864821609,0.10998773574829102,2019-08-06 15:26:17:944,5.0036117619627145,-19.588064373285,0,-28.938217163085938,39.43394470214844,-48.730159759521484
-0.0149360541254282,0.034675974398851395,9.663784980773926,-0.002171006319889343,0.013307602706179285,0.0010085190140713856,0.12000727653503418,2019-08-06 15:26:17:954,8.494281633536104,-15.599193488537397,0,-28.938217163085938,39.43394470214844,-48.730159759521484
0.013800942339003086,0.03228122740983963,9.663784980773926,-0.0013718629371216693,0.01357398435391716,-0.001122530201698155,0.12999176979064941,2019-08-06 15:26:17:964,4.718422537744955,-11.69026835422978,0,-28.938217163085938,39.43394470214844,-48.730159759521484
-0.005357054993510246,-0.013219018466770649,9.615889549255371,-0.0016382440647108938,0.020233512023499125,0.0007421378864821609,0.13999533653259277,2019-08-06 15:26:17:974,8.212050550689932,-15.05396749150138,0,-28.938217163085938,39.43394470214844,-48.730159759521484
0.00422194367274642,0.029886476695537567,9.627863883972168,0.0004928051185493561,0.01410674660909561,-0.003519960350001176,0.14999985694885254,2019-08-06 15:26:17:984,4.440387538940589,-11.156722075635674,0,-28.938217163085938,39.43394470214844,-48.730159759521484
-0.012541304342448711,-0.013219018466770649,9.613494873046875,-0.0003063383292368989,0.012774840451000838,-0.0003233867214026093,0.1599879264831543,2019-08-06 15:26:17:994,7.9429203847492555,-14.53184014264772,0,-28.938217163085938,39.43394470214844,-48.730159759521484
0.00422194367274642,-0.041956014931201935,9.64462661743164,-0.0011054818095324445,0.016504176237249982,0.003938711482571438,0.17002058029174805,2019-08-06 15:26:18:004,4.175266269546491,-17.835595660525236,0,-28.938217163085938,39.43394470214844,-48.730159759521484
0.00422194367274642,-0.02519276738166809,9.64462661743164,-3.9957173202045016e-05,0.01810246300278533,0.00020937558253977584,0.1804218292236328,2019-08-06 15:26:18:015,0.4816902115134307,-21.075867167334703,0,-28.938217163085938,39.43394470214844,-48.730159759521484
-0.0029623054433614016,0.005938979331403971,9.630258560180664,-0.004302055340603139,0.014905889471714633,-0.0013889113292873795,0.18998074531555176,2019-08-06 15:26:18:024,4.063703453697375,-17.052747459840017,0,-28.938217163085938,39.43394470214844,-48.730159759521484
-0.0029623054433614016,0.01072847843170166,9.668574333190918,-0.0011054818095324445,0.01863522629826108,-0.0019216735844658289,0.1999814510345459,2019-08-06 15:26:18:034,7.571613900721562,-13.11234327478685,0,-28.938217163085938,39.43394470214844,-48.730159759521484
0.00901144277304411,0.005938979331403971,9.579968452453613,0.0002264239747054862,0.012774840451000838,-0.0003233867214026093,0.20999956130981445,2019-08-06 15:26:18:044,3.8140734871949022,-9.250934171965763,0,-28.188522338867188,38.68424987792969,-47.08082962036133
-0.02212030254304409,0.0011494798818603158,9.623074531555176,-0.004035674213013915,0.014905889471714633,-0.00778205891157742,0.22001338005065918,2019-08-06 15:26:18:054,7.326776734311969,-5.463783211634201,0,-28.188522338867188,38.68424987792969,-47.08082962036133
0.0473274365067482,0.008333728648722172,9.670969009399414,-0.0019046251923001184,0.01570503337463096,0.0007421378864821609,0.23000717163085938,2019-08-06 15:26:18:064,3.5770361148458574,-1.7544262322974538,0,-28.188522338867188,38.68424987792969,-47.08082962036133
0.018590440973639488,0.008333728648722172,9.704495429992676,-0.0003063383292368989,0.020499892630939702,-0.002987198094822727,0.24002790451049805,2019-08-06 15:26:18:074,-0.1038439607992605,1.8798506035586957,0,-28.188522338867188,38.68424987792969,-47.08082962036133
0.00422194367274642,0.005938979331403971,9.649415969848633,-0.003502911957835466,0.017036938492428433,0.00047575672638364575,0.2501802444458008,2019-08-06 15:26:18:084,-3.710977654525744,5.443545152319842,0,-28.188522338867188,38.68424987792969,-47.08082962036133
-0.03648880124092102,-0.020403267815709114,9.589548110961914,0.0012919485988449018,0.01064379143028704,0.0007421378864821609,0.25999975204467773,2019-08-06 15:26:18:094,-0.046986960989747306,1.7364000267929431,0,-28.188522338867188,38.68424987792969,-47.08082962036133
-0.02212030254304409,0.02509697712957859,9.66139030456543,-0.0008391006169246387,0.016770557884987856,-0.004052722605179625,0.2699928283691406,2019-08-06 15:26:18:104,3.541919018250889,5.299166165062498,0,-28.188522338867188,38.68424987792969,-47.08082962036133
-0.02930455282330513,-0.020403267815709114,9.687732696533203,-0.0019046251923001184,0.0215654192218912,0.008200809784073356,0.27998948097229004,2019-08-06 15:26:18:114,7.055509452789471,1.5966653296770281,0,-28.188522338867188,38.68424987792969,-47.08082962036133
-0.0149360541254282,0.005938979331403971,9.639837265014648,-3.9957173202045016e-05,0.015172271119452508,0.00047575672638364575,0.28999757766723633,2019-08-06 15:26:18:124,10.504097665476923,5.164048493430387,0,-28.188522338867188,38.68424987792969,-47.08082962036133
-0.03409405052661896,-0.03716651350259781,9.62067985534668,-0.0013718629371216693,0.015172271119452508,0.004471473997824211,0.300187349319458,2019-08-06 15:26:18:134,13.881273919486404,1.4659793083712302,0,-28.188522338867188,38.68424987792969,-47.08082962036133
-0.02212030254304409,-0.003640019567683339,9.637442588806152,-0.0037692930854246903,0.019700750808617978,-0.0032535792224119516,0.3100011348724365,2019-08-06 15:26:18:144,17.190162332044693,-2.1608304290245037,0,-28.188522338867188,38.68424987792969,-47.08082962036133
-0.012541304342448711,-0.022798016667366028,9.618284225463867,0.001824710854023351,0.01357398435391716,0.0010085190140713856,0.3199954032897949,2019-08-06 15:26:18:154,20.437247518846767,-5.715921671343894,0,-28.188522338867188,38.68424987792969,-47.08082962036133
0.023379940539598465,-0.03237701579928398,9.615889549255371,-0.0013718629371216693,0.016504176237249982,0.00020937558253977584,0.33000874519348145,2019-08-06 15:26:18:164,16.422009289721608,-9.196973590186818,0,-28.188522338867188,38.68424987792969,-47.08082962036133
-0.03169930353760719,-0.008429518900811672,9.63265323638916,0.0012919485988449018,0.019167987513142228,0.003672330354982212,0.34001755714416504,2019-08-06 15:26:18:174,19.67902583546728,-12.612757396426263,0,-27.58876609802246,38.984127044677734,-48.880096435546875
-0.007751804776489735,-0.01800851710140705,9.642231941223145,0.001824710854023351,0.016504176237249982,0.0012749002066791914,0.350172758102417,2019-08-06 15:26:18:184,22.875113169798563,-15.959402531781842,0,-27.58876609802246,38.984127044677734,-48.880096435546875
-0.019725553691387177,-0.003640019567683339,9.613494873046875,-0.0019046251923001184,0.01863522629826108,-0.0005897678815011245,0.3600025177001953,2019-08-06 15:26:18:194,26.00497412983554,-19.2387293575679,0,-27.58876609802246,38.984127044677734,-48.880096435546875
-0.03169930353760719,-0.01800851710140705,9.647021293640137,-0.002171006319889343,0.013840364961357736,-0.001655292456876604,0.37001729011535645,2019-08-06 15:26:18:204,29.073326451943014,-22.45059482421116,0,-27.58876609802246,38.984127044677734,-48.880096435546875
-0.012541304342448711,0.022702226415276527,9.630258560180664,-0.0013718629371216693,0.014905889471714633,0.0023404247170360896,0.38001155853271484,2019-08-06 15:26:18:214,32.08200277992881,-18.40351442919896,0,-27.58876609802246,38.984127044677734,-48.880096435546875
-0.017330802977085114,0.013123228214681149,9.618284225463867,0.003689378747147923,0.015971413982071532,0.003405949227392988,0.39000868797302246,2019-08-06 15:26:18:224,35.02933259401655,-14.43907861827314,0,-27.58876609802246,38.984127044677734,-48.880096435546875
-0.03409405052661896,-0.015613768249750137,9.692522048950195,-0.007765010519411709,0.015971413982071532,-0.002987198094822727,0.4000256061553955,2019-08-06 15:26:18:234,37.91573202991695,-17.74408366285194,0,-27.58876609802246,38.984127044677734,-48.880096435546875
-0.019725553691387177,-0.003640019567683339,9.651811599731445,0.0012919485988449018,0.016237795629809405,0.0012749002066791914,0.41001343727111816,2019-08-06 15:26:18:244,40.74596906234507,-20.98949437130237,0,-27.58876609802246,38.984127044677734,-48.880096435546875
-0.03648880124092102,0.03228122740983963,9.575179100036621,0.0015583297264341264,0.016504176237249982,0.005004236253002661,0.420011043548584,2019-08-06 15:26:18:254,43.517418027744455,-16.974442536034353,0,-27.58876609802246,38.984127044677734,-48.880096435546875
-0.007751804776489735,0.01791272684931755,9.642231941223145,-0.002970149702657017,0.016770557884987856,-0.004052722605179625,0.43001222610473633,2019-08-06 15:26:18:264,46.23673065757948,-13.035414559922216,0,-27.58876609802246,38.984127044677734,-48.880096435546875
-0.046067800372838974,-0.008429518900811672,9.682943344116211,-0.0016382440647108938,0.016504176237249982,-0.0003233867214026093,0.44001317024230957,2019-08-06 15:26:18:274,48.89727630299646,-16.37278872964231,0,-27.58876609802246,38.984127044677734,-48.880096435546875
-0.017330802977085114,0.008333728648722172,9.651811599731445,-0.0013718629371216693,0.015172271119452508,0.0010085190140713856,0.4500298500061035,2019-08-06 15:26:18:284,51.50873975249068,-12.44555079640076,0,-27.58876609802246,38.984127044677734,-48.880096435546875
0.0018271940061822534,-0.013219018466770649,9.658995628356934,-0.0008391006169246387,0.017303320140166306,-0.001122530201698155,0.4600207805633545,2019-08-06 15:26:18:294,46.86907475147234,-15.79460078839914,0,-27.438827514648438,40.03369903564453,-48.730159759521484
0.023379940539598465,-0.003640019567683339,9.577573776245117,-0.0011054818095324445,0.01810246300278533,0.0023404247170360896,0.4700155258178711,2019-08-06 15:26:18:304,42.324331393260536,-19.077652859580013,0,-27.438827514648438,40.03369903564453,-48.730159759521484
-0.019725553691387177,-0.020403267815709114,9.608705520629883,-0.004035674213013915,0.01863522629826108,-0.001122530201698155,0.48001670837402344,2019-08-06 15:26:18:314,45.06502744581817,-22.29140025833606,0,-27.438827514648438,40.03369903564453,-48.730159759521484
0.00422194367274642,-0.013219018466770649,9.635047912597656,-0.0003063383292368989,0.0183688436102259,-0.006982915528809746,0.49001598358154297,2019-08-06 15:26:18:324,40.55391568797154,-25.443828093664855,0,-27.438827514648438,40.03369903564453,-48.730159759521484
-0.0005675556603819132,0.01791272684931755,9.64462661743164,-0.003502911957835466,0.01410674660909561,-0.0027208169672335025,0.500028133392334,2019-08-06 15:26:18:334,43.33483939792562,-21.33511054005262,0,-27.438827514648438,40.03369903564453,-48.730159759521484
-0.04127829894423485,-0.008429518900811672,9.62067985534668,-0.004302055340603139,0.015438651726893083,-0.001655292456876604,0.5100178718566895,2019-08-06 15:26:18:344,46.05456611090677,-24.504991173210474,0,-27.438827514648438,40.03369903564453,-48.730159759521484
-0.026909802109003067,0.027491725981235504,9.63265323638916,-0.0024373874474785677,0.016237795629809405,-0.002987198094822727,0.5200128555297852,2019-08-06 15:26:18:354,48.721160638088804,-20.416793896654074,0,-27.438827514648438,40.03369903564453,-48.730159759521484
-0.0149360541254282,0.0035442295484244823,9.656600952148438,-0.0003063383292368989,0.017836082395344753,0.0031395680998037635,0.5300142765045166,2019-08-06 15:26:18:364,51.3349486575264,-16.408706567223923,0,-27.438827514648438,40.03369903564453,-48.730159759521484
-0.0149360541254282,-0.049140263348817825,9.599126815795898,-0.002171006319889343,0.021032655926415452,-0.006716534401220521,0.5400292873382568,2019-08-06 15:26:18:374,53.894639128315745,-19.673445419748056,0,-27.438827514648438,40.03369903564453,-48.730159759521484
-0.007751804776489735,0.020307477563619614,9.709284782409668,-0.0019046251923001184,0.016504176237249982,-0.001122530201698155,0.5500147342681885,2019-08-06 15:26:18:384,56.40657787128217,-15.681305362239083,0,-27.438827514648438,40.03369903564453,-48.730159759521484
-0.02212030254304409,-0.013219018466770649,9.649415969848633,-0.0019046251923001184,0.015971413982071532,-0.001655292456876604,0.5600128173828125,2019-08-06 15:26:18:394,58.86685321560224,-18.965040193085223,0,-27.438827514648438,40.03369903564453,-48.730159759521484
0.018590440973639488,-0.01082426868379116,9.615889549255371,-0.002171006319889343,0.016504176237249982,0.00020937558253977584,0.5700149536132812,2019-08-06 15:26:18:404,54.08246249995195,-22.183230195384645,0,-27.438827514648438,40.03369903564453,-48.730159759521484
0.03295893967151642,-0.020403267815709114,9.625469207763672,-0.0013718629371216693,0.013307602706179285,-0.003519960350001176,0.5800151824951172,2019-08-06 15:26:18:414,49.39726463646953,-25.336366261899453,0,-27.438827514648438,40.03369903564453,-48.730159759521484
-0.0149360541254282,-0.03716651350259781,9.637442588806152,-0.0008391006169246387,0.016504176237249982,0.0010085190140713856,0.5900297164916992,2019-08-06 15:26:18:424,51.998262870389546,-28.42474793021534,0,-27.738706588745117,39.733821868896484,-46.93089294433594
0.02098519168794155,0.034675974398851395,9.635047912597656,-3.9957173202045016e-05,0.01810246300278533,-0.0021880547120550534,0.6000137329101562,2019-08-06 15:26:18:434,47.350645158191824,-24.260354637013865,0,-27.738706588745117,39.733821868896484,-46.93089294433594
-0.010146554559469223,0.02509697712957859,9.599126815795898,-0.0005727194893354142,0.016237795629809405,0.0012749002066791914,0.6100144386291504,2019-08-06 15:26:18:444,49.99330284598175,-20.177821937020237,0,-27.738706588745117,39.733821868896484,-46.93089294433594
0.00422194367274642,-0.01082426868379116,9.635047912597656,-0.003236530830246241,0.01410674660909561,0.0007421378864821609,0.6200151443481445,2019-08-06 15:26:18:454,45.38601743524713,-23.371160710909663,0,-27.738706588745117,39.733821868896484,-46.93089294433594
-0.007751804776489735,-0.015613768249750137,9.613494873046875,-0.0016382440647108938,0.013041222098738713,0.00047575672638364575,0.6300125122070312,2019-08-06 15:26:18:464,48.070052381051305,-26.50095672857446,0,-27.738706588745117,39.733821868896484,-46.93089294433594
-0.03409405052661896,-0.020403267815709114,9.654206275939941,-0.003502911957835466,0.016504176237249982,-5.7005565367755386e-05,0.6400637626647949,2019-08-06 15:26:18:474,50.69528995643781,-29.56653885084728,0,-27.738706588745117,39.733821868896484,-46.93089294433594
0.0018271940061822534,0.01791272684931755,9.577573776245117,-0.0005727194893354142,0.014639508864274061,0.0031395680998037635,0.6500332355499268,2019-08-06 15:26:18:484,46.07340780240442,-25.377030652688696,0,-27.738706588745117,39.733821868896484,-46.93089294433594
-0.0005675556603819132,0.022702226415276527,9.608705520629883,-0.0008391006169246387,0.015438651726893083,0.00020937558253977584,0.6600508689880371,2019-08-06 15:26:18:494,48.743187892789635,-21.2717254734417,0,-27.738706588745117,39.733821868896484,-46.93089294433594
-0.02212030254304409,0.005938979331403971,9.63265323638916,-0.004302055340603139,0.015971413982071532,-0.0032535792224119516,0.6700451374053955,2019-08-06 15:26:18:504,51.35672988637688,-17.244583260512677,0,-27.738706588745117,39.733821868896484,-46.93089294433594
-0.012541304342448711,0.013123228214681149,9.649415969848633,0.0026238542367910244,0.01410674660909561,0.0031395680998037635,0.6800475120544434,2019-08-06 15:26:18:514,53.920183147969496,-13.302723682654111,0,-27.738706588745117,39.733821868896484,-46.93089294433594
-0.024515053257346153,-0.027587516233325005,9.637442588806152,-0.004302055340603139,0.017303320140166306,-0.004851865987947299,0.6900475025177002,2019-08-06 15:26:18:524,56.4291488098166,-16.63097339861836,0,-27.738706588745117,39.733821868896484,-46.93089294433594
-0.0149360541254282,-0.015613768249750137,9.613494873046875,-0.002970149702657017,0.013840364961357736,-5.7005565367755386e-05,0.7000288963317871,2019-08-06 15:26:18:534,58.891028591015164,-19.89482816022123,0,-27.738706588745117,39.733821868896484,-46.93089294433594
-0.02930455282330513,0.0011494798818603158,9.678153038024902,-0.003236530830246241,0.020499892630939702,-0.001655292456876604,0.7100496292114258,2019-08-06 15:26:18:544,61.29820377657788,-15.895246622620165,0,-28.33846092224121,39.43394470214844,-48.43028259277344
-0.024515053257346153,0.01072847843170166,9.56320571899414,0.0004928051185493561,0.018901606905701654,0.00047575672638364575,0.7200443744659424,2019-08-06 15:26:18:554,63.65869453020208,-11.978903798565291,0,-28.33846092224121,39.43394470214844,-48.43028259277344
-0.026909802109003067,-0.029982266947627068,9.639837265014648,-3.9957173202045016e-05,0.017036938492428433,0.0007421378864821609,0.7300443649291992,2019-08-06 15:26:18:564,65.97275559253512,-15.335739218631966,0,-28.33846092224121,39.43394470214844,-48.43028259277344
0.013800942339003086,-0.03716651350259781,9.67336368560791,0.0015583297264341264,0.015172271119452508,-0.0003233867214026093,0.7400476932525635,2019-08-06 15:26:18:574,61.04641330688627,-18.6254969676806,0,-28.33846092224121,39.43394470214844,-48.43028259277344
-0.02930455282330513,0.015517977997660637,9.630258560180664,-3.9957173202045016e-05,0.012242078195822388,-0.004052722605179625,0.7500438690185547,2019-08-06 15:26:18:584,63.41512678741611,-14.654811101537646,0,-28.33846092224121,39.43394470214844,-48.43028259277344
-0.010146554559469223,-0.0012452697847038507,9.67336368560791,-0.0005727194893354142,0.018901606905701654,-0.005651009370714973,0.7600500583648682,2019-08-06 15:26:18:594,65.73500248644045,-17.961245583448015,0,-28.33846092224121,39.43394470214844,-48.43028259277344
0.006616693455725908,0.015517977997660637,9.658995628356934,-0.0003063383292368989,0.01810246300278533,-0.001122530201698155,0.7700483798980713,2019-08-06 15:26:18:604,60.81092461989487,-14.00368969899704,0,-28.33846092224121,39.43394470214844,-48.43028259277344
-0.0029623054433614016,-0.034771766513586044,9.651811599731445,-0.0037692930854246903,0.01756970178790418,0.0018076624618576407,0.7800478935241699,2019-08-06 15:26:18:614,63.18448954266736,-17.317371279557978,0,-28.33846092224121,39.43394470214844,-48.43028259277344
0.00901144277304411,-0.008429518900811672,9.615889549255371,-0.0016382440647108938,0.018901606905701654,0.0007421378864821609,0.7900614738464355,2019-08-06 15:26:18:624,58.31124599613364,-20.5690981961657,0,-28.33846092224121,39.43394470214844,-48.43028259277344
0.00422194367274642,-0.006034769117832184,9.658995628356934,0.0012919485988449018,0.013307602706179285,-0.0005897678815011245,0.8000459671020508,2019-08-06 15:26:18:634,53.538061341630005,-23.757724587081825,0,-28.33846092224121,39.43394470214844,-48.43028259277344
-0.02930455282330513,-0.03716651350259781,9.658995628356934,-0.002970149702657017,0.015172271119452508,0.0071352852737164565,0.8100473880767822,2019-08-06 15:26:18:644,56.05530309706262,-26.87649281634003,0,-28.33846092224121,39.43394470214844,-48.43028259277344
0.02816944010555744,-0.06829825788736343,9.67336368560791,-0.0037692930854246903,0.017303320140166306,0.0018076624618576407,0.8200416564941406,2019-08-06 15:26:18:654,51.327823781535656,-29.928757179907688,0,-28.33846092224121,39.43394470214844,-48.43028259277344
0.013800942339003086,-0.01800851710140705,9.682943344116211,0.0002264239747054862,0.015438651726893083,-0.001122530201698155,0.8300478458404541,2019-08-06 15:26:18:664,46.69422641238686,-32.92817805920319,0,-28.33846092224121,39.43394470214844,-48.43028259277344
-0.024515053257346153,-0.006034769117832184,9.596732139587402,-0.002703768575067792,0.017303320140166306,-0.0005897678815011245,0.8400449752807617,2019-08-06 15:26:18:674,49.347701623392446,-35.86737617874304,0,-28.188522338867188,39.28400421142578,-47.68058776855469
-0.012541304342448711,0.03228122740983963,9.668574333190918,0.003689378747147923,0.013840364961357736,0.004471473997824211,0.8500466346740723,2019-08-06 15:26:18:684,51.951488565683924,-31.555926524107306,0,-28.188522338867188,39.28400421142578,-47.68058776855469
0.0018271940061822534,-0.049140263348817825,9.6901273727417,0.0020910919816125757,0.010910172037727614,-0.005118247115536523,0.8600356578826904,2019-08-06 15:26:18:694,47.306555548681686,-34.52016976949328,0,-28.188522338867188,39.28400421142578,-47.68058776855469
-0.024515053257346153,0.02509697712957859,9.654206275939941,-0.004834817595781589,0.01357398435391716,-0.0027208169672335025,0.8700544834136963,2019-08-06 15:26:18:704,49.94987848326122,-30.23002542383828,0,-28.188522338867188,39.28400421142578,-47.68058776855469
-0.026909802109003067,0.008333728648722172,9.608705520629883,0.001824710854023351,0.01756970178790418,-0.0024544358396442778,0.8800392150878906,2019-08-06 15:26:18:714,52.537821410274525,-26.027441787743452,0,-28.188522338867188,39.28400421142578,-47.68058776855469
-0.03648880124092102,0.0011494798818603158,9.66139030456543,0.001824710854023351,0.01570503337463096,0.008200809784073356,0.8900294303894043,2019-08-06 15:26:18:724,55.07392742231971,-21.90805285933756,0,-28.188522338867188,39.28400421142578,-47.68058776855469
-0.005357054993510246,-0.003640019567683339,9.668574333190918,-0.0005727194893354142,0.013840364961357736,0.0026068058446253144,0.9000303745269775,2019-08-06 15:26:18:734,57.56404187809372,-25.069138776921992,0,-28.188522338867188,39.28400421142578,-47.68058776855469
-0.024515053257346153,-0.006034769117832184,9.654206275939941,-0.005367579850960038,0.016504176237249982,-0.000856149009090349,0.9100322723388672,2019-08-06 15:26:18:744,60.0005823770076,-28.164025237808655,0,-28.188522338867188,39.28400421142578,-47.68058776855469
-0.02212030254304409,0.005938979331403971,9.680547714233398,-0.0008391006169246387,0.016237795629809405,0.00047575672638364575,0.920034646987915,2019-08-06 15:26:18:754,62.38883262195093,-24.00097648209856,0,-28.188522338867188,39.28400421142578,-47.68058776855469
-0.04127829894423485,0.022702226415276527,9.63265323638916,0.0023574731092018,0.0215654192218912,0.004471473997824211,0.9300906658172607,2019-08-06 15:26:18:764,64.72396868166965,-19.924988773298463,0,-28.188522338867188,39.28400421142578,-47.68058776855469
-0.010146554559469223,-0.01082426868379116,9.682943344116211,-0.0011054818095324445,0.017303320140166306,-0.001655292456876604,0.9400196075439453,2019-08-06 15:26:18:774,67.0186417754254,-23.124591698326796,0,-28.188522338867188,39.28400421142578,-47.68058776855469
-0.017330802977085114,-0.027587516233325005,9.623074531555176,0.0004928051185493561,0.01570503337463096,-0.00431910373276885,0.9500372409820557,2019-08-06 15:26:18:784,69.26737128569428,-26.259091949622356,0,-28.188522338867188,39.28400421142578,-47.68058776855469
-0.02930455282330513,0.0035442295484244823,9.635047912597656,-0.0008391006169246387,0.013840364961357736,0.0007421378864821609,0.9600257873535156,2019-08-06 15:26:18:794,71.47077617635082,-22.133861018733548,0,-27.88864517211914,38.984127044677734,-48.28034210205078
0.0018271940061822534,0.0035442295484244823,9.548836708068848,-0.0011054818095324445,0.017036938492428433,-0.001122530201698155,0.9700400829315186,2019-08-06 15:26:18:804,66.43200003342035,-18.090987512472008,0,-27.88864517211914,38.984127044677734,-48.28034210205078
-0.026909802109003067,0.005938979331403971,9.606310844421387,0.0004928051185493561,0.012774840451000838,0.005004236253002661,0.9800026416778564,2019-08-06 15:26:18:814,68.69300383161612,-14.130151883220112,0,-27.88864517211914,38.984127044677734,-48.28034210205078
0.02816944010555744,0.04425497353076935,9.606310844421387,-0.002171006319889343,0.016770557884987856,0.004205092610160662,0.9900062084197998,2019-08-06 15:26:18:824,63.713084011500854,-10.251608434310603,0,-27.88864517211914,38.984127044677734,-48.28034210205078
-0.038883551955223083,0.005938979331403971,9.608705520629883,-0.0005727194893354142,0.014905889471714633,0.00553699850818111,0.9999992847442627,2019-08-06 15:26:18:834,66.02582133777743,-6.446963178132764,0,-27.88864517211914,38.984127044677734,-48.28034210205078
-0.007751804776489735,0.02509697712957859,9.606310844421387,-0.0011054818095324445,0.013307602706179285,0.004471473997824211,1.010021686553955,2019-08-06 15:26:18:844,68.29689127566968,-2.7203955536237574,0,-27.88864517211914,38.984127044677734,-48.28034210205078
-0.03169930353760719,0.02509697712957859,9.692522048950195,0.0010255674062370958,0.015971413982071532,0.003405949227392988,1.019991397857666,2019-08-06 15:26:18:854,70.51826499266465,0.9304711189832626,0,-27.88864517211914,38.984127044677734,-48.28034210205078
-0.03409405052661896,0.0011494798818603158,9.584757804870605,0.0007591862786478714,0.017036938492428433,0.0020740435894468653,1.0302619934082031,2019-08-06 15:26:18:864,72.69399848530374,4.511286452287871,0,-27.88864517211914,38.984127044677734,-48.28034210205078
-0.03648880124092102,0.04664972424507141,9.687732696533203,-0.0008391006169246387,0.015971413982071532,0.0010085190140713856,1.0401642322540283,2019-08-06 15:26:18:874,74.82692219441074,8.016009340810381,0,-27.88864517211914,38.984127044677734,-48.28034210205078
-0.03409405052661896,-0.003640019567683339,9.615889549255371,0.002890235364380249,0.017036938492428433,0.005004236253002661,1.0501351356506348,2019-08-06 15:26:18:884,76.91678243155106,4.254504790088889,0,-27.88864517211914,38.984127044677734,-48.28034210205078
-0.026909802109003067,0.01072847843170166,9.579968452453613,-0.0003063383292368989,0.016770557884987856,-0.0021880547120550534,1.0606772899627686,2019-08-06 15:26:18:895,78.96530078095499,7.768312733366367,0,-27.88864517211914,38.984127044677734,-48.28034210205078
0.0018271940061822534,-0.02519276738166809,9.67336368560791,-0.0003063383292368989,0.019167987513142228,0.003938711482571438,1.0699849128723145,2019-08-06 15:26:18:904,73.77619360905545,4.016090929504328,0,-27.88864517211914,38.984127044677734,-48.28034210205078
-0.019725553691387177,0.04425497353076935,9.680547714233398,0.002890235364380249,0.013041222098738713,0.001541281334268416,1.0800111293792725,2019-08-06 15:26:18:914,75.89099294106678,7.528903435092218,0,-27.88864517211914,38.984127044677734,-48.28034210205078
-0.03409405052661896,0.020307477563619614,9.589548110961914,-0.0003063383292368989,0.014639508864274061,0.00020937558253977584,1.0900094509124756,2019-08-06 15:26:18:924,77.9608803016686,10.976070681117436,0,-28.788278579711914,39.28400421142578,-47.980464935302734
-0.017330802977085114,-0.013219018466770649,9.687732696533203,0.0015583297264341264,0.017836082395344753,-0.0005897678815011245,1.099996566772461,2019-08-06 15:26:18:934,79.98961068737422,7.157239008369441,0,-28.788278579711914,39.28400421142578,-47.980464935302734
-0.005357054993510246,-0.006034769117832184,9.560811042785645,-0.0003063383292368989,0.01410674660909561,0.004205092610160662,1.1100027561187744,2019-08-06 15:26:18:944,81.98125057974389,3.414989643268281,0,-28.788278579711914,39.28400421142578,-47.980464935302734
0.013800942339003086,0.034675974398851395,9.627863883972168,0.0026238542367910244,0.01064379143028704,0.006069760763359559,1.1199934482574463,2019-08-06 15:26:18:954,76.7372972539612,6.941090788467622,0,-28.788278579711914,39.28400421142578,-47.980464935302734
-0.026909802109003067,-0.006034769117832184,9.647021293640137,0.0007591862786478714,0.014639508864274061,-0.0032535792224119516,1.1300134658813477,2019-08-06 15:26:18:964,78.79111833368103,3.2025586736270726,0,-28.788278579711914,39.28400421142578,-47.980464935302734
-0.0029623054433614016,-0.029982266947627068,9.637442588806152,0.0004928051185493561,0.017836082395344753,-0.004851865987947299,1.1399974822998047,2019-08-06 15:26:18:974,80.80494481308727,-0.45820381330238735,0,-28.788278579711914,39.28400421142578,-47.980464935302734
0.018590440973639488,-0.006034769117832184,9.625469207763672,0.001824710854023351,0.01756970178790418,0.0020740435894468653,1.1500139236450195,2019-08-06 15:26:18:984,75.58117752916432,-4.04934755288131,0,-28.788278579711914,39.28400421142578,-47.980464935302734
0.016195692121982574,-0.015613768249750137,9.63265323638916,-0.0016382440647108938,0.014373127216536186,-0.003519960350001176,1.1600399017333984,2019-08-06 15:26:18:994,70.46338918482415,-7.565580903540042,0,-28.788278579711914,39.28400421142578,-47.980464935302734
-0.012541304342448711,-0.029982266947627068,9.601521492004395,-0.0019046251923001184,0.01810246300278533,-0.0019216735844658289,1.1700255870819092,2019-08-06 15:26:19:004,72.64247467306272,-11.0096230811469,0,-28.788278579711914,39.28400421142578,-47.980464935302734
-0.024515053257346153,0.008333728648722172,9.70210075378418,0.0002264239747054862,0.020233512023499125,0.0010085190140713856,1.180022954940796,2019-08-06 15:26:19:014,74.77537161256627,-7.190542019665992,0,-28.788278579711914,39.28400421142578,-47.980464935302734
-0.0029623054433614016,-0.022798016667366028,9.594337463378906,0.001824710854023351,0.01570503337463096,0.00020937558253977584,1.1900432109832764,2019-08-06 15:26:19:024,76.87067415510182,-10.645034913546667,0,-28.788278579711914,39.28400421142578,-47.980464935302734
0.016195692121982574,-0.015613768249750137,9.635047912597656,-0.0013718629371216693,0.014373127216536186,-0.0003233867214026093,1.1999974250793457,2019-08-06 15:26:19:034,71.72715331646273,-14.029510467811217,0,-28.788278579711914,39.28400421142578,-47.980464935302734
-0.026909802109003067,0.013123228214681149,9.66139030456543,-0.0011054818095324445,0.010111029175108591,-0.0027208169672335025,1.2100083827972412,2019-08-06 15:26:19:044,73.88373499761505,-10.149855367124065,0,-27.88864517211914,40.483516693115234,-47.68058776855469
-0.012541304342448711,-0.029982266947627068,9.556020736694336,-0.0024373874474785677,0.017303320140166306,-0.001122530201698155,1.2200298309326172,2019-08-06 15:26:19:054,75.99481977170447,-13.541891406104764,0,-27.88864517211914,40.483516693115234,-47.68058776855469
-0.053252048790454865,0.0035442295484244823,9.599126815795898,-0.0011054818095324445,0.016237795629809405,0.0020740435894468653,1.2300400733947754,2019-08-06 15:26:19:064,78.05943952945418,-9.670855315377707,0,-27.88864517211914,40.483516693115234,-47.68058776855469
-0.007751804776489735,-0.0012452697847038507,9.656600952148438,-0.0008391006169246387,0.016504176237249982,0.0028731869722145387,1.2400104999542236,2019-08-06 15:26:19:074,80.08809119249993,-13.076820676702182,0,-27.88864517211914,40.483516693115234,-47.68058776855469
0.013800942339003086,-0.01082426868379116,9.67336368560791,-0.0024373874474785677,0.013840364961357736,0.0012749002066791914,1.2500367164611816,2019-08-06 15:26:19:084,74.88017252006068,-16.412629833145473,0,-27.88864517211914,40.483516693115234,-47.68058776855469
-0.0149360541254282,0.01072847843170166,9.66139030456543,0.0010255674062370958,0.01570503337463096,0.006602523018538008,1.2600207328796387,2019-08-06 15:26:19:094,76.97199327958913,-12.486224650733185,0,-27.88864517211914,40.483516693115234,-47.68058776855469
0.030564190819859505,0.005938979331403971,9.649415969848633,-0.002171006319889343,0.01357398435391716,-0.0005897678815011245,1.2700262069702148,2019-08-06 15:26:19:104,71.82855710382383,-8.635985756230218,0,-27.88864517211914,40.483516693115234,-47.68058776855469
-0.04127829894423485,-0.03716651350259781,9.668574333190918,-0.0013718629371216693,0.01810246300278533,0.00047575672638364575,1.2800090312957764,2019-08-06 15:26:19:114,73.97694665375914,-12.05809212625051,0,-27.88864517211914,40.483516693115234,-47.68058776855469
0.030564190819859505,0.015517977997660637,9.601521492004395,-0.0013718629371216693,0.016504176237249982,-0.0019216735844658289,1.2900049686431885,2019-08-06 15:26:19:124,68.89179215416378,-8.21801232453946,0,-27.88864517211914,40.483516693115234,-47.68058776855469
-0.017330802977085114,-0.029982266947627068,9.670969009399414,-0.004302055340603139,0.0194343681205828,-0.001122530201698155,1.3000292778015137,2019-08-06 15:26:19:134,71.10096388369345,-11.647678012619469,0,-27.88864517211914,40.483516693115234,-47.68058776855469
-0.024515053257346153,0.005938979331403971,9.62067985534668,0.0012919485988449018,0.011975696548084513,0.00553699850818111,1.3100104331970215,2019-08-06 15:26:19:144,73.2693129679192,-7.816155902231884,0,-27.88864517211914,40.483516693115234,-47.68058776855469
-0.0149360541254282,0.022702226415276527,9.625469207763672,-0.0003063383292368989,0.015172271119452508,-0.001122530201698155,1.3200008869171143,2019-08-06 15:26:19:154,75.39363749043105,-4.062363643089954,0,-27.88864517211914,40.483516693115234,-47.68058776855469
-0.03169930353760719,0.0011494798818603158,9.687732696533203,-3.9957173202045016e-05,0.012774840451000838,-0.0032535792224119516,1.3300292491912842,2019-08-06 15:26:19:164,77.47482179497496,-0.38122983717617265,0,-27.88864517211914,40.483516693115234,-47.68058776855469
-0.04367304965853691,-0.01800851710140705,9.639837265014648,-0.002970149702657017,0.01810246300278533,0.007668047528894907,1.3400166034698486,2019-08-06 15:26:19:174,79.50998219712966,-3.9697988918908544,0,-26.989011764526367,40.18363952636719,-48.880096435546875
-0.04127829894423485,-0.03716651350259781,9.627863883972168,0.0012919485988449018,0.01810246300278533,-0.0013889113292873795,1.3500449657440186,2019-08-06 15:26:19:184,81.50467627194807,-7.4867068345333045,0,-26.989011764526367,40.18363952636719,-48.880096435546875
-0.010146554559469223,0.008333728648722172,9.637442588806152,0.0002264239747054862,0.009844647527370716,-0.003786341477590401,1.36000394821167,2019-08-06 15:26:19:194,83.46787121400261,-3.7380902136670335,0,-26.989011764526367,40.18363952636719,-48.880096435546875
-0.026909802109003067,0.01072847843170166,9.618284225463867,-0.003236530830246241,0.015971413982071532,0.004737855125413436,1.3700389862060547,2019-08-06 15:26:19:204,85.386308434232,-0.06278291706902639,0,-26.989011764526367,40.18363952636719,-48.880096435546875
0.006616693455725908,-0.027587516233325005,9.589548110961914,-3.9957173202045016e-05,0.01756970178790418,-0.0013889113292873795,1.3800382614135742,2019-08-06 15:26:19:214,80.06950828724658,-3.658208227225622,0,-26.989011764526367,40.18363952636719,-48.880096435546875
-0.0149360541254282,-0.034771766513586044,9.56320571899414,-3.9957173202045016e-05,0.021032655926415452,-0.000856149009090349,1.3900482654571533,2019-08-06 15:26:19:224,82.05450678103264,-7.180855079541674,0,-26.989011764526367,40.18363952636719,-48.880096435546875
0.00901144277304411,0.0011494798818603158,9.587152481079102,-0.004568436468192365,0.015438651726893083,-0.0024544358396442778,1.4000325202941895,2019-08-06 15:26:19:234,76.80583861551249,-3.434814238917743,0,-26.989011764526367,40.18363952636719,-48.880096435546875
0.00422194367274642,-0.008429518900811672,9.668574333190918,0.0004928051185493561,0.011709315940643939,-0.0003233867214026093,1.4100139141082764,2019-08-06 15:26:19:244,71.66365969442082,-6.965395085712851,0,-26.989011764526367,40.18363952636719,-48.880096435546875
0.0018271940061822534,-0.044350765645504,9.639837265014648,-0.002171006319889343,0.01410674660909561,0.00020937558253977584,1.4200084209442139,2019-08-06 15:26:19:254,66.62268713647994,-10.419596768775126,0,-26.989011764526367,40.18363952636719,-48.880096435546875
0.052116937935352325,0.0011494798818603158,9.680547714233398,-0.0005727194893354142,0.014373127216536186,-0.000856149009090349,1.430009365081787,2019-08-06 15:26:19:264,61.68833131972643,-6.611019289219162,0,-26.989011764526367,40.18363952636719,-48.880096435546875
0.006616693455725908,0.04664972424507141,9.680547714233398,-0.002703768575067792,0.017036938492428433,-0.000856149009090349,1.440004825592041,2019-08-06 15:26:19:274,56.84578605593807,-2.8828034558491114,0,-26.989011764526367,40.18363952636719,-48.880096435546875
-0.024515053257346153,-0.027587516233325005,9.599126815795898,0.0007591862786478714,0.01756970178790418,-0.0019216735844658289,1.4500179290771484,2019-08-06 15:26:19:284,59.296065515354286,-6.422280919708449,0,-26.989011764526367,40.18363952636719,-48.880096435546875
-0.03169930353760719,-0.0012452697847038507,9.647021293640137,-0.002171006319889343,0.016504176237249982,0.0031395680998037635,1.4600043296813965,2019-08-06 15:26:19:294,61.69712436615853,-9.892470023392029,0,-28.038583755493164,39.43394470214844,-49.92966842651367
-0.024515053257346153,-0.01082426868379116,9.630258560180664,-0.0011054818095324445,0.01410674660909561,-5.7005565367755386e-05,1.4700019359588623,2019-08-06 15:26:19:304,64.0523457876546,-13.292712053285443,0,-28.038583755493164,39.43394470214844,-49.92966842651367
0.006616693455725908,0.0011494798818603158,9.630258560180664,-3.9957173202045016e-05,0.017303320140166306,-0.0003233867214026093,1.4800105094909668,2019-08-06 15:26:19:314,59.16236207919785,-9.426972135024151,0,-28.038583755493164,39.43394470214844,-49.92966842651367
0.006616693455725908,0.005938979331403971,9.584757804870605,-0.005101198723370813,0.011709315940643939,-0.0005897678815011245,1.4900054931640625,2019-08-06 15:26:19:324,54.37333443623862,-5.636279853716047,0,-28.038583755493164,39.43394470214844,-49.92966842651367
-0.0029623054433614016,0.0035442295484244823,9.558416366577148,-3.9957173202045016e-05,0.0183688436102259,-0.0005897678815011245,1.5000174045562744,2019-08-06 15:26:19:334,56.875186243838485,-1.9239566957552001,0,-28.038583755493164,39.43394470214844,-49.92966842651367
0.016195692121982574,0.008333728648722172,9.627863883972168,-0.0019046251923001184,0.015438651726893083,-0.000856149009090349,1.5100045204162598,2019-08-06 15:26:19:344,52.130952527627144,1.7145986183315034,0,-28.038583755493164,39.43394470214844,-49.92966842651367
-0.03409405052661896,0.0011494798818603158,9.599126815795898,-0.0019046251923001184,0.016770557884987856,0.005004236253002661,1.5200061798095703,2019-08-06 15:26:19:354,54.67484523846436,5.281239046347043,0,-28.038583755493164,39.43394470214844,-49.92966842651367
-0.005357054993510246,0.022702226415276527,9.682943344116211,-0.0024373874474785677,0.01756970178790418,0.0007421378864821609,1.53001070022583,2019-08-06 15:26:19:364,57.17084453671292,8.774296812683737,0,-28.038583755493164,39.43394470214844,-49.92966842651367
0.02816944010555744,-0.0012452697847038507,9.6901273727417,0.0010255674062370958,0.01357398435391716,0.00020937558253977584,1.5400032997131348,2019-08-06 15:26:19:374,52.42314270833721,4.998382708497439,0,-28.038583755493164,39.43394470214844,-49.92966842651367
0.018590440973639488,0.01791272684931755,9.596732139587402,0.0015583297264341264,0.014373127216536186,-0.001122530201698155,1.5500102043151855,2019-08-06 15:26:19:384,47.76882361373201,8.49540055028425,0,-28.038583755493164,39.43394470214844,-49.92966842651367
0.006616693455725908,0.013123228214681149,9.611100196838379,-0.0005727194893354142,0.015172271119452508,0.0007421378864821609,1.5599863529205322,2019-08-06 15:26:19:394,43.20573714867214,11.924248693640195,0,-28.038583755493164,39.43394470214844,-49.92966842651367
-0.012541304342448711,-0.008429518900811672,9.711679458618164,-0.002703768575067792,0.016504176237249982,0.00553699850818111,1.570021152496338,2019-08-06 15:26:19:404,45.93084329191194,8.08828179394115,0,-28.038583755493164,39.43394470214844,-49.92966842651367
0.023379940539598465,-0.008429518900811672,9.611100196838379,-3.9957173202045016e-05,0.017303320140166306,0.0020740435894468653,1.5799858570098877,2019-08-06 15:26:19:414,41.40533247388414,4.32754355211978,0,-28.038583755493164,39.43394470214844,-49.92966842651367
-0.0005675556603819132,-0.003640019567683339,9.599126815795898,-3.9957173202045016e-05,0.015971413982071532,-0.003519960350001176,1.5900273323059082,2019-08-06 15:26:19:424,44.16815294931622,0.6414497448626979,0,-27.288888931274414,39.58388137817383,-49.17997741699219
-0.010146554559469223,0.008333728648722172,9.62067985534668,0.0012919485988449018,0.012242078195822388,-0.001122530201698155,1.5999927520751953,2019-08-06 15:26:19:434,46.87673119833976,4.226905204066223,0,-27.288888931274414,39.58388137817383,-49.17997741699219
-0.02930455282330513,-0.015613768249750137,9.642231941223145,-0.0003063383292368989,0.015971413982071532,0.0010085190140713856,1.610013484954834,2019-08-06 15:26:19:444,49.52672741220268,0.5443950567866214,0,-27.288888931274414,39.58388137817383,-49.17997741699219
0.013800942339003086,0.03707072511315346,9.682943344116211,0.0007591862786478714,0.01410674660909561,0.001541281334268416,1.6199924945831299,2019-08-06 15:26:19:454,44.92992182506458,4.128694702083038,0,-27.288888931274414,39.58388137817383,-49.17997741699219
-0.0149360541254282,-0.022798016667366028,9.613494873046875,-0.002970149702657017,0.01570503337463096,0.0018076624618576407,1.6300134658813477,2019-08-06 15:26:19:464,47.62070618443553,0.4505095281814224,0,-27.288888931274414,39.58388137817383,-49.17997741699219
-0.012541304342448711,0.03946547582745552,9.642231941223145,0.0010255674062370958,0.016237795629809405,-5.7005565367755386e-05,1.6400020122528076,2019-08-06 15:26:19:474,50.257694553083006,4.036233957490393,0,-27.288888931274414,39.58388137817383,-49.17997741699219
-0.04846255108714104,-0.027587516233325005,9.584757804870605,-0.004568436468192365,0.012774840451000838,-0.0013889113292873795,1.6500136852264404,2019-08-06 15:26:19:484,52.83956529257258,0.36137568832442923,0,-27.288888931274414,39.58388137817383,-49.17997741699219
0.006616693455725908,0.015517977997660637,9.639837265014648,-0.004568436468192365,0.0183688436102259,0.00047575672638364575,1.6599953174591064,2019-08-06 15:26:19:494,48.17326539623209,3.954863968030555,0,-27.288888931274414,39.58388137817383,-49.17997741699219
0.037748441100120544,-0.008429518900811672,9.642231941223145,-0.003236530830246241,0.01357398435391716,-5.7005565367755386e-05,1.6700212955474854,2019-08-06 15:26:19:504,43.606644644673146,0.278590509743617,0,-27.288888931274414,39.58388137817383,-49.17997741699219
-0.007751804776489735,0.041860222816467285,9.699706077575684,-0.0003063383292368989,0.01570503337463096,-0.000856149009090349,1.680032730102539,2019-08-06 15:26:19:514,46.32476752163534,3.8682456019342824,0,-27.288888931274414,39.58388137817383,-49.17997741699219
-0.024515053257346153,-0.01800851710140705,9.64462661743164,-0.002171006319889343,0.015172271119452508,0.0026068058446253144,1.6900031566619873,2019-08-06 15:26:19:524,48.98686543332082,0.19423576139093335,0,-27.288888931274414,39.58388137817383,-49.17997741699219
0.018590440973639488,-0.0012452697847038507,9.623074531555176,0.0026238542367910244,0.015971413982071532,0.001541281334268416,1.7002453804016113,2019-08-06 15:26:19:534,44.40015671966597,-3.411009644306884,0,-27.288888931274414,39.58388137817383,-49.17997741699219
-0.0029623054433614016,-0.027587516233325005,9.651811599731445,-3.9957173202045016e-05,0.01756970178790418,0.004737855125413436,1.7100183963775635,2019-08-06 15:26:19:544,47.1021604486114,-6.93949219366535,0,-28.488401412963867,38.68424987792969,-48.28034210205078
-0.03169930353760719,0.005938979331403971,9.630258560180664,0.001824710854023351,0.0194343681205828,-0.006716534401220521,1.7200355529785156,2019-08-06 15:26:19:554,49.74541422334331,-3.202435366193328,0,-28.488401412963867,38.68424987792969,-48.28034210205078
-0.012541304342448711,-0.006034769117832184,9.637442588806152,0.0031566164919694735,0.020499892630939702,-5.7005565367755386e-05,1.7299985885620117,2019-08-06 15:26:19:564,52.337546634507625,-6.739434994254744,0,-28.488401412963867,38.68424987792969,-48.28034210205078
-0.019725553691387177,0.015517977997660637,9.63265323638916,-0.002703768575067792,0.017036938492428433,-0.001655292456876604,1.7399706840515137,2019-08-06 15:26:19:574,54.8789095984658,-3.0049784098418124,0,-28.488401412963867,38.68424987792969,-48.28034210205078
-0.038883551955223083,-0.015613768249750137,9.637442588806152,-0.0019046251923001184,0.01810246300278533,0.004471473997824211,1.7499809265136719,2019-08-06 15:26:19:584,57.366533162468066,-6.54195178805386,0,-28.488401412963867,38.68424987792969,-48.28034210205078
-0.0005675556603819132,-0.020403267815709114,9.670969009399414,-0.005367579850960038,0.018901606905701654,0.0018076624618576407,1.7599916458129883,2019-08-06 15:26:19:594,59.8085106462115,-10.005678048000345,0,-28.488401412963867,38.68424987792969,-48.28034210205078
-0.010146554559469223,0.013123228214681149,9.618284225463867,-0.004568436468192365,0.015971413982071532,0.00020937558253977584,1.7699799537658691,2019-08-06 15:26:19:604,62.202174138516185,-6.204565806561675,0,-28.488401412963867,38.68424987792969,-48.28034210205078
-0.017330802977085114,-0.003640019567683339,9.630258560180664,0.0012919485988449018,0.016504176237249982,-0.0019216735844658289,1.779999017715454,2019-08-06 15:26:19:614,64.54678370650747,-9.680768170649326,0,-28.488401412963867,38.68424987792969,-48.28034210205078
-0.007751804776489735,0.01791272684931755,9.606310844421387,-3.9957173202045016e-05,0.016504176237249982,0.0007421378864821609,1.789984941482544,2019-08-06 15:26:19:624,66.84566930896636,-5.8892671700406485,0,-28.488401412963867,38.68424987792969,-48.28034210205078
-0.0149360541254282,-0.006034769117832184,9.694916725158691,0.001824710854023351,0.013840364961357736,-5.7005565367755386e-05,1.799988031387329,2019-08-06 15:26:19:634,69.09921677152889,-9.371793420936424,0,-28.488401412963867,38.68424987792969,-48.28034210205078
-0.005357054993510246,0.03946547582745552,9.656600952148438,0.001824710854023351,0.01570503337463096,0.0020740435894468653,1.8101589679718018,2019-08-06 15:26:19:644,71.30762764007507,-5.5900828449492845,0,-28.488401412963867,38.68424987792969,-48.28034210205078
-0.012541304342448711,-0.013219018466770649,9.66139030456543,-0.002703768575067792,0.015172271119452508,-0.0013889113292873795,1.8199946880340576,2019-08-06 15:26:19:654,73.47160833638142,-9.075220089217812,0,-28.488401412963867,38.68424987792969,-48.28034210205078
-0.02930455282330513,-0.006034769117832184,9.635047912597656,0.002890235364380249,0.012508459843560263,-0.001655292456876604,1.8299956321716309,2019-08-06 15:26:19:664,75.59166678481087,-12.494620976766306,0,-28.488401412963867,38.68424987792969,-48.28034210205078
-0.03409405052661896,0.0035442295484244823,9.613494873046875,-0.0024373874474785677,0.017036938492428433,-0.003519960350001176,1.8399906158447266,2019-08-06 15:26:19:674,77.66620808237666,-8.643783121376103,0,-28.038583755493164,41.233211517333984,-48.130401611328125
-0.012541304342448711,0.015517977997660637,9.60391616821289,-0.003236530830246241,0.017836082395344753,-0.002987198094822727,1.8499858379364014,2019-08-06 15:26:19:684,79.70137737312767,-4.870942584834572,0,-28.038583755493164,41.233211517333984,-48.130401611328125
-0.02212030254304409,-0.006034769117832184,9.606310844421387,-0.003236530830246241,0.014639508864274061,-0.004585484860358075,1.8599979877471924,2019-08-06 15:26:19:694,81.69648109679648,-8.370984343310198,0,-28.038583755493164,41.233211517333984,-48.130401611328125
0.00422194367274642,-0.006034769117832184,9.637442588806152,0.0007591862786478714,0.013307602706179285,-0.001122530201698155,1.8699846267700195,2019-08-06 15:26:19:704,76.45559125707838,-11.803272820178112,0,-28.038583755493164,41.233211517333984,-48.130401611328125
-0.0029623054433614016,0.02509697712957859,9.680547714233398,-0.0019046251923001184,0.015971413982071532,-0.006450152753482647,1.8799993991851807,2019-08-06 15:26:19:714,78.51714759991823,-7.9691071376110525,0,-28.038583755493164,41.233211517333984,-48.130401611328125
-0.04846255108714104,0.01072847843170166,9.635047912597656,0.0007591862786478714,0.015438651726893083,0.0012749002066791914,1.8899860382080078,2019-08-06 15:26:19:724,80.53238374844092,-4.21142666631631,0,-28.038583755493164,41.233211517333984,-48.130401611328125
-0.03169930353760719,0.013123228214681149,9.618284225463867,0.004754903517579147,0.01810246300278533,0.0010085190140713856,1.8999946117401123,2019-08-06 15:26:19:734,82.50778623159151,-0.5314337850397433,0,-28.038583755493164,41.233211517333984,-48.130401611328125
0.0018271940061822534,-0.0012452697847038507,9.647021293640137,0.0004928051185493561,0.016237795629809405,0.0018076624618576407,1.9100000858306885,2019-08-06 15:26:19:744,77.24872505793972,-4.120934051598187,0,-28.038583755493164,41.233211517333984,-48.130401611328125
-0.02212030254304409,0.020307477563619614,9.716469764709473,-0.0008391006169246387,0.012774840451000838,-0.0021880547120550534,1.9199907779693604,2019-08-06 15:26:19:754,79.29397541597008,-0.4404396219271285,0,-28.038583755493164,41.233211517333984,-48.130401611328125
-0.02212030254304409,0.008333728648722172,9.680547714233398,-3.9957173202045016e-05,0.011709315940643939,0.00047575672638364575,1.9299895763397217,2019-08-06 15:26:19:764,81.29890349044695,3.1674051153966056,0,-28.038583755493164,41.233211517333984,-48.130401611328125
-0.010146554559469223,0.008333728648722172,9.66139030456543,-0.002703768575067792,0.01570503337463096,-0.0013889113292873795,1.9399871826171875,2019-08-06 15:26:19:774,83.26290571725895,6.704586367650929,0,-28.038583755493164,41.233211517333984,-48.130401611328125
0.02098519168794155,0.022702226415276527,9.623074531555176,-0.0005727194893354142,0.01357398435391716,-0.0027208169672335025,1.9499952793121338,2019-08-06 15:26:19:784,77.99251857044494,10.168113106074856,0,-28.038583755493164,41.233211517333984,-48.130401611328125
-0.0149360541254282,0.013123228214681149,9.678153038024902,-0.003236530830246241,0.017036938492428433,-0.000856149009090349,1.959984302520752,2019-08-06 15:26:19:794,80.02134402011956,13.565012337323267,0,-28.33846092224121,39.733821868896484,-48.43028259277344
-0.0029623054433614016,-0.015613768249750137,9.60391616821289,-0.002171006319889343,0.016504176237249982,-0.0003233867214026093,1.9699933528900146,2019-08-06 15:26:19:804,82.01128822520744,9.696795205603316,0,-28.33846092224121,39.733821868896484,-48.43028259277344
-0.0149360541254282,-0.0012452697847038507,9.635047912597656,-0.005633960978549262,0.014639508864274061,0.0010085190140713856,1.9799766540527344,2019-08-06 15:26:19:814,83.96107974947083,5.906165582735916,0,-28.33846092224121,39.733821868896484,-48.43028259277344
-0.02930455282330513,0.022702226415276527,9.62067985534668,-0.0024373874474785677,0.01410674660909561,-0.0027208169672335025,1.9899861812591553,2019-08-06 15:26:19:824,85.87043924546842,9.386708115995695,0,-28.33846092224121,39.733821868896484,-48.43028259277344
-0.0005675556603819132,0.022702226415276527,9.606310844421387,0.0026238542367910244,0.013041222098738713,0.0018076624618576407,1.9999938011169434,2019-08-06 15:26:19:834,87.74563454989766,12.794791447091225,0,-28.33846092224121,39.733821868896484,-48.43028259277344
0.030564190819859505,0.02509697712957859,9.656600952148438,-0.0019046251923001184,0.01810246300278533,-5.7005565367755386e-05,2.009986639022827,2019-08-06 15:26:19:844,82.3841915656635,16.136986131487546,0,-28.33846092224121,39.733821868896484,-48.43028259277344
-0.04846255108714104,0.03228122740983963,9.637442588806152,-0.0013718629371216693,0.0194343681205828,-0.0005897678815011245,2.0200021266937256,2019-08-06 15:26:19:854,84.31981619461101,19.411179598187555,0,-28.33846092224121,39.733821868896484,-48.43028259277344
0.023379940539598465,-0.008429518900811672,9.721259117126465,-0.004568436468192365,0.01357398435391716,0.00020937558253977584,2.029989242553711,2019-08-06 15:26:19:864,79.02856387547658,15.426511520599114,0,-28.33846092224121,39.733821868896484,-48.43028259277344
-0.0149360541254282,-0.013219018466770649,9.647021293640137,0.0012919485988449018,0.019700750808617978,0.0010085190140713856,2.039985179901123,2019-08-06 15:26:19:874,81.0351609785411,11.518826369654384,0,-28.33846092224121,39.733821868896484,-48.43028259277344
0.02816944010555744,-0.029982266947627068,9.678153038024902,-0.002703768575067792,0.016770557884987856,-0.0021880547120550534,2.0500009059906006,2019-08-06 15:26:19:884,75.80836162194895,7.693520350155504,0,-28.33846092224121,39.733821868896484,-48.43028259277344
0.030564190819859505,-0.015613768249750137,9.62067985534668,-0.004568436468192365,0.016770557884987856,-0.006982915528809746,2.059992551803589,2019-08-06 15:26:19:894,70.6864260880445,3.944072719502407,0,-28.33846092224121,39.733821868896484,-48.43028259277344
-0.010146554559469223,-0.01082426868379116,9.627863883972168,-0.0019046251923001184,0.01570503337463096,-0.007515677783988195,2.0699853897094727,2019-08-06 15:26:19:904,72.86267787710655,0.26754825566516116,0,-28.33846092224121,39.733821868896484,-48.43028259277344
-0.007751804776489735,-0.015613768249750137,9.654206275939941,-0.0008391006169246387,0.012242078195822388,-0.0019216735844658289,2.0799872875213623,2019-08-06 15:26:19:914,74.99762899681778,-3.3354781760830523,0,-28.33846092224121,39.733821868896484,-48.43028259277344
-0.0029623054433614016,0.01072847843170166,9.625469207763672,-0.0016382440647108938,0.013840364961357736,-0.0003233867214026093,2.0900046825408936,2019-08-06 15:26:19:924,77.08953888899427,0.3308756306621152,0,-27.288888931274414,40.18363952636719,-49.17997741699219
-0.038883551955223083,-0.03237701579928398,9.635047912597656,-0.0005727194893354142,0.01996713141605855,-0.0003233867214026093,2.099982976913452,2019-08-06 15:26:19:934,79.13193645561014,-3.271570349758326,0,-27.288888931274414,40.18363952636719,-49.17997741699219
0.0018271940061822534,0.013123228214681149,9.637442588806152,0.0010255674062370958,0.017303320140166306,0.00020937558253977584,2.1099867820739746,2019-08-06 15:26:19:944,73.93979549662251,0.391724600315126,0,-27.288888931274414,40.18363952636719,-49.17997741699219
-0.005357054993510246,-0.013219018466770649,9.658995628356934,-0.0019046251923001184,0.019167987513142228,-0.006982915528809746,2.119987964630127,2019-08-06 15:26:19:954,76.04959996941982,-3.2134720552403335,0,-27.288888931274414,40.18363952636719,-49.17997741699219
-0.005357054993510246,-0.034771766513586044,9.642231941223145,-0.004035674213013915,0.01570503337463096,0.0010085190140713856,2.1299941539764404,2019-08-06 15:26:19:964,78.11914750663408,-6.7428028091258945,0,-27.288888931274414,40.18363952636719,-49.17997741699219
0.037748441100120544,-0.022798016667366028,9.651811599731445,0.005820428027936045,0.012774840451000838,0.0018076624618576407,2.13999342918396,2019-08-06 15:26:19:974,72.95407369834192,-10.208507978934003,0,-27.288888931274414,40.18363952636719,-49.17997741699219
0.00422194367274642,-0.03956126421689987,9.572784423828125,-0.002171006319889343,0.013307602706179285,-0.004052722605179625,2.149986505508423,2019-08-06 15:26:19:984,67.88803058720332,-13.598383969652122,0,-27.288888931274414,40.18363952636719,-49.17997741699219
-0.010146554559469223,-0.01800851710140705,9.630258560180664,-0.002171006319889343,0.020233512023499125,-0.0019216735844658289,2.159996747970581,2019-08-06 15:26:19:994,70.11768989963751,-16.923053172836774,0,-27.288888931274414,40.18363952636719,-49.17997741699219
-0.026909802109003067,0.03707072511315346,9.639837265014648,-0.0024373874474785677,0.01410674660909561,0.0020740435894468653,2.1699862480163574,2019-08-06 15:26:20:004,72.30422466114268,-12.987631640223189,0,-27.288888931274414,40.18363952636719,-49.17997741699219
-0.038883551955223083,-0.02519276738166809,9.67336368560791,-0.0019046251923001184,0.01570503337463096,-0.001122530201698155,2.1799867153167725,2019-08-06 15:26:20:014,74.44471524432457,-16.32382516126126,0,-27.288888931274414,40.18363952636719,-49.17997741699219
-0.038883551955223083,-0.006034769117832184,9.658995628356934,0.0015583297264341264,0.012508459843560263,-0.0003233867214026093,2.1899993419647217,2019-08-06 15:26:20:024,76.54417557958014,-19.59750881524955,0,-27.288888931274414,40.18363952636719,-49.17997741699219
-0.007751804776489735,-0.01800851710140705,9.625469207763672,-0.003236530830246241,0.01357398435391716,-0.0024544358396442778,2.2001304626464844,2019-08-06 15:26:20:034,78.60464750206538,-22.8015735846534,0,-27.288888931274414,40.18363952636719,-49.17997741699219
-0.0005675556603819132,-0.029982266947627068,9.589548110961914,-0.0016382440647108938,0.018901606905701654,0.005270617380591885,2.2100324630737305,2019-08-06 15:26:20:044,80.62197751382844,-25.941048497333966,0,-28.63833999633789,38.53430938720703,-49.03003692626953
-0.05564679950475693,0.005938979331403971,9.594337463378906,-0.0003063383292368989,0.01810246300278533,-0.001655292456876604,2.2199864387512207,2019-08-06 15:26:20:054,82.59277404350335,-21.822765642235186,0,-28.63833999633789,38.53430938720703,-49.03003692626953
-0.04127829894423485,-0.0012452697847038507,9.623074531555176,0.0020910919816125757,0.01570503337463096,-5.7005565367755386e-05,2.2299911975860596,2019-08-06 15:26:20:064,84.52718062210012,-24.987336746740052,0,-28.63833999633789,38.53430938720703,-49.03003692626953
-0.04127829894423485,0.013123228214681149,9.635047912597656,0.004222141002326372,0.0194343681205828,0.00047575672638364575,2.2399942874908447,2019-08-06 15:26:20:074,86.42081198566237,-20.89152224167542,0,-28.63833999633789,38.53430938720703,-49.03003692626953
-0.005357054993510246,0.01791272684931755,9.579968452453613,-0.0011054818095324445,0.014905889471714633,0.001541281334268416,2.25016713142395,2019-08-06 15:26:20:084,88.28324065685065,-16.8752029840836,0,-28.63833999633789,38.53430938720703,-49.03003692626953
-0.019725553691387177,-0.008429518900811672,9.606310844421387,0.0002264239747054862,0.014905889471714633,0.005803379635770335,2.2602553367614746,2019-08-06 15:26:20:094,90.10677936799777,-20.136821644147663,0,-28.63833999633789,38.53430938720703,-49.03003692626953
-0.007751804776489735,0.0538339726626873,9.654206275939941,0.003955759874737148,0.013307602706179285,0.004471473997824211,2.2700769901275635,2019-08-06 15:26:20:104,91.89638473605368,-16.142656562078137,0,-28.63833999633789,38.53430938720703,-49.03003692626953
0.030564190819859505,0.03707072511315346,9.623074531555176,-0.0008391006169246387,0.015172271119452508,-0.003786341477590401,2.280028820037842,2019-08-06 15:26:20:114,86.45361844006155,-12.223748906163138,0,-28.63833999633789,38.53430938720703,-49.03003692626953
-0.017330802977085114,0.029886476695537567,9.635047912597656,0.0031566164919694735,0.016237795629809405,-0.0019216735844658289,2.2900161743164062,2019-08-06 15:26:20:124,88.31337891588072,-8.384598569801451,0,-28.63833999633789,38.53430938720703,-49.03003692626953
-0.017330802977085114,-0.003640019567683339,9.685338020324707,-0.006433104361316936,0.016504176237249982,0.0026068058446253144,2.3000032901763916,2019-08-06 15:26:20:134,90.13580572238925,-11.812868406093994,0,-28.63833999633789,38.53430938720703,-49.03003692626953
0.0018271940061822534,0.020307477563619614,9.680547714233398,0.0015583297264341264,0.01756970178790418,0.0028731869722145387,2.3100078105926514,2019-08-06 15:26:20:144,84.72343607519625,-7.979890287287592,0,-28.63833999633789,38.53430938720703,-49.03003692626953
0.023379940539598465,0.008333728648722172,9.606310844421387,-0.003502911957835466,0.01357398435391716,0.00020937558253977584,2.320009708404541,2019-08-06 15:26:20:154,79.42413306940898,-4.219319339790504,0,-28.63833999633789,38.53430938720703,-49.03003692626953
0.018590440973639488,0.0035442295484244823,9.64462661743164,-0.004568436468192365,0.016770557884987856,0.0007421378864821609,2.330007314682007,2019-08-06 15:26:20:164,74.2284448165159,-0.5327894998400855,0,-28.63833999633789,38.53430938720703,-49.03003692626953
-0.0005675556603819132,-0.034771766513586044,9.606310844421387,0.0010255674062370958,0.011709315940643939,-0.0024544358396442778,2.3400111198425293,2019-08-06 15:26:20:174,76.33723095095469,-4.1185619546030106,0,-27.88864517211914,39.88376235961914,-47.380706787109375
0.04014318808913231,-0.029982266947627068,9.637442588806152,-0.004568436468192365,0.013307602706179285,0.00020937558253977584,2.349991798400879,2019-08-06 15:26:20:184,71.2078016645321,-7.630065547264749,0,-27.88864517211914,39.88376235961914,-47.380706787109375
0.04972218722105026,0.005938979331403971,9.668574333190918,-0.0016382440647108938,0.014905889471714633,-0.0013889113292873795,2.3600099086761475,2019-08-06 15:26:20:194,66.18115383887708,-3.8772465839764845,0,-27.88864517211914,39.88376235961914,-47.380706787109375
0.04253793880343437,0.03228122740983963,9.692522048950195,-0.004302055340603139,0.020233512023499125,-0.000856149009090349,2.369995355606079,2019-08-06 15:26:20:204,61.25121529739049,-0.20110606070212045,0,-27.88864517211914,39.88376235961914,-47.380706787109375
0.006616693455725908,-0.020403267815709114,9.635047912597656,-0.002171006319889343,0.015971413982071532,-0.0027208169672335025,2.380037307739258,2019-08-06 15:26:20:214,56.41797237836926,-3.793433210383969,0,-27.88864517211914,39.88376235961914,-47.380706787109375
-0.0149360541254282,-0.022798016667366028,9.656600952148438,-3.9957173202045016e-05,0.016504176237249982,-0.001655292456876604,2.3900036811828613,2019-08-06 15:26:20:224,58.87860461156729,-7.314836828597107,0,-27.88864517211914,39.88376235961914,-47.380706787109375
0.00422194367274642,-0.006034769117832184,9.642231941223145,-0.002703768575067792,0.01410674660909561,-0.006450152753482647,2.400111675262451,2019-08-06 15:26:20:234,54.09352780916735,-10.766288342031398,0,-27.88864517211914,39.88376235961914,-47.380706787109375
-0.0005675556603819132,-0.003640019567683339,9.709284782409668,-0.0013718629371216693,0.017303320140166306,0.00047575672638364575,2.410001516342163,2019-08-06 15:26:20:244,56.601981505945524,-14.1497711567891,0,-27.88864517211914,39.88376235961914,-47.380706787109375
0.011406192556023598,-0.003640019567683339,9.618284225463867,-0.005101198723370813,0.015971413982071532,-0.0003233867214026093,2.420017719268799,2019-08-06 15:26:20:254,51.862318343031575,-17.46347310714125,0,-27.88864517211914,39.88376235961914,-47.380706787109375
-0.010146554559469223,-0.01082426868379116,9.66139030456543,-0.0011054818095324445,0.015971413982071532,-0.003786341477590401,2.4300034046173096,2019-08-06 15:26:20:264,54.41491342684909,-20.712299965595044,0,-27.88864517211914,39.88376235961914,-47.380706787109375
0.016195692121982574,-0.027587516233325005,9.589548110961914,0.0020910919816125757,0.01810246300278533,-0.0032535792224119516,2.4400136470794678,2019-08-06 15:26:20:274,49.71837556257675,-23.895932716969423,0,-27.88864517211914,39.88376235961914,-47.380706787109375
-0.007751804776489735,-0.027587516233325005,9.627863883972168,0.0002264239747054862,0.016770557884987856,0.0026068058446253144,2.4499895572662354,2019-08-06 15:26:20:284,52.313691464989724,-27.014857415198804,0,-27.88864517211914,39.88376235961914,-47.380706787109375
-0.005357054993510246,-0.015613768249750137,9.608705520629883,0.0015583297264341264,0.014373127216536186,-0.0024544358396442778,2.459996461868286,2019-08-06 15:26:20:294,54.85870270003762,-30.073573804979073,0,-28.038583755493164,38.83418655395508,-48.43028259277344
-0.005357054993510246,-0.003640019567683339,9.558416366577148,-0.004302055340603139,0.01810246300278533,-0.0024544358396442778,2.4700069427490234,2019-08-06 15:26:20:304,57.35071125120857,-33.069247813330655,0,-28.038583755493164,38.83418655395508,-48.43028259277344
-0.017330802977085114,-0.008429518900811672,9.651811599731445,-0.0008391006169246387,0.01570503337463096,0.003938711482571438,2.4799914360046387,2019-08-06 15:26:20:314,59.792834740695085,-36.006391635719815,0,-28.038583755493164,38.83418655395508,-48.43028259277344
-0.03409405052661896,0.03228122740983963,9.694916725158691,0.0002264239747054862,0.015971413982071532,0.0012749002066791914,2.4899964332580566,2019-08-06 15:26:20:324,62.18397581988003,-31.690206551801477,0,-28.038583755493164,38.83418655395508,-48.43028259277344
-0.012541304342448711,0.008333728648722172,9.66139030456543,-0.002703768575067792,0.017303320140166306,-0.002987198094822727,2.4999921321868896,2019-08-06 15:26:20:334,64.52909719677369,-27.455873355769686,0,-28.038583755493164,38.83418655395508,-48.43028259277344
-0.0149360541254282,0.0035442295484244823,9.630258560180664,-0.0037692930854246903,0.012508459843560263,-0.005651009370714973,2.510000228881836,2019-08-06 15:26:20:344,66.82970882604873,-23.305059454037558,0,-28.038583755493164,38.83418655395508,-48.43028259277344
-0.0029623054433614016,-0.015613768249750137,9.608705520629883,0.0023574731092018,0.01064379143028704,0.003405949227392988,2.5200083255767822,2019-08-06 15:26:20:354,69.08678005736199,-26.438420988584365,0,-28.038583755493164,38.83418655395508,-48.43028259277344
-0.0005675556603819132,-0.006034769117832184,9.587152481079102,-0.0024373874474785677,0.017836082395344753,-0.0024544358396442778,2.5299932956695557,2019-08-06 15:26:20:364,71.29497673482382,-29.507564723328105,0,-28.038583755493164,38.83418655395508,-48.43028259277344
-0.010146554559469223,0.005938979331403971,9.670969009399414,0.001824710854023351,0.017303320140166306,0.001541281334268416,2.5399911403656006,2019-08-06 15:26:20:374,73.45816123606019,-25.319141491787295,0,-28.038583755493164,38.83418655395508,-48.43028259277344
0.018590440973639488,0.027491725981235504,9.649415969848633,-0.0013718629371216693,0.014639508864274061,0.00020937558253977584,2.5499937534332275,2019-08-06 15:26:20:384,68.38298350261319,-21.215252930291705,0,-28.038583755493164,38.83418655395508,-48.43028259277344
-0.012541304342448711,-0.0012452697847038507,9.649415969848633,-0.002171006319889343,0.01756970178790418,0.0023404247170360896,2.560004711151123,2019-08-06 15:26:20:394,70.60395831801357,-24.389579636918157,0,-28.038583755493164,38.83418655395508,-48.43028259277344
0.0018271940061822534,-0.022798016667366028,9.675758361816406,0.004222141002326372,0.017303320140166306,-0.0021880547120550534,2.5699949264526367,2019-08-06 15:26:20:404,65.58238926506455,-27.50145645021967,0,-28.038583755493164,38.83418655395508,-48.43028259277344
-0.017330802977085114,-0.01082426868379116,9.678153038024902,-0.005101198723370813,0.016504176237249982,-0.001122530201698155,2.579991102218628,2019-08-06 15:26:20:414,67.85942594645051,-30.547282482669505,0,-28.038583755493164,38.83418655395508,-48.43028259277344
0.018590440973639488,-0.029982266947627068,9.682943344116211,0.0020910919816125757,0.016237795629809405,-0.0019216735844658289,2.5899925231933594,2019-08-06 15:26:20:424,62.89531869114002,-33.53396294332807,0,-28.038583755493164,39.13406753540039,-49.32991409301758
-0.04127829894423485,-0.020403267815709114,9.649415969848633,-0.002703768575067792,0.016237795629809405,0.0026068058446253144,2.599996328353882,2019-08-06 15:26:20:434,65.22338937675805,-36.45934195964062,0,-28.038583755493164,39.13406753540039,-49.32991409301758
-0.007751804776489735,-0.01800851710140705,9.651811599731445,0.0002264239747054862,0.01570503337463096,-0.000856149009090349,2.610008716583252,2019-08-06 15:26:20:444,67.50917197372966,-39.32814434804481,0,-28.038583755493164,39.13406753540039,-49.32991409301758
-0.017330802977085114,0.008333728648722172,9.670969009399414,-0.0016382440647108938,0.021032655926415452,0.0026068058446253144,2.61999249458313,2019-08-06 15:26:20:454,69.74514435536616,-34.94165054688056,0,-28.038583755493164,39.13406753540039,-49.32991409301758
0.023379940539598465,-0.006034769117832184,9.613494873046875,-0.003502911957835466,0.016237795629809405,-0.0013889113292873795,2.6299939155578613,2019-08-06 15:26:20:464,64.74390952434038,-37.84013103993195,0,-28.038583755493164,39.13406753540039,-49.32991409301758
-0.017330802977085114,0.02509697712957859,9.570389747619629,-0.0011054818095324445,0.01570503337463096,0.00020937558253977584,2.639991044998169,2019-08-06 15:26:20:474,67.03814039991292,-33.4857128634964,0,-28.038583755493164,39.13406753540039,-49.32991409301758
-0.026909802109003067,-0.006034769117832184,9.637442588806152,-0.0008391006169246387,0.01570503337463096,0.005270617380591885,2.6499950885772705,2019-08-06 15:26:20:484,69.28535603803692,-36.414809713083336,0,-28.038583755493164,39.13406753540039,-49.32991409301758
-0.0005675556603819132,-0.041956014931201935,9.692522048950195,-0.002171006319889343,0.014905889471714633,-0.0019216735844658289,2.6600050926208496,2019-08-06 15:26:20:494,71.49120380732701,-39.280332989005075,0,-28.038583755493164,39.13406753540039,-49.32991409301758
-0.04127829894423485,-0.03237701579928398,9.60391616821289,-0.003236530830246241,0.015172271119452508,-0.0032535792224119516,2.6699957847595215,2019-08-06 15:26:20:504,73.64794325666129,-42.0890475820567,0,-28.038583755493164,39.13406753540039,-49.32991409301758
-0.017330802977085114,-0.03956126421689987,9.618284225463867,-0.0003063383292368989,0.016504176237249982,0.007934428656484131,2.679993152618408,2019-08-06 15:26:20:514,75.76365498086028,-44.84238139263407,0,-28.038583755493164,39.13406753540039,-49.32991409301758
0.006616693455725908,0.013123228214681149,9.58236312866211,-0.0003063383292368989,0.020233512023499125,0.00553699850818111,2.6899943351745605,2019-08-06 15:26:20:524,70.6378107114279,-40.34693108805898,0,-28.038583755493164,39.13406753540039,-49.32991409301758
0.011406192556023598,-0.022798016667366028,9.62067985534668,0.0010255674062370958,0.017036938492428433,0.0012749002066791914,2.7000105381011963,2019-08-06 15:26:20:534,65.61683136605245,-43.13785379587236,0,-28.038583755493164,39.13406753540039,-49.32991409301758
-0.024515053257346153,-0.034771766513586044,9.642231941223145,0.0002264239747054862,0.016504176237249982,-0.0027208169672335025,2.7099931240081787,2019-08-06 15:26:20:544,67.89233035809085,-45.871091258402515,0,-28.188522338867188,39.88376235961914,-48.880096435546875
-0.026909802109003067,-0.034771766513586044,9.611100196838379,-0.003502911957835466,0.01357398435391716,-0.002987198094822727,2.71998929977417,2019-08-06 15:26:20:554,70.12365648908767,-48.5475575429587,0,-28.188522338867188,39.88376235961914,-48.880096435546875
-0.0005675556603819132,0.015517977997660637,9.584757804870605,-0.0011054818095324445,0.015172271119452508,0.0028731869722145387,2.7299935817718506,2019-08-06 15:26:20:564,72.31259264709338,-43.977840665992545,0,-28.188522338867188,39.88376235961914,-48.880096435546875
-0.005357054993510246,-0.03716651350259781,9.670969009399414,-0.003236530830246241,0.016504176237249982,0.0028731869722145387,2.7399957180023193,2019-08-06 15:26:20:574,74.4564369832417,-46.692062308791215,0,-28.188522338867188,39.88376235961914,-48.880096435546875
-0.024515053257346153,0.01791272684931755,9.60391616821289,-0.0019046251923001184,0.012508459843560263,0.003938711482571438,2.750004291534424,2019-08-06 15:26:20:584,76.5573536694519,-42.15928800117966,0,-28.188522338867188,39.88376235961914,-48.880096435546875
-0.06522579491138458,0.05143922194838524,9.637442588806152,0.0012919485988449018,0.01410674660909561,0.006069760763359559,2.759990930557251,2019-08-06 15:26:20:594,78.61054087138228,-37.722942891022875,0,-28.188522338867188,39.88376235961914,-48.880096435546875
-0.04127829894423485,-0.015613768249750137,9.680547714233398,0.0034229976195586987,0.014905889471714633,0.00047575672638364575,2.769993543624878,2019-08-06 15:26:20:604,80.62507202329658,-40.56855829676879,0,-28.188522338867188,39.88376235961914,-48.880096435546875
-0.007751804776489735,0.03228122740983963,9.639837265014648,-0.005633960978549262,0.012242078195822388,0.0026068058446253144,2.779991626739502,2019-08-06 15:26:20:614,82.60477651077282,-36.157861625183145,0,-28.188522338867188,39.88376235961914,-48.880096435546875
-0.017330802977085114,0.020307477563619614,9.67336368560791,0.003689378747147923,0.013840364961357736,0.004471473997824211,2.7899930477142334,2019-08-06 15:26:20:624,84.54285550945691,-31.8391819071931,0,-28.188522338867188,39.88376235961914,-48.880096435546875
-0.012541304342448711,0.013123228214681149,9.656600952148438,-0.0008391006169246387,0.012508459843560263,0.004205092610160662,2.8000123500823975,2019-08-06 15:26:20:634,86.44347312652727,-27.603483493110414,0,-28.188522338867188,39.88376235961914,-48.880096435546875
-0.05564679950475693,0.04425497353076935,9.663784980773926,-0.0011054818095324445,0.01570503337463096,0.0007421378864821609,2.8100550174713135,2019-08-06 15:26:20:644,88.29914925127524,-23.45603809289476,0,-28.188522338867188,39.88376235961914,-48.880096435546875
-0.0149360541254282,-0.003640019567683339,9.670969009399414,-3.9957173202045016e-05,0.01570503337463096,0.001541281334268416,2.819993734359741,2019-08-06 15:26:20:654,90.12263217753883,-26.586463725803895,0,-28.188522338867188,39.88376235961914,-48.880096435546875
-0.02212030254304409,-0.0012452697847038507,9.64462661743164,0.0023574731092018,0.021299036533856022,-0.003786341477590401,2.8299918174743652,2019-08-06 15:26:20:664,91.90559425188488,-29.655909960144733,0,-28.188522338867188,39.88376235961914,-48.880096435546875
0.00901144277304411,-0.02519276738166809,9.606310844421387,-0.0019046251923001184,0.01357398435391716,-0.0005897678815011245,2.8399956226348877,2019-08-06 15:26:20:674,86.46093264767369,-32.658716726893005,0,-28.188522338867188,40.18363952636719,-47.980464935302734
-0.02930455282330513,0.005938979331403971,9.62067985534668,-0.003236530830246241,0.015971413982071532,-0.0019216735844658289,2.850008010864258,2019-08-06 15:26:20:684,88.3192445142638,-28.404430222899542,0,-28.188522338867188,40.18363952636719,-47.980464935302734
-0.03409405052661896,0.013123228214681149,9.656600952148438,-0.004834817595781589,0.01410674660909561,0.003938711482571438,2.8599905967712402,2019-08-06 15:26:20:694,90.14090669172596,-24.235188889774456,0,-28.188522338867188,40.18363952636719,-47.980464935302734
-0.03648880124092102,0.03228122740983963,9.6901273727417,-0.004035674213013915,0.015172271119452508,-0.00778205891157742,2.869994878768921,2019-08-06 15:26:20:704,91.92525070151848,-20.152035550420926,0,-28.188522338867188,40.18363952636719,-47.980464935302734
-0.0149360541254282,0.03228122740983963,9.651811599731445,0.001824710854023351,0.01810246300278533,0.00020937558253977584,2.879997730255127,2019-08-06 15:26:20:714,93.67480499254997,-16.153852292904574,0,-28.188522338867188,40.18363952636719,-47.980464935302734
-0.02212030254304409,-0.01082426868379116,9.637442588806152,-0.0016382440647108938,0.01410674660909561,0.0012749002066791914,2.8900086879730225,2019-08-06 15:26:20:724,95.39074914048038,-19.428567335677606,0,-28.188522338867188,40.18363952636719,-47.980464935302734
0.023379940539598465,0.034675974398851395,9.658995628356934,-0.0003063383292368989,0.016237795629809405,-0.001122530201698155,2.899991989135742,2019-08-06 15:26:20:734,89.87660560648384,-15.443938108304769,0,-28.188522338867188,40.18363952636719,-47.980464935302734
-0.0149360541254282,0.008333728648722172,9.558416366577148,-0.0008391006169246387,0.012508459843560263,-0.002987198094822727,2.9100122451782227,2019-08-06 15:26:20:744,91.67024516941486,-11.535586330942225,0,-28.188522338867188,40.18363952636719,-47.980464935302734
-0.0029623054433614016,-0.02519276738166809,9.618284225463867,-0.0003063383292368989,0.01810246300278533,0.004205092610160662,2.9199929237365723,2019-08-06 15:26:20:754,93.4263424700119,-14.901701486462589,0,-28.188522338867188,40.18363952636719,-47.980464935302734
-0.005357054993510246,0.0011494798818603158,9.663784980773926,-0.002703768575067792,0.013840364961357736,-0.0024544358396442778,2.930389881134033,2019-08-06 15:26:20:765,95.14910055455907,-11.002225333195785,0,-28.188522338867188,40.18363952636719,-47.980464935302734
0.0018271940061822534,-0.034771766513586044,9.654206275939941,0.0023574731092018,0.015172271119452508,-0.0005897678815011245,2.9400055408477783,2019-08-06 15:26:20:774,89.6381436420279,-14.379326417190484,0,-28.188522338867188,40.18363952636719,-47.980464935302734
-0.010146554559469223,-0.003640019567683339,9.663784980773926,0.0012919485988449018,0.016237795629809405,0.004471473997824211,2.950059413909912,2019-08-06 15:26:20:784,91.4350109891081,-17.692037596865386,0,-28.188522338867188,40.18363952636719,-47.980464935302734
-0.012541304342448711,0.005938979331403971,9.625469207763672,-0.0024373874474785677,0.015971413982071532,0.001541281334268416,2.960000991821289,2019-08-06 15:26:20:794,93.19590218863962,-13.737543288327654,0,-28.938217163085938,38.83418655395508,-49.32991409301758
-0.005357054993510246,-0.022798016667366028,9.63265323638916,-0.0016382440647108938,0.016237795629809405,0.006868904146127233,2.9699954986572266,2019-08-06 15:26:20:804,94.92223436948102,-17.059160973167042,0,-28.938217163085938,38.83418655395508,-49.32991409301758
0.00901144277304411,-0.0012452697847038507,9.666179656982422,-0.0005727194893354142,0.02209818043677235,0.0010085190140713856,2.979994535446167,2019-08-06 15:26:20:814,89.41245107590954,-20.317508578021997,0,-28.938217163085938,38.83418655395508,-49.32991409301758
0.02816944010555744,0.005938979331403971,9.651811599731445,-0.0016382440647108938,0.011176553685465489,-0.005651009370714973,2.990028142929077,2019-08-06 15:26:20:824,84.02124976363567,-16.3109405510431,0,-28.938217163085938,38.83418655395508,-49.32991409301758
-0.0005675556603819132,0.02509697712957859,9.613494873046875,-0.002970149702657017,0.013840364961357736,-0.003786341477590401,2.999995708465576,2019-08-06 15:26:20:834,85.93301097634762,-12.386050933158696,0,-28.938217163085938,38.83418655395508,-49.32991409301758
-0.026909802109003067,0.015517977997660637,9.639837265014648,-0.0008391006169246387,0.0183688436102259,0.0031395680998037635,3.0100162029266357,2019-08-06 15:26:20:844,87.80081669957096,-8.539702460778033,0,-28.938217163085938,38.83418655395508,-49.32991409301758
-0.038883551955223083,0.020307477563619614,9.627863883972168,-0.004834817595781589,0.013307602706179285,-0.0024544358396442778,3.0199925899505615,2019-08-06 15:26:20:854,89.63271788446362,-4.768617086025619,0,-28.938217163085938,38.83418655395508,-49.32991409301758
-0.0508572980761528,0.005938979331403971,9.675758361816406,-3.9957173202045016e-05,0.01357398435391716,-0.001122530201698155,3.0299975872039795,2019-08-06 15:26:20:864,91.42641488827752,-1.073925659959584,0,-28.938217163085938,38.83418655395508,-49.32991409301758
-0.005357054993510246,-0.034771766513586044,9.64462661743164,-0.004568436468192365,0.011709315940643939,0.0007421378864821609,3.0399930477142334,2019-08-06 15:26:20:874,93.19067831768432,-4.645751789471888,0,-28.938217163085938,38.83418655395508,-49.32991409301758
-0.0149360541254282,-0.003640019567683339,9.618284225463867,-0.002703768575067792,0.016504176237249982,-0.007249296656398971,3.0499911308288574,2019-08-06 15:26:20:884,94.91581998571299,-8.150885212981054,0,-28.938217163085938,38.83418655395508,-49.32991409301758
-0.010146554559469223,-0.015613768249750137,9.680547714233398,0.0004928051185493561,0.01410674660909561,-0.001122530201698155,3.059999465942383,2019-08-06 15:26:20:894,96.60837498701358,-11.586296201592427,0,-28.938217163085938,38.83418655395508,-49.32991409301758
-0.012541304342448711,-0.01082426868379116,9.656600952148438,-0.0024373874474785677,0.015438651726893083,0.00020937558253977584,3.069993257522583,2019-08-06 15:26:20:904,98.26605585470718,-14.951918059341423,0,-28.938217163085938,38.83418655395508,-49.32991409301758
0.02098519168794155,-0.01082426868379116,9.611100196838379,-3.9957173202045016e-05,0.016504176237249982,-0.001655292456876604,3.0800065994262695,2019-08-06 15:26:20:914,92.69395732681781,-18.251566673204387,0,-28.938217163085938,38.83418655395508,-49.32991409301758
-0.024515053257346153,-0.03237701579928398,9.575179100036621,-0.0016382440647108938,0.01357398435391716,-0.0032535792224119516,3.089991807937622,2019-08-06 15:26:20:924,94.42953383224548,-21.48174210356153,0,-27.13895034790039,39.43394470214844,-47.230770111083984
0.018590440973639488,0.008333728648722172,9.615889549255371,0.0012919485988449018,0.016237795629809405,0.003672330354982212,3.099997043609619,2019-08-06 15:26:20:934,88.93403628264717,-17.4538261902366,0,-27.13895034790039,39.43394470214844,-47.230770111083984
-0.0149360541254282,-0.003640019567683339,9.675758361816406,0.001824710854023351,0.01570503337463096,0.0012749002066791914,3.1099932193756104,2019-08-06 15:26:20:944,90.74477167501645,-20.70534275393433,0,-27.13895034790039,39.43394470214844,-47.230770111083984
-0.017330802977085114,-0.015613768249750137,9.63265323638916,0.0004928051185493561,0.017836082395344753,0.0023404247170360896,3.1199944019317627,2019-08-06 15:26:20:954,92.51779842382427,-23.8896552041621,0,-27.13895034790039,39.43394470214844,-47.230770111083984
-0.007751804776489735,-0.020403267815709114,9.663784980773926,-0.0003063383292368989,0.014373127216536186,-0.0032535792224119516,3.13000750541687,2019-08-06 15:26:20:964,94.25844219286533,-27.009270484080176,0,-27.13895034790039,39.43394470214844,-47.230770111083984
0.016195692121982574,0.020307477563619614,9.63265323638916,-3.9957173202045016e-05,0.01810246300278533,0.001541281334268416,3.1399967670440674,2019-08-06 15:26:20:974,88.76504641890375,-22.87147846850751,0,-27.13895034790039,39.43394470214844,-47.230770111083984
-0.012541304342448711,-0.006034769117832184,9.630258560180664,-0.0019046251923001184,0.01756970178790418,0.00020937558253977584,3.1499905586242676,2019-08-06 15:26:20:984,90.57839394826512,-26.01226203458539,0,-27.13895034790039,39.43394470214844,-47.230770111083984
0.006616693455725908,0.0011494798818603158,9.6901273727417,-0.0024373874474785677,0.020766275318974875,0.003672330354982212,3.1599931716918945,2019-08-06 15:26:20:994,85.15594525057101,-21.89078377941584,0,-27.13895034790039,39.43394470214844,-47.230770111083984
-0.019725553691387177,0.005938979331403971,9.680547714233398,0.0004928051185493561,0.014905889471714633,-0.0005897678815011245,3.170013427734375,2019-08-06 15:26:21:004,87.04210478536193,-17.853948388517903,0,-27.13895034790039,39.43394470214844,-47.230770111083984
-0.017330802977085114,-0.003640019567683339,9.637442588806152,-0.004568436468192365,0.007713599026805571,-0.004052722605179625,3.1799919605255127,2019-08-06 15:26:21:014,88.8948801393106,-21.09387694934839,0,-27.13895034790039,39.43394470214844,-47.230770111083984
-0.03409405052661896,0.013123228214681149,9.649415969848633,-0.0037692930854246903,0.011176553685465489,-0.004585484860358075,3.1899943351745605,2019-08-06 15:26:21:024,90.70665660731557,-17.0714409017532,0,-27.13895034790039,39.43394470214844,-47.230770111083984
-0.005357054993510246,0.01072847843170166,9.635047912597656,-0.0024373874474785677,0.012774840451000838,-0.0019216735844658289,3.1999921798706055,2019-08-06 15:26:21:034,92.48471484041234,-13.129919747905376,0,-27.13895034790039,39.43394470214844,-47.230770111083984
-0.005357054993510246,-0.013219018466770649,9.66139030456543,-0.0019046251923001184,0.020233512023499125,-5.7005565367755386e-05,3.209993600845337,2019-08-06 15:26:21:044,94.22302245167707,-16.46468387970934,0,-27.88864517211914,39.88376235961914,-48.58021926879883
-0.02930455282330513,-0.0012452697847038507,9.675758361816406,-0.0005727194893354142,0.015438651726893083,0.001541281334268416,3.2200100421905518,2019-08-06 15:26:21:054,95.92640839345702,-19.734920612880288,0,-27.88864517211914,39.88376235961914,-48.58021926879883
-0.03648880124092102,-0.006034769117832184,9.647021293640137,-0.0037692930854246903,0.01810246300278533,0.00020937558253977584,3.2299952507019043,2019-08-06 15:26:21:064,97.59339647254693,-22.93739204192674,0,-27.88864517211914,39.88376235961914,-48.58021926879883
-0.005357054993510246,0.0011494798818603158,9.635047912597656,0.0012919485988449018,0.013041222098738713,0.0018076624618576407,3.239992141723633,2019-08-06 15:26:21:074,99.23357106598414,-18.87950611288385,0,-27.88864517211914,39.88376235961914,-48.58021926879883
0.03535369038581848,-0.013219018466770649,9.654206275939941,0.0023574731092018,0.01570503337463096,0.0026068058446253144,3.249994993209839,2019-08-06 15:26:21:084,93.6442750978449,-22.101671042496612,0,-27.88864517211914,39.88376235961914,-48.58021926879883
0.03535369038581848,0.03707072511315346,9.694916725158691,0.004222141002326372,0.01863522629826108,0.003405949227392988,3.2599940299987793,2019-08-06 15:26:21:094,88.16510565129299,-18.066389767964566,0,-27.88864517211914,39.88376235961914,-48.58021926879883
0.013800942339003086,0.0011494798818603158,9.642231941223145,-0.0013718629371216693,0.017036938492428433,0.0010085190140713856,3.2699944972991943,2019-08-06 15:26:21:104,82.79387702319474,-14.104428245529064,0,-27.88864517211914,39.88376235961914,-48.58021926879883
-0.0005675556603819132,0.0011494798818603158,9.697311401367188,-0.0008391006169246387,0.013307602706179285,0.0007421378864821609,3.2800073623657227,2019-08-06 15:26:21:114,84.73045060175033,-10.222003752797553,0,-27.88864517211914,39.88376235961914,-48.58021926879883
0.023379940539598465,-0.034771766513586044,9.59194278717041,-0.004302055340603139,0.013307602706179285,0.0018076624618576407,3.2899909019470215,2019-08-06 15:26:21:124,79.4311748020032,-13.610998013530004,0,-27.88864517211914,39.88376235961914,-48.58021926879883
0.0018271940061822534,0.013123228214681149,9.62067985534668,-0.003502911957835466,0.013307602706179285,-0.0021880547120550534,3.299994707107544,2019-08-06 15:26:21:134,74.23529389825401,-9.738373526382071,0,-27.88864517211914,39.88376235961914,-48.58021926879883
0.03295893967151642,-0.006034769117832184,9.666179656982422,0.0031566164919694735,0.013307602706179285,0.0031395680998037635,3.309993028640747,2019-08-06 15:26:21:144,69.14702430669347,-13.144662778684015,0,-27.88864517211914,39.88376235961914,-48.58021926879883
-0.019725553691387177,0.029886476695537567,9.651811599731445,-0.002703768575067792,0.013840364961357736,-0.0013889113292873795,3.3199996948242188,2019-08-06 15:26:21:154,71.35396537214172,-9.283798622490071,0,-27.88864517211914,39.88376235961914,-48.58021926879883
0.016195692121982574,-0.015613768249750137,9.668574333190918,-0.0003063383292368989,0.015971413982071532,-5.7005565367755386e-05,3.3300070762634277,2019-08-06 15:26:21:164,66.31983102306357,-12.69609997851464,0,-27.88864517211914,39.88376235961914,-48.58021926879883
0.030564190819859505,-0.03237701579928398,9.618284225463867,-0.0005727194893354142,0.016770557884987856,0.0028731869722145387,3.339991807937622,2019-08-06 15:26:21:174,61.38767351866517,-16.037999528502727,0,-28.038583755493164,39.43394470214844,-47.230770111083984
0.023379940539598465,-0.01082426868379116,9.625469207763672,0.005820428027936045,0.01863522629826108,0.004737855125413436,3.3499929904937744,2019-08-06 15:26:21:184,56.5522385416006,-19.319219454270414,0,-28.038583755493164,39.43394470214844,-47.230770111083984
0.025774691253900528,-0.006034769117832184,9.627863883972168,0.0023574731092018,0.0183688436102259,0.0071352852737164565,3.3599932193756104,2019-08-06 15:26:21:194,51.813947169788634,-22.533440550766723,0,-28.038583755493164,39.43394470214844,-47.230770111083984
-0.010146554559469223,-0.006034769117832184,9.654206275939941,0.0002264239747054862,0.016504176237249982,0.00047575672638364575,3.369990110397339,2019-08-06 15:26:21:204,54.367199680092064,-25.6821825341653,0,-28.038583755493164,39.43394470214844,-47.230770111083984
-0.007751804776489735,0.005938979331403971,9.59194278717041,-0.0037692930854246903,0.014373127216536186,0.001541281334268416,3.3800137042999268,2019-08-06 15:26:21:214,56.8708400730904,-21.56712694583857,0,-28.038583755493164,39.43394470214844,-47.230770111083984
-0.010146554559469223,0.03707072511315346,9.635047912597656,-0.0003063383292368989,0.01357398435391716,0.00047575672638364575,3.390000343322754,2019-08-06 15:26:21:224,59.324604931662954,-17.54002150218789,0,-28.038583755493164,39.43394470214844,-47.230770111083984
-0.007751804776489735,0.022702226415276527,9.572784423828125,0.003689378747147923,0.015971413982071532,0.005270617380591885,3.399994134902954,2019-08-06 15:26:21:234,61.72822253949222,-13.594008944963399,0,-28.038583755493164,39.43394470214844,-47.230770111083984
-0.02930455282330513,0.008333728648722172,9.613494873046875,-0.003502911957835466,0.014639508864274061,-0.0013889113292873795,3.4099948406219482,2019-08-06 15:26:21:244,64.0819443920364,-9.721155115897878,0,-28.038583755493164,39.43394470214844,-47.230770111083984
-0.010146554559469223,-0.006034769117832184,9.678153038024902,0.0010255674062370958,0.017303320140166306,-0.0032535792224119516,3.420008897781372,2019-08-06 15:26:21:254,66.38937468087286,-13.126594147313446,0,-28.038583755493164,39.43394470214844,-47.230770111083984
0.02098519168794155,-0.01082426868379116,9.630258560180664,-0.0016382440647108938,0.017036938492428433,-0.002987198094822727,3.4299943447113037,2019-08-06 15:26:21:264,61.454531939506246,-16.461855739558303,0,-28.038583755493164,39.43394470214844,-47.230770111083984
0.00901144277304411,-0.05153501406311989,9.611100196838379,0.0015583297264341264,0.012508459843560263,0.00020937558253977584,3.4399919509887695,2019-08-06 15:26:21:274,56.61949391787407,-19.72734903967882,0,-28.038583755493164,39.43394470214844,-47.230770111083984
-0.019725553691387177,0.0011494798818603158,9.627863883972168,-0.0005727194893354142,0.017836082395344753,-0.005917390498304197,3.449993133544922,2019-08-06 15:26:21:284,59.07474017227018,-15.732617251600715,0,-28.038583755493164,39.43394470214844,-47.230770111083984
-0.024515053257346153,-0.003640019567683339,9.630258560180664,0.0010255674062370958,0.014373127216536186,0.001541281334268416,3.459993600845337,2019-08-06 15:26:21:294,61.48225743211279,-19.018107658069034,0,-26.989011764526367,39.58388137817383,-47.68058776855469
0.016195692121982574,-0.0012452697847038507,9.637442588806152,0.0015583297264341264,0.015172271119452508,0.009532715422019479,3.4700069427490234,2019-08-06 15:26:21:304,56.64600741338751,-22.238473606710564,0,-26.989011764526367,39.58388137817383,-47.68058776855469
-0.007751804776489735,-0.020403267815709114,9.658995628356934,-0.003502911957835466,0.014905889471714633,-0.004585484860358075,3.479995012283325,2019-08-06 15:26:21:314,59.103807962101286,-25.389319019174113,0,-26.989011764526367,39.58388137817383,-47.68058776855469
-0.03409405052661896,-0.03237701579928398,9.630258560180664,0.0012919485988449018,0.015971413982071532,0.0026068058446253144,3.4899919033050537,2019-08-06 15:26:21:324,61.50870979024492,-28.47840527664274,0,-26.989011764526367,39.58388137817383,-47.68058776855469
0.013800942339003086,0.0035442295484244823,9.649415969848633,0.0034229976195586987,0.016504176237249982,0.0012749002066791914,3.49999737739563,2019-08-06 15:26:21:334,56.67090237770293,-24.311181126406275,0,-26.989011764526367,39.58388137817383,-47.68058776855469
-0.005357054993510246,0.03228122740983963,9.601521492004395,0.0004928051185493561,0.017836082395344753,0.009532715422019479,3.509995937347412,2019-08-06 15:26:21:344,59.12683148641295,-20.229086835995282,0,-26.989011764526367,39.58388137817383,-47.68058776855469
-0.0005675556603819132,0.0538339726626873,9.635047912597656,0.0007591862786478714,0.011176553685465489,-0.0021880547120550534,3.520017147064209,2019-08-06 15:26:21:354,61.53793842605345,-16.23133480128447,0,-26.989011764526367,39.58388137817383,-47.68058776855469
-0.010146554559469223,0.01072847843170166,9.678153038024902,-0.0016382440647108938,0.014639508864274061,0.004471473997824211,3.529996156692505,2019-08-06 15:26:21:364,63.89777547247856,-12.307060440304321,0,-26.989011764526367,39.58388137817383,-47.68058776855469
-0.026909802109003067,0.04425497353076935,9.608705520629883,-0.002970149702657017,0.015971413982071532,-0.0027208169672335025,3.539992570877075,2019-08-06 15:26:21:374,66.20764604911012,-8.464529819521147,0,-26.989011764526367,39.58388137817383,-47.68058776855469
-0.019725553691387177,0.027491725981235504,9.606310844421387,-0.006433104361316936,0.01570503337463096,0.0018076624618576407,3.5499966144561768,2019-08-06 15:26:21:384,68.47231819308908,-4.69490500145398,0,-26.989011764526367,39.58388137817383,-47.68058776855469
-0.012541304342448711,-0.01800851710140705,9.613494873046875,-0.003502911957835466,0.014905889471714633,0.003938711482571438,3.560011863708496,2019-08-06 15:26:21:394,70.69299452383011,-8.196890433403897,0,-26.989011764526367,39.58388137817383,-47.68058776855469
-0.005357054993510246,0.020307477563619614,9.635047912597656,0.0010255674062370958,0.014639508864274061,-0.001655292456876604,3.569993019104004,2019-08-06 15:26:21:404,72.87029293419451,-4.435942599760303,0,-26.989011764526367,39.58388137817383,-47.68058776855469
-0.019725553691387177,0.0035442295484244823,9.623074531555176,-0.003502911957835466,0.017036938492428433,-0.005118247115536523,3.5799927711486816,2019-08-06 15:26:21:414,75.00097217954239,-0.7456789630267973,0,-26.989011764526367,39.58388137817383,-47.68058776855469
-0.03409405052661896,-0.041956014931201935,9.623074531555176,0.001824710854023351,0.01570503337463096,0.0023404247170360896,3.5899903774261475,2019-08-06 15:26:21:424,77.08807658984536,-4.32679362111715,0,-28.488401412963867,40.18363952636719,-48.880096435546875
-0.017330802977085114,0.015517977997660637,9.60391616821289,-0.0019046251923001184,0.013041222098738713,-0.0027208169672335025,3.6000001430511475,2019-08-06 15:26:21:434,79.13691741215955,-0.6410388251117975,0,-28.488401412963867,40.18363952636719,-48.880096435546875
0.006616693455725908,-0.03716651350259781,9.647021293640137,-0.005633960978549262,0.01410674660909561,0.006069760763359559,3.6100077629089355,2019-08-06 15:26:21:444,73.94703806907116,-4.220637396686876,0,-28.488401412963867,40.18363952636719,-48.880096435546875
-0.046067800372838974,0.01072847843170166,9.685338020324707,-0.0003063383292368989,0.012508459843560263,0.00047575672638364575,3.6199896335601807,2019-08-06 15:26:21:454,76.05563611155527,-0.5373222857096636,0,-28.488401412963867,40.18363952636719,-48.880096435546875
-0.017330802977085114,-0.022798016667366028,9.627863883972168,-0.002970149702657017,0.015438651726893083,-0.005651009370714973,3.6299936771392822,2019-08-06 15:26:21:464,78.12378837913911,-4.1221939986230325,0,-28.488401412963867,40.18363952636719,-48.880096435546875
-0.04367304965853691,-0.020403267815709114,9.639837265014648,0.002890235364380249,0.0183688436102259,-0.004052722605179625,3.6399950981140137,2019-08-06 15:26:21:474,80.14580555790303,-7.638947820107571,0,-28.488401412963867,40.18363952636719,-48.880096435546875
-0.005357054993510246,-0.013219018466770649,9.64462661743164,0.0004928051185493561,0.011975696548084513,0.0010085190140713856,3.649993896484375,2019-08-06 15:26:21:484,82.13552942497721,-11.084874937857737,0,-28.488401412963867,40.18363952636719,-48.880096435546875
-0.03648880124092102,0.013123228214681149,9.63265323638916,-0.002171006319889343,0.015971413982071532,-0.0021880547120550534,3.660008192062378,2019-08-06 15:26:21:494,84.07949734462488,-7.263517838268598,0,-28.488401412963867,40.18363952636719,-48.880096435546875
-0.005357054993510246,0.0035442295484244823,9.682943344116211,-0.0011054818095324445,0.015172271119452508,0.0020740435894468653,3.6700003147125244,2019-08-06 15:26:21:504,85.98876092524269,-3.5180466812499467,0,-28.488401412963867,40.18363952636719,-48.880096435546875
-0.019725553691387177,0.01791272684931755,9.654206275939941,-3.9957173202045016e-05,0.014639508864274061,-0.008847582901785668,3.6799941062927246,2019-08-06 15:26:21:514,87.85842940488885,0.15021050790252488,0,-28.488401412963867,40.18363952636719,-48.880096435546875
-0.0029623054433614016,-0.015613768249750137,9.649415969848633,-3.9957173202045016e-05,0.017036938492428433,-0.004585484860358075,3.689993143081665,2019-08-06 15:26:21:524,89.69134373211436,-3.450917058387692,0,-28.488401412963867,40.18363952636719,-48.880096435546875
-0.0149360541254282,-0.006034769117832184,9.663784980773926,-0.0037692930854246903,0.016237795629809405,-0.004851865987947299,3.700007438659668,2019-08-06 15:26:21:534,91.48661523222022,-6.979063645872861,0,-28.488401412963867,40.18363952636719,-48.880096435546875
-0.010146554559469223,-0.008429518900811672,9.66139030456543,0.0015583297264341264,0.014905889471714633,-0.00431910373276885,3.709995746612549,2019-08-06 15:26:21:544,93.24731961735992,-10.439356544058654,0,-26.989011764526367,39.58388137817383,-47.380706787109375
-0.007751804776489735,-0.0012452697847038507,9.642231941223145,0.0012919485988449018,0.016237795629809405,-0.0032535792224119516,3.719993829727173,2019-08-06 15:26:21:554,94.97233622197543,-13.831146709412074,0,-26.989011764526367,39.58388137817383,-47.380706787109375
0.011406192556023598,0.01791272684931755,9.668574333190918,0.0004928051185493561,0.015172271119452508,0.0012749002066791914,3.729994535446167,2019-08-06 15:26:21:564,89.46572154351637,-9.956923510998653,0,-26.989011764526367,39.58388137817383,-47.380706787109375
0.011406192556023598,-0.01082426868379116,9.63265323638916,-3.9957173202045016e-05,0.01756970178790418,-0.0013889113292873795,3.7399981021881104,2019-08-06 15:26:21:574,84.06789512826485,-13.356474925380564,0,-26.989011764526367,39.58388137817383,-47.380706787109375
0.006616693455725908,-0.02519276738166809,9.630258560180664,-0.0016382440647108938,0.015438651726893083,-0.004585484860358075,3.750004291534424,2019-08-06 15:26:21:584,78.77865040622756,-16.685427276065973,0,-26.989011764526367,39.58388137817383,-47.380706787109375
0.00901144277304411,0.029886476695537567,9.649415969848633,-0.0005727194893354142,0.014905889471714633,0.004471473997824211,3.759995222091675,2019-08-06 15:26:21:594,73.59578550506747,-12.754946595690335,0,-26.989011764526367,39.58388137817383,-47.380706787109375
0.03295893967151642,0.01791272684931755,9.654206275939941,-0.0037692930854246903,0.016504176237249982,-5.7005565367755386e-05,3.7699923515319824,2019-08-06 15:26:21:604,68.5185174614748,-8.89985798482042,0,-26.989011764526367,39.58388137817383,-47.380706787109375
0.02816944010555744,0.013123228214681149,9.680547714233398,0.0023574731092018,0.017836082395344753,0.004205092610160662,3.7799978256225586,2019-08-06 15:26:21:614,63.54146118604311,-5.12473870278072,0,-26.989011764526367,39.58388137817383,-47.380706787109375
-0.017330802977085114,-0.006034769117832184,9.647021293640137,0.0002264239747054862,0.0194343681205828,0.0026068058446253144,3.7900054454803467,2019-08-06 15:26:21:624,65.85765264926052,-8.621654326048604,0,-26.989011764526367,39.58388137817383,-47.380706787109375
-0.024515053257346153,0.02509697712957859,9.618284225463867,-0.0008391006169246387,0.014373127216536186,-0.0019216735844658289,3.7999913692474365,2019-08-06 15:26:21:634,68.1295197653053,-4.8517407782263104,0,-26.989011764526367,39.58388137817383,-47.380706787109375
0.025774691253900528,0.020307477563619614,9.668574333190918,-0.0013718629371216693,0.014905889471714633,0.0012749002066791914,3.809993028640747,2019-08-06 15:26:21:644,63.16161314342746,-1.1563423663032784,0,-26.989011764526367,39.58388137817383,-47.380706787109375
0.030564190819859505,-0.027587516233325005,9.70210075378418,0.002890235364380249,0.013041222098738713,-0.0013889113292873795,3.8199915885925293,2019-08-06 15:26:21:654,58.294669232707676,-4.731579794403353,0,-26.989011764526367,39.58388137817383,-47.380706787109375
-0.010146554559469223,-0.013219018466770649,9.70210075378418,-0.002970149702657017,0.01863522629826108,-0.0021880547120550534,3.8299942016601562,2019-08-06 15:26:21:664,60.71711105000785,-8.233718729762828,0,-26.989011764526367,39.58388137817383,-47.380706787109375
0.023379940539598465,-0.003640019567683339,9.670969009399414,-0.0011054818095324445,0.01570503337463096,0.004205092610160662,3.84000563621521,2019-08-06 15:26:21:674,55.896710680476914,-11.667991612033898,0,-26.989011764526367,40.18363952636719,-47.68058776855469
0.00901144277304411,0.0035442295484244823,9.623074531555176,-0.003236530830246241,0.016770557884987856,0.0028731869722145387,3.8499958515167236,2019-08-06 15:26:21:684,51.17044211751421,-7.833238297106481,0,-26.989011764526367,40.18363952636719,-47.68058776855469
-0.005357054993510246,-0.006034769117832184,9.567995071411133,0.0002264239747054862,0.015438651726893083,-0.001655292456876604,3.8599977493286133,2019-08-06 15:26:21:694,53.737721257822365,-11.275977935079137,0,-26.989011764526367,40.18363952636719,-47.68058776855469
0.025774691253900528,0.0011494798818603158,9.6901273727417,-0.0016382440647108938,0.0194343681205828,0.0023404247170360896,3.8699958324432373,2019-08-06 15:26:21:704,49.05510455759035,-7.449674613772322,0,-26.989011764526367,40.18363952636719,-47.68058776855469
0.03295893967151642,0.008333728648722172,9.596732139587402,-0.0005727194893354142,0.016237795629809405,0.005004236253002661,3.8799924850463867,2019-08-06 15:26:21:714,44.46882352609068,-3.701354751996055,0,-26.989011764526367,40.18363952636719,-47.68058776855469
0.013800942339003086,-0.013219018466770649,9.606310844421387,0.0007591862786478714,0.016770557884987856,-0.0021880547120550534,3.890019655227661,2019-08-06 15:26:21:724,39.97165110771931,-7.22617823073163,0,-26.989011764526367,40.18363952636719,-47.68058776855469
-0.024515053257346153,0.034675974398851395,9.704495429992676,-0.002171006319889343,0.01810246300278533,0.004737855125413436,3.900068521499634,2019-08-06 15:26:21:734,42.75910915357412,-3.484524245108098,0,-26.989011764526367,40.18363952636719,-47.68058776855469
-0.0005675556603819132,0.005938979331403971,9.639837265014648,0.0007591862786478714,0.01810246300278533,0.006336141890948784,3.9099886417388916,2019-08-06 15:26:21:744,45.493776189011626,0.18403737914545415,0,-26.989011764526367,40.18363952636719,-47.68058776855469
0.016195692121982574,0.01072847843170166,9.687732696533203,-0.002171006319889343,0.017036938492428433,0.006868904146127233,3.919995069503784,2019-08-06 15:26:21:754,40.97624400772731,3.780307412303042,0,-26.989011764526367,40.18363952636719,-47.68058776855469
-0.026909802109003067,0.008333728648722172,9.627863883972168,-0.0016382440647108938,0.012508459843560263,0.0026068058446253144,3.929994583129883,2019-08-06 15:26:21:764,43.74649316947874,7.304629204734967,0,-26.989011764526367,40.18363952636719,-47.68058776855469
-0.024515053257346153,-0.02519276738166809,9.64462661743164,-0.0003063383292368989,0.01410674660909561,-0.002987198094822727,3.940013885498047,2019-08-06 15:26:21:774,46.460714375286635,3.5617022050561435,0,-26.989011764526367,40.18363952636719,-47.68058776855469
0.011406192556023598,-0.03237701579928398,9.67336368560791,0.0007591862786478714,0.01357398435391716,0.003405949227392988,3.949998140335083,2019-08-06 15:26:21:784,41.9252415021156,-0.1061220530673368,0,-26.989011764526367,40.18363952636719,-47.68058776855469
0.011406192556023598,-0.015613768249750137,9.637442588806152,0.0007591862786478714,0.021032655926415452,0.0028731869722145387,3.959993600845337,2019-08-06 15:26:21:794,37.476288449112936,-3.702569186795101,0,-28.188522338867188,39.28400421142578,-48.58021926879883
0.013800942339003086,-0.01800851710140705,9.663784980773926,0.0020910919816125757,0.021032655926415452,0.006069760763359559,3.969991445541382,2019-08-06 15:26:21:804,33.11659190955464,-7.22755627768848,0,-28.188522338867188,39.28400421142578,-48.58021926879883
-0.024515053257346153,-0.01800851710140705,9.678153038024902,-3.9957173202045016e-05,0.01863522629826108,-0.000856149009090349,3.9800126552581787,2019-08-06 15:26:21:814,36.04087159153144,-10.680850421246783,0,-28.188522338867188,39.28400421142578,-48.58021926879883
-0.0029623054433614016,-0.03716651350259781,9.718864440917969,-0.0003063383292368989,0.01570503337463096,-0.0019216735844658289,3.989992618560791,2019-08-06 15:26:21:824,38.91090419936492,-14.062679603253464,0,-28.188522338867188,39.28400421142578,-48.58021926879883
0.02098519168794155,-0.0012452697847038507,9.59194278717041,-3.9957173202045016e-05,0.016237795629809405,0.00020937558253977584,3.9999935626983643,2019-08-06 15:26:21:834,34.52607477728183,-17.38125480518137,0,-28.188522338867188,39.28400421142578,-48.58021926879883
0.02098519168794155,-0.003640019567683339,9.608705520629883,0.0012919485988449018,0.011975696548084513,-0.000856149009090349,4.009994268417358,2019-08-06 15:26:21:844,30.2313311191653,-20.633921085997425,0,-28.188522338867188,39.28400421142578,-48.58021926879883
0.05690643563866615,-0.029982266947627068,9.670969009399414,0.0012919485988449018,0.017303320140166306,-0.0019216735844658289,4.019992351531982,2019-08-06 15:26:21:854,26.02373334876061,-23.818415357507956,0,-28.188522338867188,39.28400421142578,-48.58021926879883
0.05690643563866615,-0.015613768249750137,9.630258560180664,-0.0008391006169246387,0.016770557884987856,0.007934428656484131,4.030011892318726,2019-08-06 15:26:21:864,21.9005949191867,-26.93971707713952,0,-28.188522338867188,39.28400421142578,-48.58021926879883
0.011406192556023598,-0.027587516233325005,9.670969009399414,-0.0019046251923001184,0.01357398435391716,-5.7005565367755386e-05,4.040072441101074,2019-08-06 15:26:21:874,17.856266620192606,-29.996577972802562,0,-28.188522338867188,39.28400421142578,-48.58021926879883
0.0018271940061822534,-0.008429518900811672,9.658995628356934,-0.005633960978549262,0.014905889471714633,0.004737855125413436,4.049997568130493,2019-08-06 15:26:21:884,13.891051090153347,-32.99250658396192,0,-28.188522338867188,39.28400421142578,-48.58021926879883
-0.024515053257346153,-0.01800851710140705,9.594337463378906,0.001824710854023351,0.016770557884987856,0.0026068058446253144,4.059994220733643,2019-08-06 15:26:21:894,17.20088858541494,-35.931529807429555,0,-28.188522338867188,39.28400421142578,-48.58021926879883
-0.04127829894423485,-0.003640019567683339,9.635047912597656,-0.0016382440647108938,0.014373127216536186,-5.7005565367755386e-05,4.069994211196899,2019-08-06 15:26:21:904,20.443891049106753,-38.81154642553136,0,-28.188522338867188,39.28400421142578,-48.58021926879883
-0.04846255108714104,0.022702226415276527,9.649415969848633,-0.002970149702657017,0.016237795629809405,-0.0019216735844658289,4.080014705657959,2019-08-06 15:26:21:914,23.62012192431733,-34.43634034010522,0,-28.188522338867188,39.28400421142578,-48.58021926879883
-0.046067800372838974,-0.015613768249750137,9.60391616821289,-0.0011054818095324445,0.015438651726893083,-0.0003233867214026093,4.090021848678589,2019-08-06 15:26:21:924,26.733547857603615,-37.34512936870847,0,-28.188522338867188,39.28400421142578,-48.58021926879883
-0.024515053257346153,0.01791272684931755,9.692522048950195,-0.002970149702657017,0.011176553685465489,0.0012749002066791914,4.099991321563721,2019-08-06 15:26:21:934,29.789722109001023,-32.99868189888624,0,-28.188522338867188,39.28400421142578,-48.58021926879883
-0.038883551955223083,0.029886476695537567,9.613494873046875,-0.005900342106138487,0.017303320140166306,-0.003786341477590401,4.110001087188721,2019-08-06 15:26:21:944,32.779567546487904,-28.738954407595596,0,-28.188522338867188,39.28400421142578,-48.58021926879883
-0.06522579491138458,-0.006034769117832184,9.668574333190918,-0.0024373874474785677,0.015172271119452508,-0.006982915528809746,4.12000846862793,2019-08-06 15:26:21:954,35.707720279529134,-31.762090481146103,0,-28.188522338867188,39.28400421142578,-48.58021926879883
-0.02212030254304409,0.0035442295484244823,9.675758361816406,-0.003502911957835466,0.01756970178790418,-0.0013889113292873795,4.129990577697754,2019-08-06 15:26:21:964,38.581098421981835,-27.525305058931682,0,-28.188522338867188,39.28400421142578,-48.58021926879883
-0.03648880124092102,0.03946547582745552,9.627863883972168,0.0034229976195586987,0.013041222098738713,-0.006450152753482647,4.139995813369751,2019-08-06 15:26:21:974,41.39780708745699,-23.381419156823682,0,-28.188522338867188,39.28400421142578,-48.58021926879883
-0.04127829894423485,0.041860222816467285,9.627863883972168,-0.0013718629371216693,0.017036938492428433,-0.001655292456876604,4.149996995925903,2019-08-06 15:26:21:984,44.155370652629756,-19.318002587186793,0,-28.188522338867188,39.28400421142578,-48.58021926879883
-0.08438379317522049,0.0035442295484244823,9.66139030456543,-0.005367579850960038,0.009844647527370716,-0.008581202294345095,4.159993410110474,2019-08-06 15:26:21:994,46.85672914971667,-15.329050100394614,0,-28.188522338867188,39.28400421142578,-48.58021926879883
-0.03409405052661896,0.005938979331403971,9.711679458618164,-0.0003063383292368989,0.017836082395344753,-0.004585484860358075,4.170006036758423,2019-08-06 15:26:22:004,49.505544123500826,-11.422997633843211,0,-28.188522338867188,39.28400421142578,-48.58021926879883
-0.02212030254304409,0.008333728648722172,9.630258560180664,0.0007591862786478714,0.015971413982071532,0.0010085190140713856,4.179989337921143,2019-08-06 15:26:22:014,52.103848173486696,-7.595954891138149,0,-28.188522338867188,39.28400421142578,-48.58021926879883
-0.03409405052661896,-0.003640019567683339,9.67336368560791,-0.0003063383292368989,0.0183688436102259,-0.00831482116675587,4.189996004104614,2019-08-06 15:26:22:024,54.64741145780126,-11.043432470039116,0,-28.188522338867188,39.28400421142578,-48.58021926879883
-0.024515053257346153,0.013123228214681149,9.64462661743164,-0.005633960978549262,0.0194343681205828,-0.0024544358396442778,4.199992895126343,2019-08-06 15:26:22:034,57.14064152749572,-7.220960563538533,0,-28.188522338867188,39.28400421142578,-48.58021926879883
-0.03648880124092102,0.049044474959373474,9.630258560180664,-0.00723224826423326,0.01863522629826108,-0.003519960350001176,4.210005521774292,2019-08-06 15:26:22:044,59.583010006818384,-3.478311135432224,0,-29.238094329833984,39.43394470214844,-49.32991409301758
-0.04127829894423485,0.008333728648722172,9.639837265014648,-0.0019046251923001184,0.020766275318974875,-0.000856149009090349,4.220036029815674,2019-08-06 15:26:22:054,61.97474715637557,0.19133713999543334,0,-29.238094329833984,39.43394470214844,-49.32991409301758
-0.060436297208070755,-0.01800851710140705,9.59194278717041,0.0004928051185493561,0.016504176237249982,-5.7005565367755386e-05,4.229994773864746,2019-08-06 15:26:22:064,64.31880335710912,-3.4106137590922088,0,-29.238094329833984,39.43394470214844,-49.32991409301758
-0.019725553691387177,0.01072847843170166,9.615889549255371,-0.003502911957835466,0.015172271119452508,0.001541281334268416,4.239993095397949,2019-08-06 15:26:22:074,66.6215588398107,0.25828656512933046,0,-29.238094329833984,39.43394470214844,-49.32991409301758
0.013800942339003086,0.02509697712957859,9.601521492004395,-0.002703768575067792,0.016770557884987856,0.005803379635770335,4.249992609024048,2019-08-06 15:26:22:084,61.681358579546504,3.8516436729236765,0,-29.238094329833984,39.43394470214844,-49.32991409301758
0.011406192556023598,0.015517977997660637,9.615889549255371,-0.0005727194893354142,0.013840364961357736,0.0018076624618576407,4.2600157260894775,2019-08-06 15:26:22:094,56.841301360298075,7.373083864333001,0,-29.238094329833984,39.43394470214844,-49.32991409301758
-0.026909802109003067,0.013123228214681149,9.714075088500977,-0.004834817595781589,0.015971413982071532,-0.0021880547120550534,4.269989728927612,2019-08-06 15:26:22:104,59.2923563278742,10.826781799439814,0,-29.238094329833984,39.43394470214844,-49.32991409301758
0.00422194367274642,0.01072847843170166,9.639837265014648,-0.004834817595781589,0.01570503337463096,0.004205092610160662,4.279991388320923,2019-08-06 15:26:22:114,54.49819125787026,14.21168603241821,0,-29.238094329833984,39.43394470214844,-49.32991409301758
-0.02930455282330513,0.041860222816467285,9.704495429992676,-0.0011054818095324445,0.012774840451000838,0.0020740435894468653,4.289992809295654,2019-08-06 15:26:22:124,56.99759306034806,17.52313026422206,0,-29.238094329833984,39.43394470214844,-49.32991409301758
0.011406192556023598,0.01791272684931755,9.694916725158691,0.0010255674062370958,0.012508459843560263,0.004471473997824211,4.299992561340332,2019-08-06 15:26:22:134,52.25196607372271,20.769974580151594,0,-29.238094329833984,39.43394470214844,-49.32991409301758
-0.0005675556603819132,-0.03956126421689987,9.658995628356934,0.0015583297264341264,0.01756970178790418,0.009799097069757354,4.310012340545654,2019-08-06 15:26:22:144,54.79697454251868,16.758391766736008,0,-29.238094329833984,39.43394470214844,-49.32991409301758
-0.010146554559469223,-0.07308775931596756,9.627863883972168,-3.9957173202045016e-05,0.01756970178790418,0.004205092610160662,4.3199944496154785,2019-08-06 15:26:22:154,57.289979687979056,12.831945120070607,0,-29.238094329833984,39.43394470214844,-49.32991409301758
0.006616693455725908,-0.022798016667366028,9.678153038024902,-0.004568436468192365,0.013041222098738713,0.006069760763359559,4.329994440078735,2019-08-06 15:26:22:164,52.53764090434944,8.980570718724662,0,-29.238094329833984,39.43394470214844,-49.32991409301758
0.011406192556023598,-0.06111401319503784,9.639837265014648,-0.0019046251923001184,0.012774840451000838,0.004471473997824211,4.3399927616119385,2019-08-06 15:26:22:174,47.88107212147258,5.209293273088193,0,-29.238094329833984,39.43394470214844,-49.32991409301758
-0.017330802977085114,-0.06590351462364197,9.67336368560791,-0.0011054818095324445,0.014373127216536186,0.00846719091166258,4.349995851516724,2019-08-06 15:26:22:184,50.51332467324502,1.5135351963401034,0,-29.238094329833984,39.43394470214844,-49.32991409301758
-0.012541304342448711,-0.08745625615119934,9.62067985534668,-0.005900342106138487,0.01570503337463096,0.0026068058446253144,4.360008478164673,2019-08-06 15:26:22:194,53.092734901047244,-2.103001695134601,0,-29.238094329833984,39.43394470214844,-49.32991409301758
-0.060436297208070755,0.0011494798818603158,9.64462661743164,-0.0008391006169246387,0.01570503337463096,-5.7005565367755386e-05,4.369994878768921,2019-08-06 15:26:22:204,55.61489326310239,1.5393922777081843,0,-29.238094329833984,39.43394470214844,-49.32991409301758
-0.03169930353760719,-0.034771766513586044,9.649415969848633,0.0002264239747054862,0.017836082395344753,-0.003519960350001176,4.379993915557861,2019-08-06 15:26:22:214,58.08881699188476,-2.0873933919891874,0,-29.238094329833984,39.43394470214844,-49.32991409301758
-0.07001529633998871,0.0011494798818603158,9.62067985534668,-0.002970149702657017,0.0183688436102259,0.0010085190140713856,4.389998912811279,2019-08-06 15:26:22:224,60.50838206853227,1.555886130156932,0,-29.238094329833984,39.43394470214844,-49.32991409301758
-0.08677854388952255,0.03707072511315346,9.615889549255371,-0.004834817595781589,0.018901606905701654,-0.0019216735844658289,4.4000084400177,2019-08-06 15:26:22:234,62.87725006076311,5.123068079446028,0,-29.238094329833984,39.43394470214844,-49.32991409301758
-0.06762054562568665,0.049044474959373474,9.67336368560791,-0.004035674213013915,0.016237795629809405,-0.000856149009090349,4.40999436378479,2019-08-06 15:26:22:244,65.20259013163121,8.617059749737107,0,-29.238094329833984,39.43394470214844,-49.32991409301758
-0.10114704072475433,0.05143922194838524,9.704495429992676,-0.002171006319889343,0.012774840451000838,-0.003786341477590401,4.419991731643677,2019-08-06 15:26:22:254,67.47942406000155,12.039863318045057,0,-29.238094329833984,39.43394470214844,-49.32991409301758
-0.07241004705429077,0.056228723376989365,9.639837265014648,-0.0016382440647108938,0.016770557884987856,-0.0061837716258934215,4.429995059967041,2019-08-06 15:26:22:264,69.7118083674626,15.393302233008136,0,-29.238094329833984,39.43394470214844,-49.32991409301758
-0.04367304965853691,0.07538671791553497,9.647021293640137,0.0002264239747054862,0.013307602706179285,-0.004052722605179625,4.4399943351745605,2019-08-06 15:26:22:274,71.90491289952926,18.67635447738424,0,-29.238094329833984,39.43394470214844,-49.32991409301758
-0.026909802109003067,0.03707072511315346,9.66139030456543,0.0002264239747054862,0.011442934292906064,-0.006982915528809746,4.450006484985352,2019-08-06 15:26:22:284,74.05718994067936,21.89830324356903,0,-29.238094329833984,39.43394470214844,-49.32991409301758
-0.0029623054433614016,0.022702226415276527,9.656600952148438,-0.002703768575067792,0.0194343681205828,-0.009113964549523543,4.459997653961182,2019-08-06 15:26:22:294,76.16479188077561,25.05916001029182,0,-29.08815574645996,39.28400421142578,-47.68058776855469
0.011406192556023598,0.022702226415276527,9.596732139587402,-0.004302055340603139,0.015172271119452508,-0.00778205891157742,4.469980955123901,2019-08-06 15:26:22:304,71.03435303658607,28.15767757816668,0,-29.08815574645996,39.28400421142578,-47.68058776855469
0.02098519168794155,-0.027587516233325005,9.536863327026367,-0.0019046251923001184,0.01357398435391716,-0.010445869667321014,4.479998588562012,2019-08-06 15:26:22:314,66.00855226425658,23.998910165476058,0,-29.08815574645996,39.28400421142578,-47.68058776855469
0.02816944010555744,-0.04674551263451576,9.654206275939941,-0.0003063383292368989,0.010111029175108591,-0.008581202294345095,4.490051507949829,2019-08-06 15:26:22:324,61.08601743591697,19.924653342610316,0,-29.08815574645996,39.28400421142578,-47.68058776855469
0.018590440973639488,-0.008429518900811672,9.670969009399414,-0.003236530830246241,0.016504176237249982,-0.005651009370714973,4.500009775161743,2019-08-06 15:26:22:334,56.25727147216738,15.928968814880154,0,-29.08815574645996,39.28400421142578,-47.68058776855469
