ACCELEROMETER X (m/s²),ACCELEROMETER Y (m/s²),ACCELEROMETER Z (m/s²),GYROSCOPE X (rad/s),GYROSCOPE Y (rad/s),GYROSCOPE Z (rad/s),Time since start in ms ,YYYY-MO-DD HH-MI-SS_SSS,Pitch (Deg),Roll (Deg),Heading (Deg),MagX,MagY,MagZ
0.1962832659482956,-0.2020282745361328,9.778337478637695,0.0023929017341525857,-0.0012322792262649154,0.00438356835575693,0.0,2019-07-25 11:35:35:022,-3.5770008089493266,-3.5763278351429717,0,0.8996337056159973,44.381927490234375,-22.790719985961914
0.21783600747585297,-0.17808076739311218,9.787917137145996,-0.0026683399501170064,-0.006027139782945282,0.0017197566897531966,0.00998544692993164,2019-07-25 11:35:35:032,-7.076582652923758,-7.082458771261884,0,0.8996337056159973,44.381927490234375,-22.790719985961914
0.1962832659482956,-0.18047551810741425,9.728048324584961,0.0013273772237956873,-0.0006995169060678851,0.0009206132419669414,0.019982337951660156,2019-07-25 11:35:35:042,-10.511540290974551,-10.520298006891172,0,0.8996337056159973,44.381927490234375,-22.790719985961914
0.18670426309108734,-0.1972387731075287,9.819048881530762,-0.0018691964373121703,-0.00016675460212549993,-0.0006776736536055686,0.03000473976135254,2019-07-25 11:35:35:052,-13.87942926119076,-13.885824820172282,0,0.8996337056159973,44.381927490234375,-22.790719985961914
0.20346751809120178,-0.15892277657985687,9.759180068969727,-0.0005372907668567566,-0.0006995169060678851,0.003051662457736482,0.03998374938964844,2019-07-25 11:35:35:062,-17.17756118024615,-17.18914832521175,0,0.8996337056159973,44.381927490234375,-22.790719985961914
0.18430951237678528,-0.17568601667881012,9.814258575439453,-0.0016028153097229455,-0.003896090502157161,-0.0009440547811947932,0.04998373985290527,2019-07-25 11:35:35:072,-20.410304808091578,-20.423954422974585,0,0.8996337056159973,44.381927490234375,-22.790719985961914
0.21065175533294678,-0.15892277657985687,9.821443557739258,-0.004266626715652354,-0.004162471629746385,0.0006542321143777169,0.05998706817626953,2019-07-25 11:35:35:082,-23.575186714728805,-23.594538156789906,0,0.8996337056159973,44.381927490234375,-22.790719985961914
0.22023075819015503,-0.170896515250206,9.82623291015625,-0.00027090962301288673,-0.0020314226090325893,0.002252519074968808,0.06998443603515625,2019-07-25 11:35:35:092,-26.676864069015195,-26.70256771822691,0,0.8996337056159973,44.381927490234375,-22.790719985961914
0.19867801666259766,-0.1828702688217163,9.759180068969727,-0.002135577564901395,-0.00043313574596936985,-0.0014768171013918236,0.07999944686889648,2019-07-25 11:35:35:102,-29.719757816064064,-29.745845463065592,0,0.8996337056159973,44.381927490234375,-22.790719985961914
0.16754627227783203,-0.16850177943706512,9.780732154846191,-0.00400024558806313,-0.0030969471193894875,-0.0001449113496631835,0.08998560905456543,2019-07-25 11:35:35:112,-32.703998247103044,-32.728945727478845,0,-0.7496947646141052,43.33235549926758,-23.540414810180664
0.1364145278930664,-0.22118626534938812,9.773548126220703,-0.0016028153097229455,-0.0012322792262649154,-0.0004112924935070534,0.09998416900634766,2019-07-25 11:35:35:122,-35.63323335338211,-35.64753804553292,0,-0.7496947646141052,43.33235549926758,-23.540414810180664
0.16036202013492584,-0.18047551810741425,9.728048324584961,-0.00400024558806313,-0.0020314226090325893,-0.0014768171013918236,0.10999226570129395,2019-07-25 11:35:35:132,-38.500538986062686,-38.5110826558112,0,-0.7496947646141052,43.33235549926758,-23.540414810180664
0.13401977717876434,-0.2020282745361328,9.7855224609375,-0.0010700530545444964,-0.0006995169060678851,0.001986137817342421,0.11998581886291504,2019-07-25 11:35:35:142,-41.3144425236784,-41.31660576810857,0,-0.7496947646141052,43.33235549926758,-23.540414810180664
0.15317776799201965,-0.23794952034950256,9.816654205322266,0.0018601394789741364,-0.0017650414814433647,-0.0004112924935070534,0.1300032138824463,2019-07-25 11:35:35:152,-44.069281617214656,-44.06354910063496,0,-0.7496947646141052,43.33235549926758,-23.540414810180664
0.14120401442050934,-0.19963352382183075,9.773548126220703,-0.002401958822527782,-0.002830565991800263,-0.0004112924935070534,0.13999319076538086,2019-07-25 11:35:35:162,-46.76975367574119,-46.75752767009833,0,-0.7496947646141052,43.33235549926758,-23.540414810180664
0.1507830172777176,-0.16850177943706512,9.799890518188477,-0.002401958822527782,-0.0054943775277668345,0.0027852813301472578,0.14998650550842285,2019-07-25 11:35:35:172,-49.41364569064801,-49.40132810254703,0,-0.7496947646141052,43.33235549926758,-23.540414810180664
0.11486177146434784,-0.18765977025032043,9.814258575439453,-0.0018691964373121703,-0.00149866035385414,-0.0036078662521427827,0.15998435020446777,2019-07-25 11:35:35:182,-52.0111207820069,-51.990343677711195,0,-0.7496947646141052,43.33235549926758,-23.540414810180664
0.15796726942062378,-0.1373700201511383,9.795101165771484,0.0015937583513849119,-0.00016675460212549993,-0.0022759606141966597,0.17000031471252441,2019-07-25 11:35:35:192,-54.55232580987831,-54.535363447240634,0,-0.7496947646141052,43.33235549926758,-23.540414810180664
0.12204602360725403,-0.16131752729415894,9.835811614990234,0.00265928286174181,-0.0006995169060678851,0.00038785095427920163,0.17998313903808594,2019-07-25 11:35:35:202,-57.046669018217464,-57.027354276281336,0,-0.7496947646141052,43.33235549926758,-23.540414810180664
0.14599351584911346,-0.18047551810741425,9.780732154846191,-4.528479676974485e-06,-0.0033633282469787123,-0.007337202298466253,0.189988374710083,2019-07-25 11:35:35:212,-59.486742739910355,-59.46566244181801,0,-0.7496947646141052,43.33235549926758,-23.540414810180664
0.18191476166248322,-0.163712278008461,9.814258575439453,0.0007946149686172382,-0.006559902038123733,-0.004140628507321232,0.19998836517333984,2019-07-25 11:35:35:222,-61.872086525899164,-61.85768204885569,0,-0.7496947646141052,43.33235549926758,-23.540414810180664
0.1627567708492279,-0.17808076739311218,9.759180068969727,0.0023929017341525857,-0.0036297093745679366,-0.0009440547811947932,0.20998716354370117,2019-07-25 11:35:35:232,-64.21349795715614,-64.20096406796517,0,-0.14993895590305328,43.632232666015625,-22.940658569335938
0.19388851523399353,-0.19244927167892456,9.713679313659668,-0.0010700530545444964,-0.00149866035385414,-0.004939772150163231,0.22000741958618164,2019-07-25 11:35:35:242,-66.50551494938213,-66.49364260726047,0,-0.14993895590305328,43.632232666015625,-22.940658569335938
0.18430951237678528,-0.16610702872276306,9.780732154846191,0.0023929017341525857,-0.0036297093745679366,0.003051662457736482,0.23000049591064453,2019-07-25 11:35:35:252,-68.75177674317376,-68.74565312203134,0,-0.14993895590305328,43.632232666015625,-22.940658569335938
0.19149376451969147,-0.21879151463508606,9.82623291015625,-0.0005372907668567566,0.0003660077018168852,-0.004407009894984782,0.2399921417236328,2019-07-25 11:35:35:262,-70.95461775679188,-70.94492781095111,0,-0.14993895590305328,43.632232666015625,-22.940658569335938
0.16515152156352997,-0.1828702688217163,9.859759330749512,0.00026185266467485305,-0.003896090502157161,-0.001210435973802599,0.2499849796295166,2019-07-25 11:35:35:272,-73.11414696333776,-73.10492516687987,0,-0.14993895590305328,43.632232666015625,-22.940658569335938
0.19388851523399353,-0.18047551810741425,9.783126831054688,0.0021265206065633614,-0.006027139782945282,-0.0014768171013918236,0.2600061893463135,2019-07-25 11:35:35:282,-75.22576507070855,-75.2228862035534,0,-0.14993895590305328,43.632232666015625,-22.940658569335938
0.1962832659482956,-0.2020282745361328,9.804679870605469,0.0015937583513849119,-0.004428853017409935,0.00038785095427920163,0.26998353004455566,2019-07-25 11:35:35:292,-77.295831193977,-77.2957127623738,0,-0.14993895590305328,43.632232666015625,-22.940658569335938
0.15557251870632172,-0.17808076739311218,9.7759428024292,0.0021265206065633614,-0.00016675460212549993,-0.0009440547811947932,0.2799820899963379,2019-07-25 11:35:35:302,-79.33158660467159,-79.33012042656676,0,-0.14993895590305328,43.632232666015625,-22.940658569335938
0.17952001094818115,-0.16850177943706512,9.783126831054688,-0.0008036719269552719,-0.00149866035385414,-0.0001449113496631835,0.28998780250549316,2019-07-25 11:35:35:312,-81.32308774761827,-81.32333152840889,0,-0.14993895590305328,43.632232666015625,-22.940658569335938
0.17952001094818115,-0.21160726249217987,9.807074546813965,0.0021265206065633614,-0.00043313574596936985,-0.0004112924935070534,0.29998040199279785,2019-07-25 11:35:35:322,-83.27540914845852,-83.27333646621672,0,-0.14993895590305328,43.632232666015625,-22.940658569335938
0.21065175533294678,-0.16610702872276306,9.71846866607666,-0.0010700530545444964,-0.0036297093745679366,-0.0025423417417858845,0.3099992275238037,2019-07-25 11:35:35:332,-85.18302475476925,-85.187683812438,0,-0.14993895590305328,43.632232666015625,-22.940658569335938
0.20107276737689972,-0.15413327515125275,9.740021705627441,-0.0018691964373121703,-0.0006995169060678851,-0.00547253440534168,0.31998348236083984,2019-07-25 11:35:35:342,-87.05531920689144,-87.06474993889479,0,-0.14993895590305328,43.632232666015625,-22.940658569335938
0.19867801666259766,-0.17568601667881012,9.83820629119873,0.00265928286174181,0.0003660077018168852,0.00438356835575693,0.3299829959869385,2019-07-25 11:35:35:352,-88.8912802363433,-88.90448700944457,0,-0.14993895590305328,43.632232666015625,-22.940658569335938
0.18191476166248322,-0.17329126596450806,9.795101165771484,-0.0016028153097229455,-0.004961615272588385,-0.0004112924935070534,0.3399808406829834,2019-07-25 11:35:35:362,-90.68938977714741,-90.70522648934119,0,-0.14993895590305328,43.93211364746094,-23.240537643432617
0.18670426309108734,-0.17808076739311218,9.778337478637695,0.0007946149686172382,0.002763437947647778,-0.0022759606141966597,0.3499932289123535,2019-07-25 11:35:35:372,-92.45527850472737,-92.47070185079825,0,-0.14993895590305328,43.93211364746094,-23.240537643432617
0.16036202013492584,-0.1565280258655548,9.809469223022461,0.001060996096206463,-0.0017650414814433647,0.00038785095427920163,0.3599853515625,2019-07-25 11:35:35:382,-94.18645125918322,-94.20359946458443,0,-0.14993895590305328,43.93211364746094,-23.240537643432617
0.1627567708492279,-0.17808076739311218,9.82623291015625,-4.528479676974485e-06,0.0006323888619154005,-0.002009579356570273,0.36998629570007324,2019-07-25 11:35:35:392,-95.88409872002251,-95.89875978328683,0,-0.14993895590305328,43.93211364746094,-23.240537643432617
0.16036202013492584,-0.18526501953601837,9.761574745178223,-0.00346748333288468,-0.0006995169060678851,-0.0022759606141966597,0.38002538681030273,2019-07-25 11:35:35:402,-97.54719915691867,-97.55708425732624,0,-0.14993895590305328,43.93211364746094,-23.240537643432617
0.14599351584911346,-0.19484402239322662,9.857364654541016,-0.003733864460473905,-0.00043313574596936985,-0.0001449113496631835,0.39000439643859863,2019-07-25 11:35:35:412,-99.17904201888544,-99.18120280505174,0,-0.14993895590305328,43.93211364746094,-23.240537643432617
0.1627567708492279,-0.1565280258655548,9.740021705627441,-0.0005372907668567566,-0.0025641848642110384,-0.0017431982289810482,0.3999917507171631,2019-07-25 11:35:35:422,-100.77487662673946,-100.77886347256462,0,-0.14993895590305328,43.93211364746094,-23.240537643432617
0.15557251870632172,-0.16610702872276306,9.768758773803711,-0.002401958822527782,0.0003660077018168852,-0.002808722869375109,0.4099862575531006,2019-07-25 11:35:35:432,-102.3413367402843,-102.34245508716951,0,-0.14993895590305328,43.93211364746094,-23.240537643432617
0.15796726942062378,-0.18765977025032043,9.799890518188477,-0.0032011022052954555,-0.004162471629746385,-0.0038742473797320075,0.4199864864349365,2019-07-25 11:35:35:442,-103.8737029845892,-103.87186787877341,0,-0.14993895590305328,43.93211364746094,-23.240537643432617
0.15317776799201965,-0.17568601667881012,9.852575302124023,0.002925663989331035,-0.0012322792262649154,0.0017197566897531966,0.42999958992004395,2019-07-25 11:35:35:452,-105.37772200624046,-105.37564422246056,0,-0.14993895590305328,43.93211364746094,-23.240537643432617
0.13880927860736847,-0.15892277657985687,9.823838233947754,0.00026185266467485305,-0.00043313574596936985,0.0009206132419669414,0.4399850368499756,2019-07-25 11:35:35:462,-106.85373418652645,-106.84974199740986,0,-0.14993895590305328,43.93211364746094,-23.240537643432617
0.17233577370643616,-0.21400201320648193,9.7759428024292,-0.002135577564901395,-0.0033633282469787123,0.004916330610935379,0.4499809741973877,2019-07-25 11:35:35:472,-108.29457301865402,-108.28646765761013,0,-0.14993895590305328,43.93211364746094,-23.240537643432617
0.12444077432155609,-0.19244927167892456,9.835811614990234,-0.0032011022052954555,-0.0009658980336571096,0.00038785095427920163,0.45998620986938477,2019-07-25 11:35:35:482,-109.71364179633753,-109.69652161740463,0,0.7496947646141052,43.33235549926758,-22.041025161743164
0.13880927860736847,-0.1900545209646225,9.71846866607666,0.0023929017341525857,0.000898769989504625,0.0011869944345747473,0.4699864387512207,2019-07-25 11:35:35:492,-111.10350758450903,-111.08152814027083,0,0.7496947646141052,43.33235549926758,-22.041025161743164
0.19149376451969147,-0.1828702688217163,9.819048881530762,-0.0016028153097229455,0.0003660077018168852,-0.0038742473797320075,0.4800586700439453,2019-07-25 11:35:35:502,-112.45929930489218,-112.43765199789765,0,0.7496947646141052,43.33235549926758,-22.041025161743164
0.1364145278930664,-0.1828702688217163,9.799890518188477,0.003724807632173034,-0.004162471629746385,0.0057154739937030526,0.489973783493042,2019-07-25 11:35:35:512,-113.79184581557506,-113.76959187091212,0,0.7496947646141052,43.33235549926758,-22.041025161743164
0.19388851523399353,-0.18526501953601837,9.811863899230957,-0.002135577564901395,-0.002830565991800263,0.0011869944345747473,0.49999165534973145,2019-07-25 11:35:35:522,-115.09177564382549,-115.07136446216201,0,0.7496947646141052,43.33235549926758,-22.041025161743164
0.18191476166248322,-0.15892277657985687,9.847785949707031,-0.0018691964373121703,-0.0033633282469787123,-0.0038742473797320075,0.509986400604248,2019-07-25 11:35:35:532,-116.3668869219373,-116.35039708477915,0,0.7496947646141052,43.33235549926758,-22.041025161743164
0.16036202013492584,-0.15892277657985687,9.780732154846191,-0.004533008103315903,-0.005760758655356059,-0.0070708211708770275,0.5199990272521973,2019-07-25 11:35:35:542,-117.61752402788807,-117.60222281579445,0,0.7496947646141052,43.33235549926758,-22.041025161743164
0.19149376451969147,-0.163712278008461,9.814258575439453,0.0013273772237956873,-0.00016675460212549993,0.00038785095427920163,0.5299813747406006,2019-07-25 11:35:35:552,-118.84272405112137,-118.83180904538153,0,0.7496947646141052,43.33235549926758,-22.041025161743164
0.1699410229921341,-0.16610702872276306,9.766364097595215,-0.00400024558806313,-0.0020314226090325893,0.00038785095427920163,0.5399782657623291,2019-07-25 11:35:35:562,-120.04479162676209,-120.03343949386506,0,0.7496947646141052,43.33235549926758,-22.041025161743164
0.17952001094818115,-0.18765977025032043,9.811863899230957,-0.0008036719269552719,0.00169791343729088,0.0009206132419669414,0.549990177154541,2019-07-25 11:35:35:572,-121.22388672228013,-121.2104050223629,0,0.7496947646141052,43.33235549926758,-22.041025161743164
0.20586226880550385,-0.16131752729415894,9.792706489562988,0.0007946149686172382,-0.0062935209105345075,-0.0001449113496631835,0.5599894523620605,2019-07-25 11:35:35:582,-122.37178955144724,-122.36776783851809,0,0.7496947646141052,43.33235549926758,-22.041025161743164
0.1627567708492279,-0.18765977025032043,9.816654205322266,0.0007946149686172382,-0.0017650414814433647,-0.0014768171013918236,0.5700051784515381,2019-07-25 11:35:35:592,-123.50436398526587,-123.49895616608967,0,0.7496947646141052,43.33235549926758,-22.041025161743164
0.18191476166248322,-0.17329126596450806,9.790311813354492,0.0007946149686172382,9.962654984569266e-05,0.0027852813301472578,0.5799970626831055,2019-07-25 11:35:35:602,-124.61304267823728,-124.6091419462544,0,0.7496947646141052,43.33235549926758,-22.041025161743164
0.18670426309108734,-0.17329126596450806,9.7855224609375,0.0007946149686172382,-0.004162471629746385,-0.0004112924935070534,0.5899920463562012,2019-07-25 11:35:35:612,-125.69658476843216,-125.69711422504376,0,0.5997558236122131,44.08205032348633,-22.190963745117188
0.1699410229921341,-0.19484402239322662,9.799890518188477,-0.0032011022052954555,-0.0030969471193894875,-0.0014768171013918236,0.5999858379364014,2019-07-25 11:35:35:622,-126.76104575919777,-126.75859524565205,0,0.5997558236122131,44.08205032348633,-22.190963745117188
0.1699410229921341,-0.21160726249217987,9.716073989868164,-0.0008036719269552719,-0.0025641848642110384,0.0006542321143777169,0.6100068092346191,2019-07-25 11:35:35:632,-127.80434120562666,-127.79801807825109,0,0.5997558236122131,44.08205032348633,-22.190963745117188
0.14599351584911346,-0.20442302525043488,9.845390319824219,0.0013273772237956873,-0.0054943775277668345,-0.005206153277752455,0.6199865341186523,2019-07-25 11:35:35:642,-128.828184453706,-128.81901192811384,0,0.5997558236122131,44.08205032348633,-22.190963745117188
0.16754627227783203,-0.14694902300834656,9.795101165771484,-0.00027090962301288673,-0.003896090502157161,0.002252519074968808,0.6299827098846436,2019-07-25 11:35:35:652,-129.82983485206248,-129.82528955516838,0,0.5997558236122131,44.08205032348633,-22.190963745117188
0.15557251870632172,-0.170896515250206,9.754390716552734,-0.0010700530545444964,-0.0012322792262649154,0.001986137817342421,0.6399900913238525,2019-07-25 11:35:35:662,-130.8142710932305,-130.80810814803004,0,0.5997558236122131,44.08205032348633,-22.190963745117188
0.1627567708492279,-0.17568601667881012,9.778337478637695,-0.002401958822527782,0.0006323888619154005,0.007580141886827625,0.6499836444854736,2019-07-25 11:35:35:672,-131.7792689525229,-131.77001186835844,0,0.5997558236122131,44.08205032348633,-22.190963745117188
0.15796726942062378,-0.18526501953601837,9.783126831054688,0.0007946149686172382,-0.002830565991800263,-0.0036078662521427827,0.6600046157836914,2019-07-25 11:35:35:682,-132.7235894932105,-132.71336090383818,0,0.5997558236122131,44.08205032348633,-22.190963745117188
0.1890990138053894,-0.17329126596450806,9.814258575439453,0.0015937583513849119,-0.007092664293302181,-0.0001449113496631835,0.6699962615966797,2019-07-25 11:35:35:692,-133.64306198673916,-133.63975639672955,0,0.5997558236122131,44.08205032348633,-22.190963745117188
0.16515152156352997,-0.1900545209646225,9.763969421386719,0.0013273772237956873,-0.0020314226090325893,-0.002808722869375109,0.6799876689910889,2019-07-25 11:35:35:702,-134.54968047862963,-134.54540365251103,0,0.5997558236122131,44.08205032348633,-22.190963745117188
0.17233577370643616,-0.2020282745361328,9.845390319824219,0.00265928286174181,-0.0006995169060678851,-0.0006776736536055686,0.6899831295013428,2019-07-25 11:35:35:712,-135.438237971361,-135.43247709631416,0,0.5997558236122131,44.08205032348633,-22.190963745117188
0.23699401319026947,-0.20681776106357574,9.809469223022461,0.00265928286174181,-0.0017650414814433647,-0.0009440547811947932,0.7000038623809814,2019-07-25 11:35:35:722,-136.300800475525,-136.3011675228033,0,0.5997558236122131,44.08205032348633,-22.190963745117188
0.16754627227783203,-0.1972387731075287,9.819048881530762,-0.0010700530545444964,-0.0017650414814433647,-0.0009440547811947932,0.7099852561950684,2019-07-25 11:35:35:732,-137.15424393299384,-137.15152913279454,0,0.7496947646141052,42.43272399902344,-22.041025161743164
0.14838826656341553,-0.20681776106357574,9.780732154846191,-0.001336434182133721,-0.0022978037366218136,0.0017197566897531966,0.7199809551239014,2019-07-25 11:35:35:742,-137.99248548395119,-137.98352120254748,0,0.7496947646141052,42.43272399902344,-22.041025161743164
0.16515152156352997,-0.15413327515125275,9.816654205322266,0.002925663989331035,-0.005227996400177609,-0.0022759606141966597,0.7299895286560059,2019-07-25 11:35:35:752,-138.81042113086266,-138.80750416889504,0,0.7496947646141052,42.43272399902344,-22.041025161743164
0.1771252602338791,-0.15173852443695068,9.7759428024292,-0.002401958822527782,-0.005227996400177609,0.0006542321143777169,0.7399842739105225,2019-07-25 11:35:35:762,-139.61051875647718,-139.61222105297887,0,0.7496947646141052,42.43272399902344,-22.041025161743164
0.16754627227783203,-0.2092125117778778,9.787917137145996,0.0015937583513849119,9.962654984569266e-05,0.005182711738524604,0.7500014305114746,2019-07-25 11:35:35:772,-140.3987509355066,-140.39638333746566,0,0.7496947646141052,42.43272399902344,-22.041025161743164
0.16754627227783203,-0.18765977025032043,9.768758773803711,0.0018601394789741364,-0.0030969471193894875,-0.0022759606141966597,0.759979248046875,2019-07-25 11:35:35:782,-141.16938890242153,-141.16748726385097,0,0.7496947646141052,42.43272399902344,-22.041025161743164
0.19149376451969147,-0.1900545209646225,9.814258575439453,0.0031920451169202596,-0.00016675460212549993,-0.0017431982289810482,0.7699863910675049,2019-07-25 11:35:35:792,-141.92355139599744,-141.92374308182488,0,0.7496947646141052,42.43272399902344,-22.041025161743164
0.15557251870632172,-0.15173852443695068,9.802285194396973,-0.0008036719269552719,0.0014315323097016555,0.0027852813301472578,0.7799828052520752,2019-07-25 11:35:35:802,-142.6676985311087,-142.66707986407144,0,0.7496947646141052,42.43272399902344,-22.041025161743164
0.18430951237678528,-0.216396763920784,9.807074546813965,-0.004799389230905129,-0.0022978037366218136,0.00411718696809338,0.7900018692016602,2019-07-25 11:35:35:812,-143.3915186274168,-143.3857573255944,0,0.7496947646141052,42.43272399902344,-22.041025161743164
0.17473050951957703,-0.14934377372264862,9.82623291015625,0.0018601394789741364,-0.004428853017409935,0.005182711738524604,0.8003842830657959,2019-07-25 11:35:35:822,-144.10073178688498,-144.1017117559039,0,0.7496947646141052,42.43272399902344,-22.041025161743164
0.17473050951957703,-0.1972387731075287,9.835811614990234,0.0013273772237956873,9.962654984569266e-05,0.0017197566897531966,0.8099853992462158,2019-07-25 11:35:35:832,-144.79841612321246,-144.79741700098745,0,0.7496947646141052,42.43272399902344,-22.041025161743164
0.18430951237678528,-0.20681776106357574,9.802285194396973,-0.005598532613672802,-0.0020314226090325893,-0.006538058915698578,0.8199896812438965,2019-07-25 11:35:35:842,-145.47976289297836,-145.4741497366085,0,0.7496947646141052,42.43272399902344,-22.041025161743164
0.21783600747585297,-0.1828702688217163,9.828627586364746,0.0015937583513849119,-0.0017650414814433647,-0.002009579356570273,0.8299798965454102,2019-07-25 11:35:35:852,-146.14378428454143,-146.14424245079374,0,0.7496947646141052,42.43272399902344,-22.041025161743164
0.19388851523399353,-0.1565280258655548,9.70649528503418,0.00026185266467485305,-0.004961615272588385,0.002252519074968808,0.8399999141693115,2019-07-25 11:35:35:862,-146.79523031142418,-146.8030273649544,0,-0.0,43.78217315673828,-23.690353393554688
0.17233577370643616,-0.18047551810741425,9.749600410461426,-0.006397675996440476,-0.003896090502157161,-0.004407009894984782,0.8499846458435059,2019-07-25 11:35:35:872,-147.43688808517854,-147.44217031681578,0,-0.0,43.78217315673828,-23.690353393554688
0.1771252602338791,-0.18047551810741425,9.795101165771484,0.0021265206065633614,-0.0054943775277668345,-0.0004112924935070534,0.8599891662597656,2019-07-25 11:35:35:882,-148.0643444577964,-148.07341029151357,0,-0.0,43.78217315673828,-23.690353393554688
0.18670426309108734,-0.18047551810741425,9.840600967407227,-0.0005372907668567566,-0.007891807676069855,0.0014533755621639719,0.869983434677124,2019-07-25 11:35:35:892,-148.67689019074848,-148.69062696292897,0,-0.0,43.78217315673828,-23.690353393554688
0.1699410229921341,-0.18047551810741425,9.823838233947754,-0.004799389230905129,-0.0030969471193894875,0.002252519074968808,0.8800044059753418,2019-07-25 11:35:35:902,-149.2817887731095,-149.29306446592076,0,-0.0,43.78217315673828,-23.690353393554688
0.16515152156352997,-0.19244927167892456,9.809469223022461,0.000528233808518723,0.0014315323097016555,-0.001210435973802599,0.8899955749511719,2019-07-25 11:35:35:912,-149.87766536091573,-149.88502099891843,0,-0.0,43.78217315673828,-23.690353393554688
0.15557251870632172,-0.17568601667881012,9.783126831054688,0.001060996096206463,-0.0009658980336571096,-0.0006776736536055686,0.8999898433685303,2019-07-25 11:35:35:922,-150.46134905543343,-150.46733977166207,0,-0.0,43.78217315673828,-23.690353393554688
0.1627567708492279,-0.16610702872276306,9.744811058044434,-0.0010700530545444964,-0.0009658980336571096,0.0009206132419669414,0.9099838733673096,2019-07-25 11:35:35:932,-151.03244286986705,-151.037861471107,0,-0.0,43.78217315673828,-23.690353393554688
0.1507830172777176,-0.14215952157974243,9.787917137145996,-0.004799389230905129,-0.0017650414814433647,-0.0017431982289810482,0.9200034141540527,2019-07-25 11:35:35:942,-151.59314955600922,-151.5977620391914,0,-0.0,43.78217315673828,-23.690353393554688
0.19388851523399353,-0.1373700201511383,9.780732154846191,-0.0010700530545444964,-0.005760758655356059,0.0009206132419669414,0.9299843311309814,2019-07-25 11:35:35:952,-152.13534497655988,-152.14911382784163,0,-0.0,43.78217315673828,-23.690353393554688
0.1699410229921341,-0.2020282745361328,9.744811058044434,0.001060996096206463,0.002763437947647778,-0.0006776736536055686,0.9399797916412354,2019-07-25 11:35:35:962,-152.67420729427985,-152.68297344451966,0,-0.0,43.78217315673828,-23.690353393554688
0.1627567708492279,-0.1972387731075287,9.811863899230957,-0.0010700530545444964,-0.0025641848642110384,-0.0014768171013918236,0.9499869346618652,2019-07-25 11:35:35:972,-153.20027591243488,-153.20568053996976,0,-0.0,43.78217315673828,-23.690353393554688
0.1771252602338791,-0.15413327515125275,9.795101165771484,-0.0026683399501170064,-0.0020314226090325893,0.00012146980230800906,0.9599816799163818,2019-07-25 11:35:35:982,-153.71441096694707,-153.72203909266088,0,-0.29987791180610657,44.381927490234375,-23.39047622680664
0.16754627227783203,-0.1565280258655548,9.74720573425293,-0.003733864460473905,-0.0033633282469787123,0.004649949483346154,0.9700043201446533,2019-07-25 11:35:35:992,-154.21853458173808,-154.22709660387753,0,-0.29987791180610657,44.381927490234375,-23.39047622680664
0.16515152156352997,-0.19963352382183075,9.768758773803711,0.0021265206065633614,0.0024970568200585537,0.0009206132419669414,0.9799654483795166,2019-07-25 11:35:36:002,-154.71618942643667,-154.72032949435842,0,-0.29987791180610657,44.381927490234375,-23.39047622680664
0.10528277605772018,-0.17568601667881012,9.75678539276123,-0.0005372907668567566,-0.00469523414499916,-0.004140628507321232,0.9899647235870361,2019-07-25 11:35:36:012,-155.20686468271043,-155.20498948479946,0,-0.29987791180610657,44.381927490234375,-23.39047622680664
0.19388851523399353,-0.2092125117778778,9.7759428024292,0.0013273772237956873,9.962654984569266e-05,-0.0006776736536055686,0.999997615814209,2019-07-25 11:35:36:022,-155.68005928583221,-155.67711775643508,0,-0.29987791180610657,44.381927490234375,-23.39047622680664
0.17233577370643616,-0.18047551810741425,9.792706489562988,0.00026185266467485305,0.0022306756924693294,-0.003075103996964334,1.0100011825561523,2019-07-25 11:35:36:032,-156.14754689125155,-156.14260612522102,0,-0.29987791180610657,44.381927490234375,-23.39047622680664
0.16036202013492584,-0.18765977025032043,9.7759428024292,0.0018601394789741364,-0.006559902038123733,-0.0006776736536055686,1.0200257301330566,2019-07-25 11:35:36:042,-156.60210792034687,-156.598806647526,0,-0.29987791180610657,44.381927490234375,-23.39047622680664
0.16036202013492584,-0.163712278008461,9.763969421386719,0.000528233808518723,-0.0033633282469787123,0.0033180435853257064,1.0299808979034424,2019-07-25 11:35:36:052,-157.0493670644901,-157.04791404406376,0,-0.29987791180610657,44.381927490234375,-23.39047622680664
0.15317776799201965,-0.20681776106357574,9.845390319824219,0.00026185266467485305,-0.0033633282469787123,0.0011869944345747473,1.0399892330169678,2019-07-25 11:35:36:062,-157.48866255769553,-157.4830347133583,0,-0.29987791180610657,44.381927490234375,-23.39047622680664
0.14838826656341553,-0.1900545209646225,9.742416381835938,0.004257569887351483,-0.002830565991800263,0.00012146980230800906,1.0499892234802246,2019-07-25 11:35:36:072,-157.9198476791428,-157.9134130135223,0,-0.29987791180610657,44.381927490234375,-23.39047622680664
0.16754627227783203,-0.19244927167892456,9.802285194396973,0.0015937583513849119,-0.0017650414814433647,0.00038785095427920163,1.0600059032440186,2019-07-25 11:35:36:082,-158.34087326567854,-158.33354615061612,0,-0.29987791180610657,44.381927490234375,-23.39047622680664
0.15317776799201965,-0.17568601667881012,9.811863899230957,-0.005065770358494353,-0.0022978037366218136,-0.0022759606141966597,1.0699794292449951,2019-07-25 11:35:36:092,-158.75488101125066,-158.74352237197093,0,-0.29987791180610657,44.381927490234375,-23.39047622680664
0.16754627227783203,-0.18765977025032043,9.802285194396973,-0.004533008103315903,-0.005227996400177609,0.0017197566897531966,1.0799860954284668,2019-07-25 11:35:36:102,-159.1572611828816,-159.1441696576823,0,-0.29987791180610657,44.381927490234375,-23.39047622680664
0.18191476166248322,-0.19484402239322662,9.7759428024292,0.0021265206065633614,-0.007625426548480631,-0.006271677788109354,1.089982509613037,2019-07-25 11:35:36:112,-159.54851462039423,-159.53964368910366,0,0.7496947646141052,43.93211364746094,-22.340904235839844
0.1962832659482956,-0.21160726249217987,9.768758773803711,-0.005598532613672802,-0.0017650414814433647,-0.0033414851245535584,1.100003719329834,2019-07-25 11:35:36:122,-159.93352942084707,-159.9208820584198,0,0.7496947646141052,43.93211364746094,-22.340904235839844
0.2226255089044571,-0.14694902300834656,9.744811058044434,0.000528233808518723,-0.00469523414499916,-0.0033414851245535584,1.1099941730499268,2019-07-25 11:35:36:132,-160.30605046968833,-160.3054819599722,0,0.7496947646141052,43.93211364746094,-22.340904235839844
0.16754627227783203,-0.20442302525043488,9.740021705627441,-0.0016028153097229455,-0.0020314226090325893,-0.0001449113496631835,1.119992971420288,2019-07-25 11:35:36:142,-160.67907904628194,-160.67442556905604,0,0.7496947646141052,43.93211364746094,-22.340904235839844
0.23938876390457153,-0.14934377372264862,9.7759428024292,0.0015937583513849119,-0.004162471629746385,-0.0014768171013918236,1.1299853324890137,2019-07-25 11:35:36:152,-161.03510698458328,-161.04432686370856,0,0.7496947646141052,43.93211364746094,-22.340904235839844
0.19149376451969147,-0.18765977025032043,9.761574745178223,-0.004799389230905129,-0.00469523414499916,-0.0014768171013918236,1.1400048732757568,2019-07-25 11:35:36:162,-161.38928667059994,-161.3987134595181,0,0.7496947646141052,43.93211364746094,-22.340904235839844
0.1771252602338791,-0.18526501953601837,9.811863899230957,0.00265928286174181,-0.004162471629746385,0.0009206132419669414,1.1499857902526855,2019-07-25 11:35:36:172,-161.73848417918248,-161.7505952202118,0,0.7496947646141052,43.93211364746094,-22.340904235839844
0.1771252602338791,-0.18765977025032043,9.804679870605469,0.0007946149686172382,-0.00043313574596936985,0.00411718696809338,1.1599833965301514,2019-07-25 11:35:36:182,-162.08277220054418,-162.0940994481161,0,0.7496947646141052,43.93211364746094,-22.340904235839844
0.15317776799201965,-0.1972387731075287,9.751995086669922,-0.002135577564901395,-0.003896090502157161,0.00038785095427920163,1.1699891090393066,2019-07-25 11:35:36:192,-162.42093006738116,-162.42784411792127,0,0.7496947646141052,43.93211364746094,-22.340904235839844
0.17952001094818115,-0.2020282745361328,9.728048324584961,-0.00027090962301288673,-0.00043313574596936985,0.0006542321143777169,1.1799843311309814,2019-07-25 11:35:36:202,-162.75112421482942,-162.7553406898065,0,0.7496947646141052,43.93211364746094,-22.340904235839844
0.1364145278930664,-0.17568601667881012,9.795101165771484,0.0015937583513849119,-0.0036297093745679366,-0.001210435973802599,1.190004825592041,2019-07-25 11:35:36:212,-163.0781015579284,-163.08057953816072,0,0.7496947646141052,43.93211364746094,-22.340904235839844
0.15796726942062378,-0.18047551810741425,9.828627586364746,-0.0016028153097229455,-0.0033633282469787123,0.002252519074968808,1.2000060081481934,2019-07-25 11:35:36:222,-163.39623504673918,-163.39702866137787,0,0.7496947646141052,43.93211364746094,-22.340904235839844
0.17233577370643616,-0.19484402239322662,9.763969421386719,0.0018601394789741364,-0.0020314226090325893,-0.001210435973802599,1.2099745273590088,2019-07-25 11:35:36:232,-163.70694978423754,-163.7072650840053,0,-0.44981685280799866,43.03247833251953,-22.940658569335938
0.15557251870632172,-0.14215952157974243,9.802285194396973,-0.0018691964373121703,-0.003896090502157161,0.00012146980230800906,1.2199769020080566,2019-07-25 11:35:36:242,-164.0124372673639,-164.01545228613892,0,-0.44981685280799866,43.03247833251953,-22.940658569335938
0.16036202013492584,-0.17808076739311218,9.773548126220703,-0.005332151486083577,0.00169791343729088,-0.002009579356570273,1.2299809455871582,2019-07-25 11:35:36:252,-164.31434206398907,-164.3112709740968,0,-0.44981685280799866,43.03247833251953,-22.940658569335938
0.19149376451969147,-0.2092125117778778,9.811863899230957,-0.0005372907668567566,-0.0036297093745679366,-0.0004112924935070534,1.239999771118164,2019-07-25 11:35:36:262,-164.60365182522418,-164.60031332700981,0,-0.44981685280799866,43.03247833251953,-22.940658569335938
0.15557251870632172,-0.19244927167892456,9.809469223022461,0.00265928286174181,0.0022306756924693294,-0.005206153277752455,1.2499852180480957,2019-07-25 11:35:36:272,-164.89465745102632,-164.88731955281895,0,-0.44981685280799866,43.03247833251953,-22.940658569335938
0.14120401442050934,-0.18047551810741425,9.763969421386719,-0.0026683399501170064,0.000898769989504625,0.0006542321143777169,1.260023593902588,2019-07-25 11:35:36:282,-165.18070011542162,-165.16689064933112,0,-0.44981685280799866,43.03247833251953,-22.940658569335938
0.14599351584911346,-0.20681776106357574,9.809469223022461,-0.005065770358494353,-0.00149866035385414,0.00038785095427920163,1.27012038230896,2019-07-25 11:35:36:292,-165.45918316512487,-165.43652457137046,0,-0.44981685280799866,43.03247833251953,-22.940658569335938
0.15557251870632172,-0.19963352382183075,9.787917137145996,0.005056713010044831,0.001165151182112431,-0.005206153277752455,1.2799913883209229,2019-07-25 11:35:36:302,-165.73243325077686,-165.70722803500078,0,-0.44981685280799866,43.03247833251953,-22.940658569335938
0.16515152156352997,-0.22118626534938812,9.783126831054688,-0.0005372907668567566,-0.0033633282469787123,0.00012146980230800906,1.289984941482544,2019-07-25 11:35:36:312,-165.99655463563334,-165.96687844084988,0,-0.44981685280799866,43.03247833251953,-22.940658569335938
0.19867801666259766,-0.2020282745361328,9.780732154846191,0.0023929017341525857,-0.014018574130770671,-0.001210435973802599,1.2999801635742188,2019-07-25 11:35:36:322,-166.24548187609338,-166.22521747043044,0,-0.44981685280799866,43.03247833251953,-22.940658569335938
0.18191476166248322,-0.2020282745361328,9.799890518188477,0.00265928286174181,-0.0009658980336571096,0.002252519074968808,1.3099918365478516,2019-07-25 11:35:36:332,-166.49876013758265,-166.47858793063193,0,-0.44981685280799866,43.03247833251953,-22.940658569335938
0.15796726942062378,-0.20442302525043488,9.780732154846191,-0.002401958822527782,-0.005227996400177609,-0.0001449113496631835,1.319978952407837,2019-07-25 11:35:36:342,-166.747347286885,-166.72372239324332,0,-0.44981685280799866,43.03247833251953,-22.940658569335938
0.1627567708492279,-0.18047551810741425,9.804679870605469,-0.004799389230905129,-0.007359045420891406,0.00012146980230800906,1.3300056457519531,2019-07-25 11:35:36:352,-166.98923687229285,-166.9654553242247,0,-0.44981685280799866,43.03247833251953,-22.940658569335938
0.20586226880550385,-0.18765977025032043,9.71846866607666,-0.002401958822527782,-0.00016675460212549993,-0.0025423417417858845,1.3399848937988281,2019-07-25 11:35:36:362,-167.22508887414662,-167.20267589449477,0,-0.14993895590305328,43.632232666015625,-22.041025161743164
0.20107276737689972,-0.18526501953601837,9.790311813354492,-0.002401958822527782,-0.0006995169060678851,-0.0017431982289810482,1.349989652633667,2019-07-25 11:35:36:372,-167.4566627026206,-167.43559112006707,0,-0.14993895590305328,43.632232666015625,-22.041025161743164
0.1627567708492279,-0.19484402239322662,9.771153450012207,-0.0008036719269552719,-0.0025641848642110384,-0.004407009894984782,1.3599841594696045,2019-07-25 11:35:36:382,-167.6870048583738,-167.66358090892416,0,-0.14993895590305328,43.632232666015625,-22.041025161743164
0.17952001094818115,-0.1900545209646225,9.823838233947754,0.0023929017341525857,-0.0020314226090325893,-0.0001449113496631835,1.3700087070465088,2019-07-25 11:35:36:392,-167.9111832834894,-167.8894897851939,0,-0.14993895590305328,43.632232666015625,-22.041025161743164
0.1962832659482956,-0.17568601667881012,9.82623291015625,0.002925663989331035,-0.0030969471193894875,-0.0017431982289810482,1.3799824714660645,2019-07-25 11:35:36:402,-168.12833813108986,-168.11285246750344,0,-0.14993895590305328,43.632232666015625,-22.041025161743164
0.17473050951957703,-0.18765977025032043,9.83820629119873,-0.001336434182133721,0.0019642945648801046,-0.0001449113496631835,1.3899812698364258,2019-07-25 11:35:36:412,-168.34652440133436,-168.32798988043285,0,-0.14993895590305328,43.632232666015625,-22.041025161743164
0.21304650604724884,-0.2020282745361328,9.807074546813965,-0.0008036719269552719,-0.0054943775277668345,0.0017197566897531966,1.399989366531372,2019-07-25 11:35:36:422,-168.55161665271052,-168.5373756373465,0,-0.14993895590305328,43.632232666015625,-22.041025161743164
0.15557251870632172,-0.20681776106357574,9.792706489562988,-0.0010700530545444964,-0.006027139782945282,-0.0014768171013918236,1.409982681274414,2019-07-25 11:35:36:432,-168.7589992141775,-168.74183004439234,0,-0.14993895590305328,43.632232666015625,-22.041025161743164
0.16754627227783203,-0.20442302525043488,9.823838233947754,-0.0008036719269552719,-0.0030969471193894875,0.0033180435853257064,1.4200048446655273,2019-07-25 11:35:36:442,-168.9625346654825,-168.94269940882646,0,-0.14993895590305328,43.632232666015625,-22.041025161743164
0.15557251870632172,-0.17568601667881012,9.799890518188477,-0.0026683399501170064,-0.0030969471193894875,0.0017197566897531966,1.429999828338623,2019-07-25 11:35:36:452,-169.16335611772098,-169.1418068794089,0,-0.14993895590305328,43.632232666015625,-22.041025161743164
0.15317776799201965,-0.1373700201511383,9.778337478637695,0.0018601394789741364,0.00169791343729088,0.00411718696809338,1.4399998188018799,2019-07-25 11:35:36:462,-169.36309305788018,-169.3439179821441,0,-0.14993895590305328,43.632232666015625,-22.041025161743164
0.20107276737689972,-0.170896515250206,9.881312370300293,-0.002934721077706231,-0.00469523414499916,0.0033180435853257064,1.4499802589416504,2019-07-25 11:35:36:472,-169.5498852058129,-169.53557845998736,0,-0.14993895590305328,43.632232666015625,-22.041025161743164
0.18191476166248322,-0.1565280258655548,9.780732154846191,-0.0010700530545444964,-0.002830565991800263,0.0014533755621639719,1.4600048065185547,2019-07-25 11:35:36:482,-169.73598347172148,-169.72592724425385,0,0.44981685280799866,44.231990814208984,-22.64078140258789
0.1699410229921341,-0.17568601667881012,9.73523235321045,-4.528479676974485e-06,9.962654984569266e-05,-0.0009440547811947932,1.469984531402588,2019-07-25 11:35:36:492,-169.9213182275429,-169.91072874110773,0,0.44981685280799866,44.231990814208984,-22.64078140258789
0.1890990138053894,-0.15413327515125275,9.787917137145996,-0.0016028153097229455,-0.0036297093745679366,0.0027852813301472578,1.4799847602844238,2019-07-25 11:35:36:502,-170.0987178191197,-170.09357058097407,0,0.44981685280799866,44.231990814208984,-22.64078140258789
0.13401977717876434,-0.16610702872276306,9.790311813354492,-4.528479676974485e-06,-0.0012322792262649154,0.00012146980230800906,1.4899890422821045,2019-07-25 11:35:36:512,-170.28036576128224,-170.2722563486144,0,0.44981685280799866,44.231990814208984,-22.64078140258789
0.17473050951957703,-0.18526501953601837,9.811863899230957,-0.0010700530545444964,-0.0006995169060678851,-0.0009440547811947932,1.499983310699463,2019-07-25 11:35:36:522,-170.45396148753548,-170.4445764283025,0,0.44981685280799866,44.231990814208984,-22.64078140258789
0.1627567708492279,-0.15892277657985687,9.787917137145996,-0.0026683399501170064,-0.0017650414814433647,-0.0022759606141966597,1.510002851486206,2019-07-25 11:35:36:532,-170.62483633970433,-170.61557953150228,0,0.44981685280799866,44.231990814208984,-22.64078140258789
0.1771252602338791,-0.170896515250206,9.811863899230957,-0.001336434182133721,-0.0033633282469787123,-0.002009579356570273,1.5199799537658691,2019-07-25 11:35:36:542,-170.7897714369445,-170.78256247594243,0,0.44981685280799866,44.231990814208984,-22.64078140258789
0.1771252602338791,-0.2092125117778778,9.744811058044434,-0.005332151486083577,-0.0025641848642110384,0.0017197566897531966,1.5299828052520752,2019-07-25 11:35:36:552,-170.95170952257456,-170.9393183570993,0,0.44981685280799866,44.231990814208984,-22.64078140258789
0.14599351584911346,-0.17568601667881012,9.816654205322266,-0.002401958822527782,0.002763437947647778,-0.0038742473797320075,1.5399808883666992,2019-07-25 11:35:36:562,-171.11718587357353,-171.09867759827117,0,0.44981685280799866,44.231990814208984,-22.64078140258789
0.13162502646446228,-0.18047551810741425,9.821443557739258,-0.002934721077706231,0.0019642945648801046,-0.006005296660520129,1.550002098083496,2019-07-25 11:35:36:572,-171.28059103143906,-171.25399812246332,0,0.44981685280799866,44.231990814208984,-22.64078140258789
0.21304650604724884,-0.1565280258655548,9.811863899230957,-0.0018691964373121703,-0.0033633282469787123,-0.004939772150163231,1.5599958896636963,2019-07-25 11:35:36:582,-171.42821434714105,-171.40959009412444,0,0.44981685280799866,44.231990814208984,-22.64078140258789
0.18430951237678528,-0.19484402239322662,9.802285194396973,-0.00027090962301288673,-0.0017650414814433647,0.006248236248881503,1.5699892044067383,2019-07-25 11:35:36:592,-171.57711587604595,-171.55847144601532,0,0.44981685280799866,44.231990814208984,-22.64078140258789
0.1771252602338791,-0.1900545209646225,9.89568042755127,0.0007946149686172382,-0.004162471629746385,0.0038508058405041555,1.5799837112426758,2019-07-25 11:35:36:602,-171.72272878038538,-171.7057424198351,0,0.44981685280799866,44.231990814208984,-22.64078140258789
0.1435987651348114,-0.2092125117778778,9.761574745178223,-0.0008036719269552719,-0.0033633282469787123,-0.0004112924935070534,1.5900020599365234,2019-07-25 11:35:36:612,-171.86952632845023,-171.846619692531,0,0.14993895590305328,43.33235549926758,-22.940658569335938
0.17952001094818115,-0.19484402239322662,9.7855224609375,-4.528479676974485e-06,-0.002830565991800263,-0.002808722869375109,1.5999815464019775,2019-07-25 11:35:36:622,-172.0095297008498,-171.9868709253268,0,0.14993895590305328,43.33235549926758,-22.940658569335938
0.15317776799201965,-0.13497528433799744,9.83820629119873,0.001060996096206463,-0.0020314226090325893,0.00438356835575693,1.6099834442138672,2019-07-25 11:35:36:632,-172.15035814660362,-172.1320089635502,0,0.14993895590305328,43.33235549926758,-22.940658569335938
0.19149376451969147,-0.1565280258655548,9.82623291015625,-0.0016028153097229455,-0.0020314226090325893,0.0011869944345747473,1.6199932098388672,2019-07-25 11:35:36:642,-172.28388043607796,-172.27021548584568,0,0.14993895590305328,43.33235549926758,-22.940658569335938
0.1507830172777176,-0.17329126596450806,9.771153450012207,-0.002135577564901395,-0.0006995169060678851,0.0006542321143777169,1.6299841403961182,2019-07-25 11:35:36:652,-172.42012867578535,-172.403292473557,0,0.14993895590305328,43.33235549926758,-22.940658569335938
0.15317776799201965,-0.21400201320648193,9.792706489562988,-0.00027090962301288673,-0.003896090502157161,-0.002009579356570273,1.640000820159912,2019-07-25 11:35:36:662,-172.55161182418965,-172.5300363129681,0,0.14993895590305328,43.33235549926758,-22.940658569335938
0.16515152156352997,-0.14934377372264862,9.809469223022461,-0.003733864460473905,-0.0036297093745679366,-0.0006776736536055686,1.6499948501586914,2019-07-25 11:35:36:672,-172.67925199722868,-172.65989569164026,0,0.14993895590305328,43.33235549926758,-22.940658569335938
0.21304650604724884,-0.19484402239322662,9.799890518188477,0.0013273772237956873,-0.003896090502157161,0.00012146980230800906,1.6599888801574707,2019-07-25 11:35:36:682,-172.7985726964142,-172.78466225708698,0,0.14993895590305328,43.33235549926758,-22.940658569335938
0.15796726942062378,-0.18765977025032043,9.732837677001953,-0.002401958822527782,0.001165151182112431,0.002252519074968808,1.669987678527832,2019-07-25 11:35:36:692,-172.9246584273209,-172.9055287071057,0,0.14993895590305328,43.33235549926758,-22.940658569335938
0.19149376451969147,-0.2020282745361328,9.766364097595215,-4.528479676974485e-06,9.962654984569266e-05,-0.00547253440534168,1.680002212524414,2019-07-25 11:35:36:702,-173.04375564477127,-173.0237144083123,0,0.14993895590305328,43.33235549926758,-22.940658569335938
0.1771252602338791,-0.19484402239322662,9.79749584197998,0.001060996096206463,-0.0030969471193894875,0.00038785095427920163,1.6899826526641846,2019-07-25 11:35:36:712,-173.1604306790925,-173.1410487400142,0,0.14993895590305328,43.33235549926758,-22.940658569335938
0.1699410229921341,-0.19244927167892456,9.802285194396973,-4.528479676974485e-06,-0.00149866035385414,0.00012146980230800906,1.6999773979187012,2019-07-25 11:35:36:722,-173.276516403164,-173.25573023537294,0,0.14993895590305328,43.33235549926758,-22.940658569335938
0.1627567708492279,-0.16131752729415894,9.799890518188477,-0.003733864460473905,-0.00149866035385414,0.0027852813301472578,1.7099885940551758,2019-07-25 11:35:36:732,-173.39111399846007,-173.36965533163846,0,0.7496947646141052,43.93211364746094,-22.340904235839844
0.1962832659482956,-0.19963352382183075,9.759180068969727,-0.00027090962301288673,-0.0020314226090325893,-0.002808722869375109,1.7199783325195312,2019-07-25 11:35:36:742,-173.4991079213016,-173.47867271611827,0,0.7496947646141052,43.93211364746094,-22.340904235839844
0.21065175533294678,-0.15892277657985687,9.7759428024292,-0.0018691964373121703,-0.0022978037366218136,0.0027852813301472578,1.7300059795379639,2019-07-25 11:35:36:752,-173.6031436440897,-173.58941985377268,0,0.7496947646141052,43.93211364746094,-22.340904235839844
0.19149376451969147,-0.18047551810741425,9.730443000793457,-0.0008036719269552719,-0.004428853017409935,0.0009206132419669414,1.7399873733520508,2019-07-25 11:35:36:762,-173.70605005454388,-173.69592958799586,0,0.7496947646141052,43.93211364746094,-22.340904235839844
0.13401977717876434,-0.1972387731075287,9.787917137145996,-0.0016028153097229455,-0.00043313574596936985,0.003584424712914931,1.749985694885254,2019-07-25 11:35:36:772,-173.8159965700037,-173.79802266108362,0,0.7496947646141052,43.93211364746094,-22.340904235839844
0.15317776799201965,-0.15413327515125275,9.79749584197998,-0.0016028153097229455,9.962654984569266e-05,0.0033180435853257064,1.7599897384643555,2019-07-25 11:35:36:782,-173.9218183817188,-173.90313591697347,0,0.7496947646141052,43.93211364746094,-22.340904235839844
0.1890990138053894,-0.15892277657985687,9.802285194396973,-0.00400024558806313,-0.0012322792262649154,0.0038508058405041555,1.769982099533081,2019-07-25 11:35:36:792,-174.02058713766087,-174.00425187569954,0,0.7496947646141052,43.93211364746094,-22.340904235839844
0.14120401442050934,-0.1900545209646225,9.773548126220703,-0.0005372907668567566,-0.0030969471193894875,0.00012146980230800906,1.7800042629241943,2019-07-25 11:35:36:802,-174.1218780660426,-174.10158403731543,0,0.7496947646141052,43.93211364746094,-22.340904235839844
0.19388851523399353,-0.18526501953601837,9.795101165771484,0.000528233808518723,-0.00043313574596936985,-0.001210435973802599,1.7899820804595947,2019-07-25 11:35:36:812,-174.21651804667167,-174.1981769820203,0,0.7496947646141052,43.93211364746094,-22.340904235839844
0.19867801666259766,-0.170896515250206,9.795101165771484,0.0021265206065633614,-0.0036297093745679366,0.001986137817342421,1.799989938735962,2019-07-25 11:35:36:822,-174.30690812252914,-174.2954174960239,0,0.7496947646141052,43.93211364746094,-22.340904235839844
0.15796726942062378,-0.19484402239322662,9.821443557739258,-0.00400024558806313,-0.005760758655356059,0.001986137817342421,1.809980869293213,2019-07-25 11:35:36:832,-174.39910901498573,-174.3845346326756,0,0.7496947646141052,43.93211364746094,-22.340904235839844
0.17952001094818115,-0.1828702688217163,9.771153450012207,-0.0008036719269552719,-0.0030969471193894875,-0.0014768171013918236,1.8200042247772217,2019-07-25 11:35:36:842,-174.48833293521363,-174.47494795121847,0,0.7496947646141052,43.93211364746094,-22.340904235839844
0.1890990138053894,-0.2020282745361328,9.831022262573242,0.0015937583513849119,-0.0022978037366218136,-0.0025423417417858845,1.8299915790557861,2019-07-25 11:35:36:852,-174.57523880728493,-174.56279741296646,0,0.7496947646141052,43.93211364746094,-22.340904235839844
0.18430951237678528,-0.18765977025032043,9.749600410461426,-0.002401958822527782,-0.0012322792262649154,0.0009206132419669414,1.8399882316589355,2019-07-25 11:35:36:862,-174.66138217094772,-174.64813942281694,0,0.44981685280799866,43.632232666015625,-22.64078140258789
0.12923027575016022,-0.14694902300834656,9.740021705627441,0.0031920451169202596,-0.0036297093745679366,0.00411718696809338,1.8499808311462402,2019-07-25 11:35:36:872,-174.75091488204126,-174.73968036522425,0,0.44981685280799866,43.632232666015625,-22.64078140258789
0.12683552503585815,-0.15413327515125275,9.809469223022461,-0.001336434182133721,-0.0006995169060678851,0.005182711738524604,1.8600006103515625,2019-07-25 11:35:36:882,-174.8406872732919,-174.8261309180868,0,0.44981685280799866,43.632232666015625,-22.64078140258789
0.12444077432155609,-0.20681776106357574,9.754390716552734,-0.005065770358494353,-0.0020314226090325893,-0.002808722869375109,1.8700006008148193,2019-07-25 11:35:36:892,-174.928114764393,-174.90247120947942,0,0.44981685280799866,43.632232666015625,-22.64078140258789
0.18191476166248322,-0.1828702688217163,9.799890518188477,-0.005332151486083577,-0.002830565991800263,0.0009206132419669414,1.8799502849578857,2019-07-25 11:35:36:902,-175.00670198967518,-174.98006204639321,0,0.44981685280799866,43.632232666015625,-22.64078140258789
0.14838826656341553,-0.163712278008461,9.799890518188477,0.00026185266467485305,-0.00016675460212549993,0.002518900202558033,1.8900039196014404,2019-07-25 11:35:36:912,-175.08912388316242,-175.06146728736383,0,0.44981685280799866,43.632232666015625,-22.64078140258789
0.16515152156352997,-0.17329126596450806,9.814258575439453,-0.004799389230905129,-0.003896090502157161,-0.005738915532930904,1.8999783992767334,2019-07-25 11:35:36:922,-175.16587802068966,-175.13731853387335,0,0.44981685280799866,43.632232666015625,-22.64078140258789
0.12923027575016022,-0.13258053362369537,9.831022262573242,-0.00027090962301288673,-0.008158188803659079,-0.0022759606141966597,1.9100172519683838,2019-07-25 11:35:36:932,-175.24289948431436,-175.21896664964706,0,0.44981685280799866,43.632232666015625,-22.64078140258789
0.12683552503585815,-0.19484402239322662,9.754390716552734,-0.00400024558806313,-0.0033633282469787123,0.001986137817342421,1.9203636646270752,2019-07-25 11:35:36:942,-175.32118816550025,-175.28937674704903,0,0.44981685280799866,43.632232666015625,-22.64078140258789
0.14599351584911346,-0.17329126596450806,9.821443557739258,0.001060996096206463,9.962654984569266e-05,-0.001210435973802599,1.9303653240203857,2019-07-25 11:35:36:952,-175.39778783249122,-175.3639684217141,0,0.44981685280799866,43.632232666015625,-22.64078140258789
0.1699410229921341,-0.19244927167892456,9.842995643615723,-0.004266626715652354,-0.0036297093745679366,-0.001210435973802599,1.9399940967559814,2019-07-25 11:35:36:962,-175.4680871924555,-175.4319803099545,0,0.44981685280799866,43.632232666015625,-22.64078140258789
0.14599351584911346,-0.2092125117778778,9.75678539276123,0.00026185266467485305,-0.0022978037366218136,-0.0004112924935070534,1.9501335620880127,2019-07-25 11:35:36:972,-175.54027186414908,-175.49892194391143,0,0.44981685280799866,43.632232666015625,-22.64078140258789
0.14599351584911346,-0.15413327515125275,9.79749584197998,-0.00027090962301288673,-0.003896090502157161,-0.002009579356570273,1.9599719047546387,2019-07-25 11:35:36:982,-175.6102399972505,-175.57076790034557,0,0.44981685280799866,43.632232666015625,-22.64078140258789
0.1172565221786499,-0.1565280258655548,9.737627029418945,0.000528233808518723,-0.0022978037366218136,0.0011869944345747473,1.9699881076812744,2019-07-25 11:35:36:992,-175.68294491310695,-175.64123112804668,0,0.44981685280799866,43.632232666015625,-22.64078140258789
0.18670426309108734,-0.18047551810741425,9.740021705627441,-0.0010700530545444964,-0.00149866035385414,-0.002808722869375109,1.9799938201904297,2019-07-25 11:35:37:002,-175.74648093258978,-175.70657477598397,0,0.44981685280799866,43.632232666015625,-22.64078140258789
0.15317776799201965,-0.17329126596450806,9.780732154846191,-0.002401958822527782,-0.006027139782945282,-0.00547253440534168,1.9899919033050537,2019-07-25 11:35:37:012,-175.81022281312892,-175.77079407293405,0,0.44981685280799866,43.632232666015625,-22.64078140258789
0.13401977717876434,-0.16131752729415894,9.90765380859375,-0.0008036719269552719,-0.003896090502157161,-0.001210435973802599,2.0000038146972656,2019-07-25 11:35:37:022,-175.87632836880826,-175.83627011599924,0,0.44981685280799866,43.632232666015625,-22.64078140258789
0.09570377320051193,-0.13497528433799744,9.874127388000488,0.002925663989331035,-0.0025641848642110384,-0.0038742473797320075,2.009990692138672,2019-07-25 11:35:37:032,-175.94625760542218,-175.90552209225177,0,0.44981685280799866,43.632232666015625,-22.64078140258789
0.1172565221786499,-0.24034427106380463,9.929206848144531,-0.0008036719269552719,-0.0054943775277668345,-0.004939772150163231,2.0199942588806152,2019-07-25 11:35:37:042,-176.01071448859219,-175.9592278549561,0,0.44981685280799866,43.632232666015625,-22.64078140258789
0.15317776799201965,-0.1828702688217163,9.886101722717285,-0.0005372907668567566,-0.0033633282469787123,-0.002009579356570273,2.029993772506714,2019-07-25 11:35:37:052,-176.07085810021707,-176.018547224304,0,0.44981685280799866,43.632232666015625,-22.64078140258789
0.25136250257492065,-0.19963352382183075,9.845390319824219,0.002925663989331035,0.002763437947647778,-0.005206153277752455,2.0400092601776123,2019-07-25 11:35:37:062,-176.12174500969675,-176.0765892030737,0,0.44981685280799866,43.632232666015625,-22.64078140258789
0.2824942469596863,-0.216396763920784,9.871732711791992,0.007454143678496503,0.00569363035112925,-0.006538058915698578,2.0499894618988037,2019-07-25 11:35:37:072,-176.1697176213551,-176.13411920349995,0,0.44981685280799866,43.632232666015625,-22.64078140258789
0.3327839970588684,-0.24034427106380463,9.761574745178223,0.003458426504583809,-0.0017650414814433647,-0.007869964553644701,2.0600008964538574,2019-07-25 11:35:37:082,-176.20628052987382,-176.18517252028656,0,0.44981685280799866,43.632232666015625,-22.64078140258789
0.44773197174072266,-0.2427390068769455,9.778337478637695,0.003991188759762259,-0.00016675460212549993,0.001986137817342421,2.06999135017395,2019-07-25 11:35:37:092,-176.2296286448201,-176.23526742755772,0,0.44981685280799866,43.632232666015625,-22.64078140258789
0.43336349725723267,-0.2882392704486847,9.701705932617188,0.006655000295728829,0.0003660077018168852,0.0006542321143777169,2.080010414123535,2019-07-25 11:35:37:102,-176.25408931343486,-176.2802706486273,0,0.44981685280799866,43.632232666015625,-22.64078140258789
0.41420549154281616,-0.23316001892089844,9.708889961242676,-0.00027090962301288673,-0.0006995169060678851,-0.0009440547811947932,2.0899908542633057,2019-07-25 11:35:37:112,-176.2797575244797,-176.32699942227606,0,0.5997558236122131,43.482295989990234,-22.790719985961914
0.39025798439979553,-0.24513375759124756,9.701705932617188,0.002925663989331035,-0.005227996400177609,0.009178428652362973,2.0999810695648193,2019-07-25 11:35:37:122,-176.30515930642034,-176.37315280382094,0,0.5997558236122131,43.482295989990234,-22.790719985961914
0.3782842457294464,-0.2690812647342682,9.716073989868164,0.0021265206065633614,-0.0006995169060678851,0.004649949483346154,2.1099915504455566,2019-07-25 11:35:37:132,-176.33407053850485,-176.41515765254263,0,0.5997558236122131,43.482295989990234,-22.790719985961914
0.3734947443008423,-0.24034427106380463,9.737627029418945,-0.0016028153097229455,-0.00149866035385414,0.006248236248881503,2.1199958324432373,2019-07-25 11:35:37:142,-176.36261626562106,-176.45767636935057,0,0.5997558236122131,43.482295989990234,-22.790719985961914
0.3255997598171234,-0.2020282745361328,9.790311813354492,-0.0016028153097229455,-0.0036297093745679366,0.008645666397184523,2.1300041675567627,2019-07-25 11:35:37:152,-176.39522809788878,-176.50397889307928,0,0.5997558236122131,43.482295989990234,-22.790719985961914
0.2609415054321289,-0.170896515250206,9.809469223022461,0.0015937583513849119,-0.002830565991800263,0.006780998504059952,2.1399919986724854,2019-07-25 11:35:37:162,-176.43526081896226,-176.5548314713246,0,0.5997558236122131,43.482295989990234,-22.790719985961914
0.21783600747585297,-0.2020282745361328,9.79749584197998,0.003724807632173034,-0.00043313574596936985,0.003051662457736482,2.1499905586242676,2019-07-25 11:35:37:172,-176.4808385195142,-176.6022001265186,0,0.5997558236122131,43.482295989990234,-22.790719985961914
0.2082570195198059,-0.12060678005218506,9.809469223022461,0.005323094137634056,-0.006559902038123733,-0.0004112924935070534,2.1599957942962646,2019-07-25 11:35:37:182,-176.52321207842286,-176.6590583519082,0,0.5997558236122131,43.482295989990234,-22.790719985961914
0.13880927860736847,-0.14215952157974243,9.842995643615723,0.002925663989331035,-0.00469523414499916,0.0038508058405041555,2.1699934005737305,2019-07-25 11:35:37:192,-176.57395307937216,-176.7109705731983,0,0.5997558236122131,43.482295989990234,-22.790719985961914
0.07654578238725662,-0.163712278008461,9.821443557739258,0.00026185266467485305,-0.004428853017409935,0.002252519074968808,2.179955005645752,2019-07-25 11:35:37:202,-176.63106598295516,-176.7577982881678,0,0.5997558236122131,43.482295989990234,-22.790719985961914
0.08373002707958221,-0.15173852443695068,9.874127388000488,-0.002401958822527782,-0.004961615272588385,-0.004407009894984782,2.1899943351745605,2019-07-25 11:35:37:212,-176.68593093341255,-176.80368009657658,0,0.5997558236122131,43.482295989990234,-22.790719985961914
0.08133527636528015,-0.1373700201511383,9.7855224609375,-0.0016028153097229455,-0.007625426548480631,-0.01373034936060764,2.199995517730713,2019-07-25 11:35:37:222,-176.738405743332,-176.85062100290756,0,0.5997558236122131,43.482295989990234,-22.790719985961914
-8.621098822914064e-05,-0.15413327515125275,9.768758773803711,-0.006131294868851251,-0.0054943775277668345,-0.012664824850250743,2.210020065307617,2019-07-25 11:35:37:232,-169.60055508272634,-176.892078451017,0,-0.29987791180610657,42.58266067504883,-23.690353393554688
0.035835035145282745,-0.15413327515125275,9.71846866607666,-0.00400024558806313,-0.004428853017409935,-0.016127780029059315,2.2199549674987793,2019-07-25 11:35:37:242,-169.8018480443994,-176.93383286680367,0,-0.29987791180610657,42.58266067504883,-23.690353393554688
0.011887537315487862,-0.15892277657985687,9.831022262573242,-0.002934721077706231,-0.0062935209105345075,-0.016926922891678336,2.2299702167510986,2019-07-25 11:35:37:252,-170.00088626655474,-176.974983241151,0,-0.29987791180610657,42.58266067504883,-23.690353393554688
-0.05995495244860649,-0.1301857829093933,9.816654205322266,-0.005864913741262027,-0.005227996400177609,-0.019590735207867884,2.239994525909424,2019-07-25 11:35:37:262,-163.00492445411106,-177.01698650159128,0,-0.29987791180610657,42.58266067504883,-23.690353393554688
-0.05756020545959473,-0.15413327515125275,9.780732154846191,-0.0066640571240297,-0.0022978037366218136,-0.026250262877449845,2.249992609024048,2019-07-25 11:35:37:272,-156.1502797039854,-177.0548487909975,0,-0.29987791180610657,42.58266067504883,-23.690353393554688
-0.05995495244860649,-0.1828702688217163,9.864548683166504,-0.00400024558806313,-0.0036297093745679366,-0.027582170075841923,2.260002613067627,2019-07-25 11:35:37:282,-149.43219857720277,-177.09026273846814,0,-0.29987791180610657,42.58266067504883,-23.690353393554688
-0.03121795691549778,-0.16850177943706512,9.828627586364746,-0.005065770358494353,-0.009756476089343078,-0.023320069953819727,2.269989490509033,2019-07-25 11:35:37:292,-142.84172322280864,-177.12597316534777,0,-0.29987791180610657,42.58266067504883,-23.690353393554688
-0.026428457349538803,-0.19963352382183075,9.857364654541016,-0.005065770358494353,-0.005760758655356059,-0.02545111897453352,2.279999256134033,2019-07-25 11:35:37:302,-136.38472323398662,-177.1574023378305,0,-0.29987791180610657,42.58266067504883,-23.690353393554688
0.01667703688144684,-0.19244927167892456,9.799890518188477,-0.002401958822527782,-0.0033633282469787123,-0.03317617323506699,2.2899937629699707,2019-07-25 11:35:37:312,-137.25319123392757,-177.19040585147746,0,-0.29987791180610657,42.58266067504883,-23.690353393554688
0.08612477779388428,-0.2092125117778778,9.804679870605469,-0.008528725017154272,-0.004961615272588385,-0.028381311898163647,2.2999908924102783,2019-07-25 11:35:37:322,-138.0952767501703,-177.21736237524365,0,-0.29987791180610657,42.58266067504883,-23.690353393554688
0.05499303340911865,-0.1900545209646225,9.845390319824219,-0.00400024558806313,-0.006027139782945282,-0.023852833249295477,2.310012102127075,2019-07-25 11:35:37:332,-138.92357917466032,-177.24864632784582,0,-0.29987791180610657,42.58266067504883,-23.690353393554688
0.09330902993679047,-0.21160726249217987,9.7759428024292,-0.003733864460473905,-0.00149866035385414,-0.03317617323506699,2.3199782371520996,2019-07-25 11:35:37:342,-139.73333178772978,-177.27678365307497,0,-0.29987791180610657,42.58266067504883,-23.690353393554688
0.05499303340911865,-0.18526501953601837,9.807074546813965,-0.008262343889565048,-0.0009658980336571096,-0.026516645565485022,2.3299968242645264,2019-07-25 11:35:37:352,-140.53169615516788,-177.30495519492558,0,-0.29987791180610657,42.58266067504883,-23.690353393554688
0.10288802534341812,-0.170896515250206,9.787917137145996,-0.003733864460473905,-0.006559902038123733,-0.024918357759652374,2.3399910926818848,2019-07-25 11:35:37:362,-141.30533584576887,-177.33675514004327,0,0.7496947646141052,43.33235549926758,-22.64078140258789
0.06696677953004837,-0.16850177943706512,9.759180068969727,0.005323094137634056,-0.004961615272588385,-0.02012349642274903,2.3499531745910645,2019-07-25 11:35:37:372,-142.0685906868641,-177.3732142274031,0,0.7496947646141052,43.33235549926758,-22.64078140258789
0.05978253111243248,-0.17329126596450806,9.852575302124023,-0.0016028153097229455,-0.00043313574596936985,-0.016926922891678336,2.359990358352661,2019-07-25 11:35:37:382,-142.82002176999566,-177.40469384713478,0,0.7496947646141052,43.33235549926758,-22.64078140258789
0.02386128529906273,-0.16131752729415894,9.857364654541016,-0.006131294868851251,-0.00469523414499916,-0.019057971912392134,2.369995355606079,2019-07-25 11:35:37:392,-143.55820978793966,-177.4344040973126,0,0.7496947646141052,43.33235549926758,-22.64078140258789
0.043019283562898636,-0.16131752729415894,9.811863899230957,-0.0005372907668567566,-0.0030969471193894875,-0.01373034936060764,2.379995584487915,2019-07-25 11:35:37:402,-144.28028248344125,-177.46657594088754,0,0.7496947646141052,43.33235549926758,-22.64078140258789
0.04062453284859657,-0.14694902300834656,9.811863899230957,-0.0010700530545444964,-0.0022978037366218136,-0.014795873870964541,2.389989137649536,2019-07-25 11:35:37:412,-144.98864298946165,-177.49948326230012,0,0.7496947646141052,43.33235549926758,-22.64078140258789
0.06696677953004837,-0.16850177943706512,9.807074546813965,-0.001336434182133721,-0.004162471629746385,-0.014529493263523966,2.3999526500701904,2019-07-25 11:35:37:422,-145.6787167693457,-177.52905913895043,0,0.7496947646141052,43.33235549926758,-22.64078140258789
0.08133527636528015,-0.16131752729415894,9.74720573425293,-0.004266626715652354,-0.00043313574596936985,-0.01133291973245327,2.409994602203369,2019-07-25 11:35:37:432,-146.35533637095253,-177.55710887924477,0,0.7496947646141052,43.33235549926758,-22.64078140258789
0.11007227748632431,-0.17568601667881012,9.778337478637695,-0.0005372907668567566,0.0035625813304154524,-0.01879159130495156,2.419994831085205,2019-07-25 11:35:37:442,-147.0173313360539,-177.58507871713672,0,0.7496947646141052,43.33235549926758,-22.64078140258789
0.18191476166248322,-0.2020282745361328,9.7759428024292,-0.0026683399501170064,-0.00469523414499916,-0.010001013574358498,2.429992914199829,2019-07-25 11:35:37:452,-147.65302763958513,-177.6082011988975,0,0.7496947646141052,43.33235549926758,-22.64078140258789
0.1627567708492279,-0.18526501953601837,9.682547569274902,-0.005065770358494353,-0.00149866035385414,-0.011066538084715397,2.439955472946167,2019-07-25 11:35:37:462,-148.27986852564305,-177.63128022795658,0,0.7496947646141052,43.33235549926758,-22.64078140258789
0.1364145278930664,-0.22597576677799225,9.816654205322266,-0.003733864460473905,-0.0030969471193894875,-0.005738915532930904,2.449974536895752,2019-07-25 11:35:37:472,-148.8966060216765,-177.65018016946186,0,0.7496947646141052,43.33235549926758,-22.64078140258789
0.17233577370643616,-0.1373700201511383,9.831022262573242,0.0007946149686172382,-0.00149866035385414,-0.005206153277752455,2.459993839263916,2019-07-25 11:35:37:482,-149.4977451766833,-177.68161263237164,0,0.44981685280799866,43.33235549926758,-22.940658569335938
0.1771252602338791,-0.17808076739311218,9.795101165771484,-0.002135577564901395,-0.005227996400177609,-0.004673391022574007,2.469989538192749,2019-07-25 11:35:37:492,-150.08413663728376,-177.70595063924566,0,0.44981685280799866,43.33235549926758,-22.940658569335938
0.18670426309108734,-0.12539628148078918,9.761574745178223,0.001060996096206463,-0.0036297093745679366,-0.002808722869375109,2.480015993118286,2019-07-25 11:35:37:502,-150.65849581168317,-177.7377094348766,0,0.44981685280799866,43.33235549926758,-22.940658569335938
0.16515152156352997,-0.1301857829093933,9.754390716552734,-0.0016028153097229455,0.003029819075237003,-0.0004112924935070534,2.4899895191192627,2019-07-25 11:35:37:512,-151.22762299551482,-177.7667647358445,0,0.44981685280799866,43.33235549926758,-22.940658569335938
0.17952001094818115,-0.15173852443695068,9.804679870605469,-0.002401958822527782,-0.0020314226090325893,-0.0014768171013918236,2.4999969005584717,2019-07-25 11:35:37:522,-151.78095011209598,-177.79234682316982,0,0.44981685280799866,43.33235549926758,-22.940658569335938
0.16515152156352997,-0.13497528433799744,9.814258575439453,0.00265928286174181,-0.007359045420891406,0.00411718696809338,2.5099916458129883,2019-07-25 11:35:37:532,-152.3219198689276,-177.82223352715116,0,0.44981685280799866,43.33235549926758,-22.940658569335938
0.20107276737689972,-0.170896515250206,9.761574745178223,0.00026185266467485305,-0.0036297093745679366,0.00411718696809338,2.5199944972991943,2019-07-25 11:35:37:542,-152.8498421296446,-177.8458763599351,0,0.44981685280799866,43.33235549926758,-22.940658569335938
0.2489677518606186,-0.18765977025032043,9.763969421386719,0.0021265206065633614,-0.0006995169060678851,0.008645666397184523,2.5299558639526367,2019-07-25 11:35:37:552,-153.3632410899348,-177.86812690862104,0,0.44981685280799866,43.33235549926758,-22.940658569335938
0.2489677518606186,-0.19484402239322662,9.831022262573242,-0.00346748333288468,-0.0006995169060678851,0.007047379631649175,2.539994478225708,2019-07-25 11:35:37:562,-153.86656819935553,-177.88610158826734,0,0.44981685280799866,43.33235549926758,-22.940658569335938
0.2609415054321289,-0.17329126596450806,9.847785949707031,0.001060996096206463,-0.0020314226090325893,0.00411718696809338,2.549997329711914,2019-07-25 11:35:37:572,-154.35773909766027,-177.9088129045613,0,0.44981685280799866,43.33235549926758,-22.940658569335938
0.2417835146188736,-0.17808076739311218,9.74720573425293,-0.001336434182133721,0.0006323888619154005,0.009444810300100848,2.560023784637451,2019-07-25 11:35:37:582,-154.84252125300034,-177.92895078649497,0,0.44981685280799866,43.33235549926758,-22.940658569335938
0.2681257426738739,-0.19484402239322662,9.790311813354492,-0.0005372907668567566,-0.0009658980336571096,0.013973288948969015,2.5699901580810547,2019-07-25 11:35:37:592,-155.3137551323344,-177.94726841879225,0,0.44981685280799866,43.33235549926758,-22.940658569335938
0.3016522526741028,-0.163712278008461,9.790311813354492,0.00265928286174181,-0.0020314226090325893,0.015571575714504363,2.5800113677978516,2019-07-25 11:35:37:602,-155.77104098464895,-177.97065934039,0,0.44981685280799866,43.33235549926758,-22.940658569335938
0.34236299991607666,-0.19244927167892456,9.744811058044434,0.001060996096206463,-0.006559902038123733,0.015837957362242236,2.5899925231933594,2019-07-25 11:35:37:612,-156.21170099977226,-177.9892131510362,0,0.7496947646141052,43.03247833251953,-22.64078140258789
0.33757349848747253,-0.20442302525043488,9.711284637451172,-0.002135577564901395,-0.0012322792262649154,0.019567293148491382,2.5999999046325684,2019-07-25 11:35:37:622,-156.646957461323,-178.00411086059748,0,0.7496947646141052,43.03247833251953,-22.64078140258789
0.34954723715782166,-0.18047551810741425,9.713679313659668,-0.002135577564901395,-0.004428853017409935,0.026226822898667946,2.6099939346313477,2019-07-25 11:35:37:632,-157.07031495706767,-178.02154212081123,0,0.7496947646141052,43.03247833251953,-22.64078140258789
0.3279944956302643,-0.23316001892089844,9.732837677001953,-0.0016028153097229455,-0.004428853017409935,0.03048892094009554,2.619955062866211,2019-07-25 11:35:37:642,-157.48782903433977,-178.03276847508587,0,0.7496947646141052,43.03247833251953,-22.64078140258789
0.31602075695991516,-0.2020282745361328,9.74720573425293,0.00026185266467485305,-0.0030969471193894875,0.03208720666533359,2.6299691200256348,2019-07-25 11:35:37:652,-157.89919158196457,-178.04851259205856,0,0.7496947646141052,43.03247833251953,-22.64078140258789
0.2800995111465454,-0.20442302525043488,9.744811058044434,0.000528233808518723,-0.0022978037366218136,0.039013117022950725,2.639996290206909,2019-07-25 11:35:37:662,-158.30698552745034,-178.06380468243813,0,0.7496947646141052,43.03247833251953,-22.64078140258789
0.28967851400375366,-0.19963352382183075,9.888496398925781,0.001060996096206463,-0.0062935209105345075,0.03341911178313106,2.6499898433685303,2019-07-25 11:35:37:672,-158.70375487014365,-178.0799928225974,0,0.7496947646141052,43.03247833251953,-22.64078140258789
0.30404698848724365,-0.18526501953601837,9.751995086669922,0.0015937583513849119,0.0006323888619154005,0.040877783355629346,2.659956932067871,2019-07-25 11:35:37:682,-159.0943179868986,-178.09751782564092,0,0.7496947646141052,43.03247833251953,-22.64078140258789
0.25854676961898804,-0.16610702872276306,9.802285194396973,0.004257569887351483,-0.0017650414814433647,0.03848035580806958,2.669992446899414,2019-07-25 11:35:37:692,-159.4812191774577,-178.11855004368755,0,0.7496947646141052,43.03247833251953,-22.64078140258789
0.2609415054321289,-0.17808076739311218,9.792706489562988,0.003458426504583809,-0.0033633282469787123,0.041676927258545673,2.679995059967041,2019-07-25 11:35:37:702,-159.85917836247086,-178.13728522683448,0,0.7496947646141052,43.03247833251953,-22.64078140258789
0.28967851400375366,-0.1828702688217163,9.83820629119873,0.0013273772237956873,-0.004961615272588385,0.04727093041777074,2.689997911453247,2019-07-25 11:35:37:712,-160.2254771916955,-178.15398749794338,0,0.7496947646141052,43.03247833251953,-22.64078140258789
0.25136250257492065,-0.19963352382183075,9.773548126220703,0.0015937583513849119,-0.00149866035385414,0.042742453849497174,2.699993848800659,2019-07-25 11:35:37:722,-160.5906615827759,-178.16839917383808,0,0.7496947646141052,43.03247833251953,-22.64078140258789
0.28488901257514954,-0.13976477086544037,9.780732154846191,0.002925663989331035,0.003029819075237003,0.038213973120034404,2.7099974155426025,2019-07-25 11:35:37:732,-160.94718188912228,-178.1903007349195,0,1.6493284702301025,43.03247833251953,-22.340904235839844
0.2681257426738739,-0.16131752729415894,9.79749584197998,0.006388619168139605,-0.002830565991800263,0.04220968847342682,2.7199935913085938,2019-07-25 11:35:37:742,-161.29529732568966,-178.21121454826942,0,1.6493284702301025,43.03247833251953,-22.340904235839844
0.2154412567615509,-0.12060678005218506,9.811863899230957,0.000528233808518723,-0.003896090502157161,0.042476071161461994,2.72999906539917,2019-07-25 11:35:37:752,-161.64204545349736,-178.23320221316231,0,1.6493284702301025,43.03247833251953,-22.340904235839844
0.22502025961875916,-0.163712278008461,9.701705932617188,0.006388619168139605,-0.0030969471193894875,0.04007863945271302,2.7399890422821045,2019-07-25 11:35:37:762,-161.98089388486963,-178.25278675747,0,1.6493284702301025,43.03247833251953,-22.340904235839844
0.22980976104736328,-0.163712278008461,9.802285194396973,0.002925663989331035,0.0006323888619154005,0.04007863945271302,2.7499544620513916,2019-07-25 11:35:37:772,-162.31476935720355,-178.27023143668995,0,1.6493284702301025,43.03247833251953,-22.340904235839844
0.16754627227783203,-0.14934377372264862,9.799890518188477,0.003458426504583809,-0.007625426548480631,0.03874673433491555,2.7599880695343018,2019-07-25 11:35:37:782,-162.64458839066802,-178.28931360085343,0,1.6493284702301025,43.03247833251953,-22.340904235839844
0.19388851523399353,-0.19244927167892456,9.866943359375,0.0031920451169202596,-0.00469523414499916,0.03421825568604738,2.7699947357177734,2019-07-25 11:35:37:792,-162.96654379658133,-178.30297323654034,0,1.6493284702301025,43.03247833251953,-22.340904235839844
0.1627567708492279,-0.14694902300834656,9.835811614990234,0.005056713010044831,-0.0009658980336571096,0.02809148923134657,2.779994010925293,2019-07-25 11:35:37:802,-163.28771045569928,-178.32263396548512,0,1.6493284702301025,43.03247833251953,-22.340904235839844
0.14599351584911346,-0.17568601667881012,9.842995643615723,0.003724807632173034,-0.0022978037366218136,0.021431961561764603,2.789989948272705,2019-07-25 11:35:37:812,-163.60367132662068,-178.33782082285327,0,1.6493284702301025,43.03247833251953,-22.340904235839844
0.12683552503585815,-0.24034427106380463,9.766364097595215,0.003991188759762259,-0.00043313574596936985,0.018235388030693907,2.7999536991119385,2019-07-25 11:35:37:822,-163.91647443617657,-178.34510273606514,0,1.6493284702301025,43.03247833251953,-22.340904235839844
0.12683552503585815,-0.20442302525043488,9.778337478637695,-0.002401958822527782,-0.0025641848642110384,0.012108621575993093,2.8099935054779053,2019-07-25 11:35:37:832,-164.22183650911458,-178.35289393344348,0,1.6493284702301025,43.03247833251953,-22.340904235839844
0.13162502646446228,-0.1900545209646225,9.840600967407227,0.001060996096206463,-0.004428853017409935,0.007047379631649175,2.8199949264526367,2019-07-25 11:35:37:842,-164.51958610978184,-178.3643032218825,0,1.6493284702301025,43.03247833251953,-22.340904235839844
0.1507830172777176,-0.2092125117778778,9.852575302124023,-0.002934721077706231,-0.0033633282469787123,0.0027852813301472578,2.829990863800049,2019-07-25 11:35:37:852,-164.80977101979383,-178.3710409290278,0,1.6493284702301025,43.03247833251953,-22.340904235839844
0.15317776799201965,-0.2283705174922943,9.79749584197998,-0.0008036719269552719,-0.0054943775277668345,-0.0036078662521427827,2.840012788772583,2019-07-25 11:35:37:862,-165.09256953017436,-178.37646246929071,0,-0.5997558236122131,42.58266067504883,-22.490842819213867
0.12923027575016022,-0.21160726249217987,9.761574745178223,-0.005065770358494353,-0.00016675460212549993,-0.008136345681233927,2.8499882221221924,2019-07-25 11:35:37:872,-165.37545522388004,-178.38125900403196,0,-0.5997558236122131,42.58266067504883,-22.490842819213867
0.11007227748632431,-0.24513375759124756,9.759180068969727,-0.002934721077706231,-0.00469523414499916,-0.013463968753167068,2.8599886894226074,2019-07-25 11:35:37:882,-165.6523855725264,-178.3832085345715,0,-0.5997558236122131,42.58266067504883,-22.490842819213867
0.11965127289295197,-0.2427390068769455,9.763969421386719,-0.004266626715652354,-0.006027139782945282,-0.019324354600427307,2.869985580444336,2019-07-25 11:35:37:892,-165.92191291413351,-178.38466701944736,0,-0.5997558236122131,42.58266067504883,-22.490842819213867
0.13880927860736847,-0.24992325901985168,9.708889961242676,-0.001336434182133721,-0.003896090502157161,-0.016127780029059315,2.879990577697754,2019-07-25 11:35:37:902,-166.18490372313642,-178.3867316042696,0,-0.5997558236122131,42.58266067504883,-22.490842819213867
0.08612477779388428,-0.24992325901985168,9.75678539276123,-0.002934721077706231,-0.0030969471193894875,-0.02518473836709295,2.8899946212768555,2019-07-25 11:35:37:912,-166.44935108791535,-178.38800187757352,0,-0.5997558236122131,42.58266067504883,-22.490842819213867
0.08133527636528015,-0.27147600054740906,9.859759330749512,-0.005864913741262027,-0.005760758655356059,-0.026516645565485022,2.8999953269958496,2019-07-25 11:35:37:922,-166.70767648986353,-178.38540509980965,0,-0.5997558236122131,42.58266067504883,-22.490842819213867
0.14120401442050934,-0.24752850830554962,9.82623291015625,-0.008262343889565048,-0.00469523414499916,-0.028381311898163647,2.9099936485290527,2019-07-25 11:35:37:932,-166.95442123913196,-178.38419830658302,0,-0.5997558236122131,42.58266067504883,-22.490842819213867
0.10528277605772018,-0.23794952034950256,9.768758773803711,-0.001336434182133721,-0.003896090502157161,-0.02891407519363939,2.920003652572632,2019-07-25 11:35:37:942,-167.20079335170269,-178.3878562445684,0,-0.5997558236122131,42.58266067504883,-22.490842819213867
0.08612477779388428,-0.24034427106380463,9.780732154846191,-0.009327868399921946,-0.0054943775277668345,-0.03211064872471009,2.9299798011779785,2019-07-25 11:35:37:952,-167.4436095952159,-178.38672083450157,0,-0.5997558236122131,42.58266067504883,-22.490842819213867
0.09570377320051193,-0.2427390068769455,9.783126831054688,-0.009860630655100395,-0.0036297093745679366,-0.034241697745423884,2.939995527267456,2019-07-25 11:35:37:962,-167.68148652041057,-178.38501434741463,0,-0.5997558236122131,42.58266067504883,-22.490842819213867
0.08133527636528015,-0.24992325901985168,9.7855224609375,-0.005332151486083577,-0.005227996400177609,-0.031844268117269516,2.949991226196289,2019-07-25 11:35:37:972,-167.91539814127208,-178.38506091038252,0,-0.5997558236122131,42.58266067504883,-22.490842819213867
0.098098523914814,-0.21400201320648193,9.763969421386719,-0.0008036719269552719,-0.0030969471193894875,-0.03211064872471009,2.9599969387054443,2019-07-25 11:35:37:982,-168.143837635931,-178.39179656420697,0,-0.29987791180610657,42.882537841796875,-22.490842819213867
0.14838826656341553,-0.21160726249217987,9.773548126220703,-0.00346748333288468,-0.00469523414499916,-0.0393029396897678,2.96999192237854,2019-07-25 11:35:37:992,-168.3609291504259,-178.39720825945653,0,-0.29987791180610657,42.882537841796875,-22.490842819213867
0.11486177146434784,-0.17568601667881012,9.807074546813965,0.004257569887351483,-0.0006995169060678851,-0.03797103457197033,2.979994773864746,2019-07-25 11:35:38:002,-168.57989717428043,-178.41112941588264,0,-0.29987791180610657,42.882537841796875,-22.490842819213867
0.05499303340911865,-0.20681776106357574,9.790311813354492,-0.003733864460473905,-0.005227996400177609,-0.03690550798101883,2.9899532794952393,2019-07-25 11:35:38:012,-168.79893925876266,-178.41661540184765,0,-0.29987791180610657,42.882537841796875,-22.490842819213867
0.07415103167295456,-0.170896515250206,9.802285194396973,-0.0016028153097229455,-0.007359045420891406,-0.03663912945417286,2.999990224838257,2019-07-25 11:35:38:022,-169.01014480795246,-178.42740351534556,0,-0.29987791180610657,42.882537841796875,-22.490842819213867
0.06936153024435043,-0.1373700201511383,9.79749584197998,-0.0010700530545444964,0.0003660077018168852,-0.03797103457197033,3.0099925994873047,2019-07-25 11:35:38:032,-169.22203508099864,-178.44218871750365,0,-0.29987791180610657,42.882537841796875,-22.490842819213867
0.05259828269481659,-0.16610702872276306,9.823838233947754,-0.00027090962301288673,-0.0030969471193894875,-0.034241697745423884,3.019990921020508,2019-07-25 11:35:38:042,-169.42972039675286,-178.45381890875677,0,-0.29987791180610657,42.882537841796875,-22.490842819213867
0.0717562809586525,-0.22118626534938812,9.828627586364746,-0.004533008103315903,-0.0006995169060678851,-0.03770465188393515,3.029989719390869,2019-07-25 11:35:38:052,-169.63236737199475,-178.45641389620326,0,-0.29987791180610657,42.882537841796875,-22.490842819213867
0.019071785733103752,-0.15413327515125275,9.804679870605469,0.0021265206065633614,-0.0009658980336571096,-0.036372746766137685,3.039994955062866,2019-07-25 11:35:38:062,-169.83694839041016,-178.47046753919852,0,-0.29987791180610657,42.882537841796875,-22.490842819213867
0.06217728182673454,-0.19484402239322662,9.890891075134277,0.001060996096206463,-0.002830565991800263,-0.034241697745423884,3.0499963760375977,2019-07-25 11:35:38:072,-170.0314163434448,-178.4790831598933,0,-0.29987791180610657,42.882537841796875,-22.490842819213867
0.10767752677202225,-0.13497528433799744,9.816654205322266,-0.00027090962301288673,-0.0012322792262649154,-0.032643409939591236,3.059993028640747,2019-07-25 11:35:38:082,-170.21752743899683,-178.49359451883674,0,-0.29987791180610657,42.882537841796875,-22.490842819213867
0.1172565221786499,-0.10384353250265121,9.847785949707031,-4.528479676974485e-06,-0.003896090502157161,-0.031577885429234336,3.070007562637329,2019-07-25 11:35:38:092,-170.39734241292763,-178.51163700942826,0,-0.29987791180610657,42.882537841796875,-22.490842819213867
0.16515152156352997,-0.10623828321695328,9.890891075134277,-0.0018691964373121703,0.0006323888619154005,-0.02598388227000927,3.079990863800049,2019-07-25 11:35:38:102,-170.57061809860087,-178.52804863881843,0,-0.29987791180610657,42.882537841796875,-22.490842819213867
0.2417835146188736,-0.1565280258655548,9.842995643615723,0.0018601394789741364,-0.004428853017409935,-0.027848550683282496,3.0899906158447266,2019-07-25 11:35:38:112,-170.72857637246605,-178.54031074386788,0,0.7496947646141052,43.93211364746094,-22.940658569335938
0.2537572681903839,-0.1565280258655548,9.720863342285156,0.00026185266467485305,-0.0012322792262649154,-0.02811493129072307,3.0999953746795654,2019-07-25 11:35:38:122,-170.88340594999704,-178.55120137411,0,0.7496947646141052,43.93211364746094,-22.940658569335938
0.2824942469596863,-0.1565280258655548,9.819048881530762,0.003458426504583809,0.0051608680959508,-0.019324354600427307,3.109992504119873,2019-07-25 11:35:38:132,-171.03567589497584,-178.5638528980453,0,0.7496947646141052,43.93211364746094,-22.940658569335938
0.23699401319026947,-0.1373700201511383,9.7855224609375,0.0007946149686172382,-0.007625426548480631,-0.019057971912392134,3.119995594024658,2019-07-25 11:35:38:142,-171.18293206413736,-178.57693674647726,0,0.7496947646141052,43.93211364746094,-22.940658569335938
0.18670426309108734,-0.28584450483322144,9.89568042755127,-0.009061487792481372,-0.004162471629746385,-0.01373034936060764,3.130002975463867,2019-07-25 11:35:38:152,-171.33531676599418,-178.56721477221993,0,0.7496947646141052,43.93211364746094,-22.940658569335938
-0.033612705767154694,-0.38163450360298157,9.845390319824219,-0.007995962761975823,-0.012686667972675897,-0.016926922891678336,3.1399946212768555,2019-07-25 11:35:38:162,-164.3054050388662,-178.54698788134957,0,0.7496947646141052,43.93211364746094,-22.940658569335938
0.15317776799201965,-0.25950226187705994,9.675363540649414,0.00265928286174181,0.006226392606307698,-0.0070708211708770275,3.149991750717163,2019-07-25 11:35:38:172,-164.60465173180842,-178.54681372193085,0,0.7496947646141052,43.93211364746094,-22.940658569335938
0.4189949929714203,-0.20442302525043488,9.816654205322266,-0.0010700530545444964,-0.01108838120714055,0.0065146173764707264,3.1599998474121094,2019-07-25 11:35:38:182,-164.8574471790663,-178.55141691098575,0,0.7496947646141052,43.93211364746094,-22.940658569335938
0.06217728182673454,-0.0918697789311409,9.644231796264648,0.016777483144119365,0.010754872295473165,0.004916330610935379,3.1700143814086914,2019-07-25 11:35:38:192,-165.1589581338001,-178.57890727616132,0,0.7496947646141052,43.93211364746094,-22.940658569335938
0.37588948011398315,-0.010448292829096317,9.807074546813965,0.005589475785371931,-0.008158188803659079,0.021698342169205177,3.1799910068511963,2019-07-25 11:35:38:202,-165.40730924381077,-178.60923943882102,0,0.7496947646141052,43.93211364746094,-22.940658569335938
0.34954723715782166,-0.2427390068769455,9.660995483398438,-0.012258061323552068,-0.00469523414499916,0.027292347409024847,3.189995050430298,2019-07-25 11:35:38:212,-165.65508300369265,-178.6013831389825,0,0.7496947646141052,43.93211364746094,-22.940658569335938
0.15796726942062378,0.16197368502616882,9.807074546813965,0.014113671868227118,0.0032962002028262276,0.025694059603192196,3.1999917030334473,2019-07-25 11:35:38:222,-165.92537531816885,-171.45620185719642,0,0.7496947646141052,43.93211364746094,-22.940658569335938
0.3399682343006134,-0.2618969976902008,9.725653648376465,0.000528233808518723,-0.008424569931248304,0.03208720666533359,3.2100155353546143,2019-07-25 11:35:38:232,-166.16208603345888,-171.5965248284419,0,0.44981685280799866,43.33235549926758,-23.240537643432617
0.1890990138053894,-0.09426452964544296,9.881312370300293,-0.010926155165457294,0.0003660077018168852,0.033951875078606815,3.2199888229370117,2019-07-25 11:35:38:242,-166.41712252713518,-171.74754436558544,0,0.44981685280799866,43.33235549926758,-23.240537643432617
0.2226255089044571,0.003920205403119326,9.720863342285156,0.005323094137634056,-0.007092664293302181,0.03608292409932061,3.2299909591674805,2019-07-25 11:35:38:252,-166.65855773318168,-164.71604514883052,0,0.44981685280799866,43.33235549926758,-23.240537643432617
0.3208102583885193,-0.2355547696352005,9.7759428024292,0.005323094137634056,-0.0025641848642110384,0.03714845069027211,3.2399895191192627,2019-07-25 11:35:38:262,-166.8863557815678,-164.9971068293077,0,0.44981685280799866,43.33235549926758,-23.240537643432617
0.13880927860736847,-0.22358101606369019,9.7855224609375,-0.0018691964373121703,-0.00869095105883753,0.033951875078606815,3.249993324279785,2019-07-25 11:35:38:272,-167.12749293699184,-165.26993725345284,0,0.44981685280799866,43.33235549926758,-23.240537643432617
0.20346751809120178,-0.18047551810741425,9.852575302124023,0.003724807632173034,0.0006323888619154005,0.05020112334140085,3.2599921226501465,2019-07-25 11:35:38:282,-167.36163695051314,-165.54564165703707,0,0.44981685280799866,43.33235549926758,-23.240537643432617
0.2345992624759674,-0.2092125117778778,9.900469779968262,0.004523950754866383,-0.009756476089343078,0.04593902529997326,3.269993305206299,2019-07-25 11:35:38:292,-167.58177704286314,-165.81305791954205,0,0.44981685280799866,43.33235549926758,-23.240537643432617
0.06457202881574631,-0.1565280258655548,9.766364097595215,0.00612223804055038,-0.004428853017409935,0.05126664993235235,3.2799978256225586,2019-07-25 11:35:38:302,-167.82007727145728,-166.08187163226356,0,0.44981685280799866,43.33235549926758,-23.240537643432617
0.18430951237678528,-0.14694902300834656,9.91723346710205,0.001060996096206463,-0.006027139782945282,0.05313131626503098,3.289989709854126,2019-07-25 11:35:38:312,-168.03900011443307,-166.343851054166,0,0.44981685280799866,43.33235549926758,-23.240537643432617
0.22023075819015503,-0.13497528433799744,9.90765380859375,0.0023929017341525857,-0.00043313574596936985,0.05259855505014983,3.2999534606933594,2019-07-25 11:35:38:322,-168.25251017419316,-166.60270254768128,0,0.44981685280799866,43.33235549926758,-23.240537643432617
0.16036202013492584,-0.09665928035974503,9.802285194396973,0.007720524806085728,-0.003896090502157161,0.05046750602943604,3.309992551803589,2019-07-25 11:35:38:332,-168.46651865601075,-166.86370112295154,0,0.44981685280799866,43.33235549926758,-23.240537643432617
0.11965127289295197,-0.11581727862358093,9.754390716552734,0.005589475785371931,-0.006826283165712956,0.05259855505014983,3.3199899196624756,2019-07-25 11:35:38:342,-168.67930078728205,-167.11595954181294,0,0.44981685280799866,43.33235549926758,-23.240537643432617
0.1435987651348114,-0.12300153076648712,9.864548683166504,-0.0008036719269552719,-0.0030969471193894875,0.04860283969675741,3.329991579055786,2019-07-25 11:35:38:352,-168.88729557471564,-167.35890127937446,0,0.44981685280799866,43.33235549926758,-23.240537643432617
0.11965127289295197,-0.1900545209646225,9.771153450012207,0.006655000295728829,0.000898769989504625,0.048070074320687065,3.3399925231933594,2019-07-25 11:35:38:362,-169.09602292356158,-167.5931744769794,0,0.5997558236122131,43.78217315673828,-23.690353393554688
0.17233577370643616,-0.17568601667881012,9.821443557739258,0.006655000295728829,-0.007891807676069855,0.04300883237634315,3.349991798400879,2019-07-25 11:35:38:372,-169.2895663573005,-167.8245515340455,0,0.5997558236122131,43.78217315673828,-23.690353393554688
0.16036202013492584,-0.18047551810741425,9.71846866607666,0.0015937583513849119,-0.0022978037366218136,0.054196842855982474,3.359989881515503,2019-07-25 11:35:38:382,-169.48357831314655,-168.04767759898513,0,0.5997558236122131,43.78217315673828,-23.690353393554688
0.18191476166248322,-0.14694902300834656,9.787917137145996,0.005323094137634056,0.004361724713183125,0.04380797627925947,3.3699777126312256,2019-07-25 11:35:38:392,-169.67505773947866,-168.27250662768864,0,0.5997558236122131,43.78217315673828,-23.690353393554688
0.22023075819015503,-0.18765977025032043,9.835811614990234,0.004257569887351483,-0.0017650414814433647,0.04727093041777074,3.3800055980682373,2019-07-25 11:35:38:402,-169.85490918101806,-168.4875932395721,0,0.5997558236122131,43.78217315673828,-23.690353393554688
0.22741501033306122,-0.216396763920784,9.771153450012207,0.005323094137634056,-0.00149866035385414,0.04966836212651971,3.389981746673584,2019-07-25 11:35:38:412,-170.0303061443662,-168.6954492941947,0,0.5997558236122131,43.78217315673828,-23.690353393554688
0.16515152156352997,-0.18765977025032043,9.70649528503418,0.0007946149686172382,0.0014315323097016555,0.04780369579384109,3.399954319000244,2019-07-25 11:35:38:422,-170.21100627837626,-168.89983354969576,0,0.5997558236122131,43.78217315673828,-23.690353393554688
0.1890990138053894,-0.1972387731075287,9.802285194396973,0.0018601394789741364,0.0022306756924693294,0.04860283969675741,3.4101719856262207,2019-07-25 11:35:38:432,-170.3859624555144,-169.0998494051112,0,0.5997558236122131,43.78217315673828,-23.690353393554688
0.24417825043201447,-0.2020282745361328,9.82623291015625,0.001060996096206463,-0.005760758655356059,0.046471790676043616,3.420164108276367,2019-07-25 11:35:38:442,-170.54654137716966,-169.2948908819872,0,0.5997558236122131,43.78217315673828,-23.690353393554688
0.16036202013492584,-0.20681776106357574,9.82623291015625,-0.0010700530545444964,-0.004162471629746385,0.040877783355629346,3.430536985397339,2019-07-25 11:35:38:453,-170.71448674036964,-169.48425471503944,0,0.5997558236122131,43.78217315673828,-23.690353393554688
0.16754627227783203,-0.19244927167892456,9.75678539276123,-0.00027090962301288673,-0.00016675460212549993,0.0414105487316997,3.440006971359253,2019-07-25 11:35:38:462,-170.88043228374266,-169.6718257032289,0,0.5997558236122131,43.78217315673828,-23.690353393554688
0.15557251870632172,-0.2283705174922943,9.82623291015625,-0.0008036719269552719,-0.00043313574596936985,0.037947590431999224,3.449997901916504,2019-07-25 11:35:38:472,-171.0444396138105,-169.85131101910815,0,0.5997558236122131,43.78217315673828,-23.690353393554688
0.20586226880550385,-0.17808076739311218,9.811863899230957,0.0031920451169202596,-0.004162471629746385,0.03981226092586705,3.4604406356811523,2019-07-25 11:35:38:482,-171.19707124683885,-170.0353609282329,0,-0.0,41.982906341552734,-22.490842819213867
0.20586226880550385,-0.18765977025032043,9.711284637451172,-4.528479676974485e-06,-0.0030969471193894875,0.030755301547536116,3.469982862472534,2019-07-25 11:35:38:492,-171.3471827229232,-170.21251049517542,0,-0.0,41.982906341552734,-22.490842819213867
0.21065175533294678,-0.25231802463531494,9.754390716552734,-0.0026683399501170064,9.962654984569266e-05,0.03128806276241726,3.4799888134002686,2019-07-25 11:35:38:502,-171.49555217252785,-170.3771261933477,0,-0.0,41.982906341552734,-22.490842819213867
0.20107276737689972,-0.23794952034950256,9.819048881530762,0.003991188759762259,9.962654984569266e-05,0.03048892094009554,3.490000009536743,2019-07-25 11:35:38:512,-171.64223455188505,-170.54406316101637,0,-0.0,41.982906341552734,-22.490842819213867
0.22023075819015503,-0.23076526820659637,9.840600967407227,0.0021265206065633614,-0.007891807676069855,0.026226822898667946,3.500051259994507,2019-07-25 11:35:38:522,-171.7792948208763,-170.70751488953817,0,-0.0,41.982906341552734,-22.490842819213867
0.23699401319026947,-0.2690812647342682,9.7855224609375,0.0031920451169202596,-0.005227996400177609,0.024894915700275872,3.5099923610687256,2019-07-25 11:35:38:532,-171.91304337813537,-170.8636440364445,0,-0.0,41.982906341552734,-22.490842819213867
0.20107276737689972,-0.20681776106357574,9.780732154846191,-0.0005372907668567566,0.001165151182112431,0.021964722776645754,3.519979953765869,2019-07-25 11:35:38:542,-172.05188145913746,-171.02184257762318,0,-0.0,41.982906341552734,-22.490842819213867
0.23220451176166534,-0.2020282745361328,9.814258575439453,-0.0016028153097229455,0.0022306756924693294,0.02303024728700265,3.529951810836792,2019-07-25 11:35:38:552,-172.18498561966106,-171.1769227332087,0,-0.0,41.982906341552734,-22.490842819213867
0.3399682343006134,-0.15173852443695068,9.663390159606934,0.007986905933674952,0.005960011478718473,0.018768149245575055,3.540019989013672,2019-07-25 11:35:38:562,-172.3043573655857,-171.33990733181815,0,-0.0,41.982906341552734,-22.490842819213867
0.23938876390457153,-0.21160726249217987,9.792706489562988,0.007187762550907279,-0.0020314226090325893,0.017969007423253337,3.5500011444091797,2019-07-25 11:35:38:572,-172.42912468974038,-171.4923796514086,0,-0.0,41.982906341552734,-22.490842819213867
0.20586226880550385,-0.3864240050315857,9.730443000793457,-0.0018691964373121703,-0.0030969471193894875,0.01716986248003971,3.560009241104126,2019-07-25 11:35:38:582,-172.55456189152653,-171.6159979393824,0,-0.0,41.982906341552734,-22.490842819213867
0.2417835146188736,-0.33134475350379944,9.790311813354492,0.0021265206065633614,-0.0036297093745679366,0.014506051204147465,3.569997787475586,2019-07-25 11:35:38:592,-172.673140899944,-171.7461029129177,0,-0.0,41.982906341552734,-22.490842819213867
0.12923027575016022,-0.15892277657985687,9.720863342285156,0.0021265206065633614,-0.0022978037366218136,0.007047379631649175,3.579953193664551,2019-07-25 11:35:38:602,-172.8031605854765,-171.8936370897552,0,-0.0,41.982906341552734,-22.490842819213867
0.12683552503585815,-0.17568601667881012,9.773548126220703,0.00265928286174181,-0.004961615272588385,0.008645666397184523,3.5900063514709473,2019-07-25 11:35:38:612,-172.92942642084455,-172.03666909375076,0,-0.29987791180610657,43.18241882324219,-22.490842819213867
0.17233577370643616,-0.24513375759124756,9.720863342285156,-0.0005372907668567566,-0.0036297093745679366,0.0033180435853257064,3.5999538898468018,2019-07-25 11:35:38:622,-173.0484973361204,-172.16674485226864,0,-0.29987791180610657,43.18241882324219,-22.490842819213867
0.12444077432155609,-0.16131752729415894,9.742416381835938,0.0018601394789741364,-0.009490094441605203,-0.0036078662521427827,3.6100151538848877,2019-07-25 11:35:38:632,-173.1675299800983,-172.3054881778631,0,-0.29987791180610657,43.18241882324219,-22.490842819213867
0.17952001094818115,-0.1565280258655548,9.773548126220703,0.0018601394789741364,-0.0017650414814433647,-0.012132062595072296,3.6199896335601807,2019-07-25 11:35:38:642,-173.28214509147506,-172.4420693997586,0,-0.29987791180610657,43.18241882324219,-22.490842819213867
0.21783600747585297,-0.18526501953601837,9.790311813354492,-0.002135577564901395,0.0006323888619154005,-0.012132062595072296,3.6299889087677,2019-07-25 11:35:38:652,-173.39136465010813,-172.57034705667337,0,-0.29987791180610657,43.18241882324219,-22.490842819213867
0.25854676961898804,-0.18047551810741425,9.79749584197998,-0.002401958822527782,-0.004428853017409935,-0.019590735207867884,3.639991044998169,2019-07-25 11:35:38:662,-173.49081740469995,-172.69648509244107,0,-0.29987791180610657,43.18241882324219,-22.490842819213867
0.22980976104736328,-0.18765977025032043,9.7855224609375,-0.0010700530545444964,-0.0033633282469787123,-0.023586452641854903,3.6499862670898438,2019-07-25 11:35:38:672,-173.59220695160147,-172.81998198583932,0,-0.29987791180610657,43.18241882324219,-22.490842819213867
0.16754627227783203,-0.22597576677799225,9.768758773803711,-0.002401958822527782,-0.0030969471193894875,-0.02518473836709295,3.6599948406219482,2019-07-25 11:35:38:682,-173.69897044993706,-172.9357293328701,0,-0.29987791180610657,43.18241882324219,-22.490842819213867
0.17233577370643616,-0.18047551810741425,9.802285194396973,-0.004533008103315903,-0.0009658980336571096,-0.019590735207867884,3.6699934005737305,2019-07-25 11:35:38:692,-173.80430429182687,-173.0533741064725,0,-0.29987791180610657,43.18241882324219,-22.490842819213867
0.1771252602338791,-0.23794952034950256,9.888496398925781,-0.001336434182133721,-0.006826283165712956,-0.027848550683282496,3.6799943447113037,2019-07-25 11:35:38:702,-173.9038611589787,-173.16398699612256,0,-0.29987791180610657,43.18241882324219,-22.490842819213867
0.11246702820062637,-0.20442302525043488,9.823838233947754,-0.004533008103315903,-0.0030969471193894875,-0.026783026172925595,3.690002918243408,2019-07-25 11:35:38:712,-174.0109252098791,-173.27431802227838,0,-0.29987791180610657,43.18241882324219,-22.490842819213867
0.14120401442050934,-0.1445542722940445,9.7855224609375,0.000528233808518723,0.00462810584077235,-0.034241697745423884,3.6999940872192383,2019-07-25 11:35:38:722,-174.1167687973349,-173.39220147173177,0,-0.29987791180610657,43.18241882324219,-22.490842819213867
0.21304650604724884,-0.18047551810741425,9.85496997833252,-0.00346748333288468,0.0019642945648801046,-0.037171890669054006,3.709991455078125,2019-07-25 11:35:38:732,-174.21076732937644,-173.50142799194134,0,0.14993895590305328,43.93211364746094,-22.64078140258789
0.21304650604724884,-0.1828702688217163,9.744811058044434,-0.002401958822527782,-0.005760758655356059,-0.03583998555125653,3.7199957370758057,2019-07-25 11:35:38:742,-174.29826728277814,-173.60854853037685,0,0.14993895590305328,43.93211364746094,-22.64078140258789
0.27770474553108215,-0.16131752729415894,9.732837677001953,-0.0010700530545444964,0.0006323888619154005,-0.03877017847488665,3.7299952507019043,2019-07-25 11:35:38:752,-174.3799697365099,-173.7167854449258,0,0.14993895590305328,43.93211364746094,-22.64078140258789
0.2609415054321289,-0.21879151463508606,9.795101165771484,-0.001336434182133721,0.001165151182112431,-0.03770465188393515,3.7400007247924805,2019-07-25 11:35:38:762,-174.4625049567138,-173.81610705259862,0,0.14993895590305328,43.93211364746094,-22.64078140258789
0.28488901257514954,-0.24034427106380463,9.83820629119873,-0.0026683399501170064,-0.002830565991800263,-0.0424995111402439,3.750000476837158,2019-07-25 11:35:38:772,-174.53849205614918,-173.91029789076242,0,0.14993895590305328,43.93211364746094,-22.64078140258789
0.26573100686073303,-0.24752850830554962,9.814258575439453,-0.002934721077706231,0.0003660077018168852,-0.040368462119530095,3.7600064277648926,2019-07-25 11:35:38:782,-174.6169086017865,-174.0015477381066,0,0.14993895590305328,43.93211364746094,-22.64078140258789
0.21065175533294678,-0.24992325901985168,9.780732154846191,-0.003733864460473905,0.0014315323097016555,-0.04010208359268413,3.7700159549713135,2019-07-25 11:35:38:792,-174.7006987463908,-174.09014345943154,0,0.14993895590305328,43.93211364746094,-22.64078140258789
0.24417825043201447,-0.1445542722940445,9.816654205322266,-0.00400024558806313,-0.0022978037366218136,-0.03663912945417286,3.7800004482269287,2019-07-25 11:35:38:802,-174.77689907116618,-174.18922508173551,0,0.14993895590305328,43.93211364746094,-22.64078140258789
0.2872837483882904,-0.16610702872276306,9.742416381835938,0.000528233808518723,-0.006027139782945282,-0.03663912945417286,3.7899513244628906,2019-07-25 11:35:38:812,-174.8442125872552,-174.28619989537893,0,0.14993895590305328,43.93211364746094,-22.64078140258789
0.23220451176166534,-0.15413327515125275,9.682547569274902,-0.001336434182133721,-0.0017650414814433647,-0.040634844807565275,3.800008535385132,2019-07-25 11:35:38:822,-174.91885579338543,-174.38148128732698,0,0.14993895590305328,43.93211364746094,-22.64078140258789
0.2226255089044571,-0.19963352382183075,9.744811058044434,-0.004533008103315903,-0.0054943775277668345,-0.03690550798101883,3.8100078105926514,2019-07-25 11:35:38:832,-174.99121930370833,-174.4678344688836,0,0.14993895590305328,43.93211364746094,-22.64078140258789
0.2082570195198059,-0.18765977025032043,9.82623291015625,-0.005065770358494353,-0.0009658980336571096,-0.03663912945417286,3.8199517726898193,2019-07-25 11:35:38:842,-175.06657272554975,-174.55376744959995,0,0.14993895590305328,43.93211364746094,-22.64078140258789
0.2082570195198059,-0.16610702872276306,9.819048881530762,-0.00346748333288468,-0.0020314226090325893,-0.037171890669054006,3.8300070762634277,2019-07-25 11:35:38:852,-175.13979367993292,-174.64135095329686,0,0.14993895590305328,43.93211364746094,-22.64078140258789
0.17952001094818115,-0.16131752729415894,9.759180068969727,-0.005864913741262027,-0.00149866035385414,-0.03690550798101883,3.839951276779175,2019-07-25 11:35:38:862,-175.21508427836991,-174.7263091107727,0,-0.44981685280799866,43.93211364746094,-21.741147994995117
0.2345992624759674,-0.17568601667881012,9.804679870605469,0.00026185266467485305,-0.004961615272588385,-0.03504084164834021,3.8500242233276367,2019-07-25 11:35:38:872,-175.280562924437,-174.8114000390865,0,-0.44981685280799866,43.93211364746094,-21.741147994995117
0.21783600747585297,-0.20442302525043488,9.792706489562988,-4.528479676974485e-06,0.0014315323097016555,-0.03317617323506699,3.8599507808685303,2019-07-25 11:35:38:882,-175.35026319859594,-174.89125196760472,0,-0.44981685280799866,43.93211364746094,-21.741147994995117
0.2345992624759674,-0.18765977025032043,9.809469223022461,-0.0016028153097229455,-0.007092664293302181,-0.03370893444994813,3.870004653930664,2019-07-25 11:35:38:892,-175.41185393169877,-174.97060286947263,0,-0.44981685280799866,43.93211364746094,-21.741147994995117
0.18430951237678528,-0.17808076739311218,9.74720573425293,-0.002135577564901395,0.000898769989504625,-0.031844268117269516,3.879950523376465,2019-07-25 11:35:38:902,-175.4824532905876,-175.04906471030364,0,-0.44981685280799866,43.93211364746094,-21.741147994995117
0.20346751809120178,-0.19484402239322662,9.771153450012207,-0.003733864460473905,-0.0022978037366218136,-0.027848550683282496,3.889955520629883,2019-07-25 11:35:38:912,-175.54765508683238,-175.12313843264678,0,-0.44981685280799866,43.93211364746094,-21.741147994995117
0.1890990138053894,-0.1373700201511383,9.783126831054688,0.000528233808518723,-0.004961615272588385,-0.023053689346379153,3.9000062942504883,2019-07-25 11:35:38:922,-175.61175514314397,-175.204884427448,0,-0.44981685280799866,43.93211364746094,-21.741147994995117
0.20586226880550385,-0.1828702688217163,9.833416938781738,-0.00027090962301288673,-0.0020314226090325893,-0.022787308738938576,3.9100027084350586,2019-07-25 11:35:38:932,-175.6743936058245,-175.2793267501175,0,-0.44981685280799866,43.93211364746094,-21.741147994995117
0.1699410229921341,-0.1565280258655548,9.823838233947754,-0.0032011022052954555,-0.0009658980336571096,-0.023852833249295477,3.920006513595581,2019-07-25 11:35:38:942,-175.74054214143806,-175.3536852272104,0,-0.44981685280799866,43.93211364746094,-21.741147994995117
0.11246702820062637,-0.19484402239322662,9.859759330749512,0.00026185266467485305,0.00169791343729088,-0.02518473836709295,3.93001389503479,2019-07-25 11:35:38:952,-175.81361486345364,-175.4241165521156,0,-0.44981685280799866,43.93211364746094,-21.741147994995117
0.1627567708492279,-0.13976477086544037,9.850180625915527,-0.003733864460473905,-0.0017650414814433647,-0.026250262877449845,3.939953088760376,2019-07-25 11:35:38:962,-175.87742502348732,-175.4972920394751,0,-0.44981685280799866,43.93211364746094,-21.741147994995117
0.1435987651348114,-0.16610702872276306,9.828627586364746,-0.001336434182133721,-0.0036297093745679366,-0.019057971912392134,3.950007200241089,2019-07-25 11:35:38:972,-175.9410864887854,-175.56722722646282,0,-0.44981685280799866,43.93211364746094,-21.741147994995117
0.1699410229921341,-0.15892277657985687,9.740021705627441,-4.528479676974485e-06,-0.00016675460212549993,-0.01879159130495156,3.9600062370300293,2019-07-25 11:35:38:982,-176.0021795671198,-175.6371845005268,0,-1.0495727062225342,43.93211364746094,-23.240537643432617
0.15796726942062378,-0.17568601667881012,9.73523235321045,0.00026185266467485305,-0.00043313574596936985,-0.020922640325665355,3.9699995517730713,2019-07-25 11:35:38:992,-176.0633005395667,-175.7039103214566,0,-1.0495727062225342,43.93211364746094,-23.240537643432617
0.098098523914814,-0.16610702872276306,9.790311813354492,-0.004799389230905129,-0.00149866035385414,-0.015595017773880865,3.979952096939087,2019-07-25 11:35:39:002,-176.12971538322776,-175.76770977595737,0,-1.0495727062225342,43.93211364746094,-23.240537643432617
0.08612477779388428,-0.21879151463508606,9.766364097595215,-0.002401958822527782,-0.0009658980336571096,-0.01772606679459466,3.98995304107666,2019-07-25 11:35:39:012,-176.1964736679667,-175.8253396120975,0,-1.0495727062225342,43.93211364746094,-23.240537643432617
0.03344028443098068,-0.15413327515125275,9.751995086669922,0.0013273772237956873,-0.0017650414814433647,-0.017992447402035237,4.0002641677856445,2019-07-25 11:35:39:022,-176.26759288081075,-175.8914912896048,0,-1.0495727062225342,43.93211364746094,-23.240537643432617
0.10528277605772018,-0.09905403107404709,9.807074546813965,0.00265928286174181,-0.002830565991800263,-0.017459686187154086,4.009953260421753,2019-07-25 11:35:39:032,-176.32839969966574,-175.96353456818468,0,-1.0495727062225342,43.93211364746094,-23.240537643432617
0.011887537315487862,-0.08947503566741943,9.7759428024292,0.004257569887351483,0.0038289624580046767,-0.007603583426055476,4.01995062828064,2019-07-25 11:35:39:042,-176.40258766538267,-176.03616608338103,0,-1.0495727062225342,43.93211364746094,-23.240537643432617
0.18670426309108734,-0.19963352382183075,9.842995643615723,-0.0026683399501170064,-0.0017650414814433647,-0.007337202298466253,4.02995491027832,2019-07-25 11:35:39:052,-176.4518110283644,-176.09070582296985,0,-1.0495727062225342,43.93211364746094,-23.240537643432617
0.26573100686073303,-0.21879151463508606,9.744811058044434,0.00612223804055038,0.000898769989504625,-0.014795873870964541,4.040020942687988,2019-07-25 11:35:39:062,-176.49204259682367,-176.14662813979672,0,-1.0495727062225342,43.93211364746094,-23.240537643432617
0.08851952850818634,-0.29302874207496643,9.742416381835938,-0.0026683399501170064,0.0035625813304154524,-0.005738915532930904,4.04997992515564,2019-07-25 11:35:39:072,-176.5537824296707,-176.18774742226438,0,-1.0495727062225342,43.93211364746094,-23.240537643432617
0.1771252602338791,-0.2283705174922943,9.886101722717285,-0.005864913741262027,-0.0036297093745679366,-0.002009579356570273,4.059996604919434,2019-07-25 11:35:39:082,-176.60013659798838,-176.23422771492758,0,-1.0495727062225342,43.93211364746094,-23.240537643432617
0.07654578238725662,-0.12779103219509125,9.754390716552734,-4.528479676974485e-06,0.0038289624580046767,-0.00840272680882315,4.069987535476685,2019-07-25 11:35:39:092,-176.6612896966428,-176.29452898458248,0,-1.0495727062225342,43.93211364746094,-23.240537643432617
0.19388851523399353,-0.12060678005218506,9.723258972167969,0.000528233808518723,-0.0033633282469787123,-0.006271677788109354,4.08002233505249,2019-07-25 11:35:39:102,-176.7033215043324,-176.35472289332628,0,-1.0495727062225342,43.93211364746094,-23.240537643432617
0.2154412567615509,-0.23316001892089844,9.766364097595215,0.0023929017341525857,9.962654984569266e-05,-0.004407009894984782,4.089989185333252,2019-07-25 11:35:39:112,-176.74403658579246,-176.40161545257132,0,0.5997558236122131,43.78217315673828,-22.490842819213867
0.08373002707958221,-0.09665928035974503,9.795101165771484,0.0031920451169202596,-0.0025641848642110384,-0.004407009894984782,4.10000467300415,2019-07-25 11:35:39:122,-176.79791861422902,-176.46407057743525,0,0.5997558236122131,43.78217315673828,-22.490842819213867
0.0454140342772007,-0.21160726249217987,9.795101165771484,0.00265928286174181,-0.006826283165712956,0.008379285269595298,4.109981536865234,2019-07-25 11:35:39:132,-176.85282327303952,-176.5115270986487,0,0.5997558236122131,43.78217315673828,-22.490842819213867
0.15557251870632172,-0.19484402239322662,9.699311256408691,0.007986905933674952,-0.0020314226090325893,0.005981855121292278,4.119973182678223,2019-07-25 11:35:39:142,-176.8962487331678,-176.56276088726244,0,0.5997558236122131,43.78217315673828,-22.490842819213867
0.0454140342772007,-0.16850177943706512,9.893285751342773,-0.014655490951706438,-0.0033633282469787123,0.005981855121292278,4.12998366355896,2019-07-25 11:35:39:152,-176.9511731130925,-176.60375273594414,0,0.5997558236122131,43.78217315673828,-22.490842819213867
0.18191476166248322,-0.15892277657985687,9.833416938781738,0.004523950754866383,-0.0020314226090325893,0.00438356835575693,4.139986515045166,2019-07-25 11:35:39:162,-176.98981206623324,-176.65570049408265,0,0.5997558236122131,43.78217315673828,-22.490842819213867
0.1627567708492279,-0.24752850830554962,9.795101165771484,-0.006930438251618925,-0.00016675460212549993,0.00438356835575693,4.14998722076416,2019-07-25 11:35:39:172,-177.0308832441741,-176.68974291560687,0,0.5997558236122131,43.78217315673828,-22.490842819213867
0.31123125553131104,-0.19484402239322662,9.83820629119873,0.007454143678496503,-0.00016675460212549993,0.003051662457736482,4.160001039505005,2019-07-25 11:35:39:182,-177.05393291009023,-176.73744763343117,0,0.5997558236122131,43.78217315673828,-22.490842819213867
0.18430951237678528,-0.21879151463508606,9.804679870605469,0.000528233808518723,-0.0022978037366218136,0.008912048044922398,4.169987440109253,2019-07-25 11:35:39:192,-177.0900272750845,-176.77742800702399,0,0.5997558236122131,43.78217315673828,-22.490842819213867
0.31602075695991516,-0.24034427106380463,9.883707046508789,-0.004533008103315903,-0.00469523414499916,0.01077671541789832,4.179986000061035,2019-07-25 11:35:39:202,-177.10896381821232,-176.8114745454962,0,0.5997558236122131,43.78217315673828,-22.490842819213867
0.23938876390457153,-0.20681776106357574,9.71846866607666,0.003991188759762259,0.001165151182112431,0.008912048044922398,4.1899871826171875,2019-07-25 11:35:39:212,-177.13921795792467,-176.85310393173182,0,0.5997558236122131,43.78217315673828,-22.490842819213867
0.3136259913444519,-0.23794952034950256,9.82623291015625,0.0007946149686172382,-0.0025641848642110384,0.014506051204147465,4.199980735778809,2019-07-25 11:35:39:222,-177.1584327180339,-176.88874396662052,0,0.5997558236122131,43.78217315673828,-22.490842819213867
0.31841549277305603,-0.15413327515125275,9.771153450012207,0.004790331882455607,-0.005227996400177609,0.011309477673076768,4.209975242614746,2019-07-25 11:35:39:232,-177.17500108001133,-176.9355828374986,0,1.0495727062225342,43.03247833251953,-22.64078140258789
0.2226255089044571,-0.23794952034950256,9.720863342285156,-0.0018691964373121703,-0.0006995169060678851,0.017702624735218157,4.219989061355591,2019-07-25 11:35:39:242,-177.2048687665475,-176.96777579510052,0,1.0495727062225342,43.03247833251953,-22.64078140258789
0.25854676961898804,-0.15892277657985687,9.79749584197998,0.000528233808518723,-0.00043313574596936985,0.015837957362242236,4.2299840450286865,2019-07-25 11:35:39:252,-177.23029568185754,-177.01013074725472,0,1.0495727062225342,43.03247833251953,-22.64078140258789
0.22980976104736328,-0.23076526820659637,9.737627029418945,-0.0018691964373121703,-0.0033633282469787123,0.015038813459325912,4.240001201629639,2019-07-25 11:35:39:262,-177.2567592277129,-177.04172560372885,0,1.0495727062225342,43.03247833251953,-22.64078140258789
0.2944680154323578,-0.163712278008461,9.833416938781738,0.0023929017341525857,-0.004428853017409935,0.009977572555279297,4.249982118606567,2019-07-25 11:35:39:272,-177.27483706376734,-177.08315605121373,0,1.0495727062225342,43.03247833251953,-22.64078140258789
0.15796726942062378,-0.1972387731075287,9.744811058044434,-0.0005372907668567566,0.004095343585593901,0.012375002183433665,4.259984970092773,2019-07-25 11:35:39:282,-177.31306638665524,-177.11800054456225,0,1.0495727062225342,43.03247833251953,-22.64078140258789
0.2489677518606186,-0.16850177943706512,9.840600967407227,-0.001336434182133721,-0.00016675460212549993,0.0065146173764707264,4.269986629486084,2019-07-25 11:35:39:292,-177.3377258661516,-177.1552702717463,0,1.0495727062225342,43.03247833251953,-22.64078140258789
0.2154412567615509,-0.163712278008461,9.850180625915527,0.007187762550907279,-0.0025641848642110384,0.007846523014416849,4.280006647109985,2019-07-25 11:35:39:302,-177.36446943034557,-177.19716523562326,0,1.0495727062225342,43.03247833251953,-22.64078140258789
0.1172565221786499,-0.170896515250206,9.759180068969727,-0.0010700530545444964,-0.004162471629746385,0.004916330610935379,4.289981842041016,2019-07-25 11:35:39:312,-177.40108110682323,-177.23255809828817,0,1.0495727062225342,43.03247833251953,-22.64078140258789
0.15796726942062378,-0.16850177943706512,9.835811614990234,-0.004533008103315903,-0.00016675460212549993,0.007846523014416849,4.299981594085693,2019-07-25 11:35:39:322,-177.43456355051788,-177.26573243855523,0,1.0495727062225342,43.03247833251953,-22.64078140258789
0.13401977717876434,-0.17329126596450806,9.795101165771484,0.004523950754866383,0.0022306756924693294,0.003584424712914931,4.309984445571899,2019-07-25 11:35:39:332,-177.47144734448267,-177.30268771103732,0,1.0495727062225342,43.03247833251953,-22.64078140258789
0.07415103167295456,-0.1301857829093933,9.850180625915527,0.004790331882455607,-0.004428853017409935,0.00411718696809338,4.319983720779419,2019-07-25 11:35:39:342,-177.51090562450537,-177.34417931375754,0,1.0495727062225342,43.03247833251953,-22.64078140258789
0.05978253111243248,-0.2762655019760132,9.761574745178223,-0.0016028153097229455,-0.006027139782945282,0.006780998504059952,4.329978942871094,2019-07-25 11:35:39:352,-177.55028708806952,-177.36397390354193,0,1.0495727062225342,43.03247833251953,-22.64078140258789
0.05738778039813042,-0.024816790595650673,9.876522064208984,0.003724807632173034,0.0019642945648801046,0.0009206132419669414,4.340025424957275,2019-07-25 11:35:39:362,-177.5937311252806,-177.41591627923398,0,1.0495727062225342,43.33235549926758,-23.840293884277344
0.16515152156352997,-0.26668649911880493,9.828627586364746,-0.005065770358494353,-0.004162471629746385,-0.005206153277752455,4.350028991699219,2019-07-25 11:35:39:372,-177.62026531185595,-177.43366727545134,0,1.0495727062225342,43.33235549926758,-23.840293884277344
0.0909142792224884,-0.22118626534938812,9.687336921691895,0.010117955474537399,0.009422966137378393,-0.003075103996964334,4.3602447509765625,2019-07-25 11:35:39:382,-177.66251120701833,-177.4646381360902,0,1.0495727062225342,43.33235549926758,-23.840293884277344
0.15796726942062378,-0.35529226064682007,9.902864456176758,-0.004266626715652354,-0.0006995169060678851,-0.010800157477274823,4.370203256607056,2019-07-25 11:35:39:392,-177.69059211269573,-177.47186438987285,0,1.0495727062225342,43.33235549926758,-23.840293884277344
0.06457202881574631,-0.03200104087591171,9.79749584197998,0.0023929017341525857,0.0006323888619154005,-0.002808722869375109,4.380021095275879,2019-07-25 11:35:39:402,-177.7295766493588,-177.5200034077573,0,1.0495727062225342,43.33235549926758,-23.840293884277344
0.2992574870586395,-0.22597576677799225,9.811863899230957,0.00612223804055038,-0.0030969471193894875,-0.00840272680882315,4.390024662017822,2019-07-25 11:35:39:412,-177.7383064794866,-177.5466554251924,0,1.0495727062225342,43.33235549926758,-23.840293884277344
0.1890990138053894,-0.23316001892089844,9.723258972167969,-0.005065770358494353,0.004361724713183125,-0.013197587105429193,4.400007009506226,2019-07-25 11:35:39:422,-177.7637020453004,-177.56540956364924,0,1.0495727062225342,43.33235549926758,-23.840293884277344
0.14599351584911346,-0.05115903913974762,9.852575302124023,0.004257569887351483,0.0022306756924693294,-0.00547253440534168,4.409998178482056,2019-07-25 11:35:39:432,-177.79270071123557,-177.6105398209657,0,1.0495727062225342,43.33235549926758,-23.840293884277344
0.24417825043201447,-0.18765977025032043,9.725653648376465,0.007454143678496503,0.004361724713183125,-0.004939772150163231,4.420158386230469,2019-07-25 11:35:39:442,-177.8105710161634,-177.64047348616825,0,1.0495727062225342,43.33235549926758,-23.840293884277344
0.24417825043201447,-0.15892277657985687,9.799890518188477,0.005855856912961156,-0.006559902038123733,-0.009734632966917924,4.4301276206970215,2019-07-25 11:35:39:452,-177.82214133691082,-177.6723605113592,0,1.0495727062225342,43.33235549926758,-23.840293884277344
0.13401977717876434,-0.13497528433799744,9.73523235321045,-0.0018691964373121703,0.000898769989504625,-0.007603583426055476,4.440103054046631,2019-07-25 11:35:39:462,-177.85042771318214,-177.7019796634734,0,1.0495727062225342,43.33235549926758,-23.840293884277344
0.22980976104736328,-0.216396763920784,9.809469223022461,-0.002934721077706231,0.005960011478718473,-0.009201870711739474,4.449980020523071,2019-07-25 11:35:39:472,-177.86988368032362,-177.72103771862308,0,1.0495727062225342,43.33235549926758,-23.840293884277344
0.18191476166248322,-0.18526501953601837,9.82623291015625,-0.0008036719269552719,0.0003660077018168852,-0.01373034936060764,4.460129022598267,2019-07-25 11:35:39:482,-177.89148246995342,-177.7445563038873,0,-0.14993895590305328,43.03247833251953,-21.441268920898438
0.22502025961875916,-0.1972387731075287,9.783126831054688,0.000528233808518723,-0.0017650414814433647,-0.009201870711739474,4.470106363296509,2019-07-25 11:35:39:492,-177.90631160860104,-177.7668612984767,0,-0.14993895590305328,43.03247833251953,-21.441268920898438
0.1771252602338791,-0.21400201320648193,9.763969421386719,0.0031920451169202596,-0.0006995169060678851,-0.010533775829536947,4.4799864292144775,2019-07-25 11:35:39:502,-177.92701187592783,-177.78818329587202,0,-0.14993895590305328,43.03247833251953,-21.441268920898438
0.2345992624759674,-0.2618969976902008,9.792706489562988,-0.0018691964373121703,0.00462810584077235,-0.006804440043287803,4.490188121795654,2019-07-25 11:35:39:512,-177.94367581611155,-177.80070974684935,0,-0.14993895590305328,43.03247833251953,-21.441268920898438
0.23938876390457153,-0.23794952034950256,9.821443557739258,-0.0008036719269552719,-0.004428853017409935,-0.006005296660520129,4.500138759613037,2019-07-25 11:35:39:522,-177.95440265796003,-177.81648922093126,0,-0.14993895590305328,43.03247833251953,-21.441268920898438
