ACCELEROMETER X (m/s²),ACCELEROMETER Y (m/s²),ACCELEROMETER Z (m/s²),GYROSCOPE X (rad/s),GYROSCOPE Y (rad/s),GYROSCOPE Z (rad/s),Time since start in ms ,YYYY-MO-DD HH-MI-SS_SSS,Pitch (Deg),Roll (Deg),Heading (Deg),MagX,MagY,MagZ
-1.2045087814331055,-0.16015847027301788,11.001812934875488,-0.011611021369582097,-0.021858171365907363,0.02369300405259329,0.0,2019-07-25 11:47:52:341,3.475039696924577,-3.583319555937957,0,-43.632232666015625,14.54407787322998,-5.84761905670166
-2.387515068054199,-1.5491132736206055,10.989839553833008,-0.07953821046528031,-0.020526266248109888,0.02635681636878284,0.009989500045776367,2019-07-25 11:47:52:351,6.771914163377147,-6.906569947508338,0,-43.632232666015625,14.54407787322998,-5.84761905670166
5.028974192100577e-05,-0.4092124402523041,10.503705024719238,-0.011078259114403648,-0.021858171365907363,0.027422340879139737,0.019995450973510742,2019-07-25 11:47:52:361,3.048762003785534,-10.317593413102452,0,-43.632232666015625,14.54407787322998,-5.84761905670166
-0.1412399411201477,-0.011683983728289604,9.236882209777832,0.039001394952965174,-0.0029451100067007917,0.007443754749501942,0.029994964599609375,2019-07-25 11:47:52:371,6.571919680612428,-13.731690210865079,0,-43.632232666015625,14.54407787322998,-5.84761905670166
0.9363974332809448,0.3307652175426483,9.205750465393066,0.006502896346782475,0.03035253380276986,0.029553389899853535,0.039971113204956055,2019-07-25 11:47:52:381,2.9396406017478327,-9.90185443206121,0,-43.632232666015625,14.54407787322998,-5.84761905670166
0.4406842291355133,0.16552749276161194,9.981649398803711,0.030210818262669414,0.03381548794128113,-0.0002812985032435118,0.049989938735961914,2019-07-25 11:47:52:391,-0.6876166062507765,-6.139813794447951,0,-43.632232666015625,14.54407787322998,-5.84761905670166
-0.23463517427444458,-0.31821194291114807,9.646384239196777,0.004904609581247128,-0.03251341646947635,0.008242898132269616,0.06025338172912598,2019-07-25 11:47:52:402,2.9170055698450374,-9.582056593739484,0,-43.632232666015625,14.54407787322998,-5.84761905670166
-0.28971442580223083,-1.187506079673767,10.563573837280273,-0.06914934804974651,-0.031181511351678872,0.0007842261046412585,0.0699930191040039,2019-07-25 11:47:52:411,6.4442982103753135,-12.824319359269758,0,-43.632232666015625,14.54407787322998,-5.84761905670166
0.014418788254261017,-0.7684248685836792,9.306329727172852,0.032075486675942635,0.040741396218303666,-0.01812883453936092,0.08002161979675293,2019-07-25 11:47:52:421,2.694246006140489,-16.091490579403857,0,-43.632232666015625,14.54407787322998,-5.84761905670166
-0.23224042356014252,0.1487642526626587,10.522863388061523,-0.0060170171700597306,-0.016796929421563446,0.009574803770215738,0.09012651443481445,2019-07-25 11:47:52:431,6.224605127635979,-12.182445787119333,0,-43.632232666015625,14.54407787322998,-5.84761905670166
0.1461300253868103,-0.7899776101112366,9.706253051757812,0.0017080359201392707,0.015435188577178679,-0.01573140491120655,0.10007452964782715,2019-07-25 11:47:52:441,2.5087419796611656,-15.44669168296615,0,-43.632232666015625,14.54407787322998,-5.84761905670166
-0.6968218684196472,-0.4283704161643982,9.835570335388184,0.007302039729550149,-0.012268449732397976,-0.01360035589049275,0.1100156307220459,2019-07-25 11:47:52:451,5.984365883620013,-18.691957032514196,0,-43.632232666015625,14.54407787322998,-5.84761905670166
0.05034003406763077,-0.27989596128463745,9.859517097473145,-0.003619587021756709,0.015168807969738105,-0.018395217227396093,0.12001538276672363,2019-07-25 11:47:52:461,2.262012197085105,-21.88356356819653,0,-43.632232666015625,14.54407787322998,-5.84761905670166
-0.1747664362192154,-0.2751064598560333,9.375778198242188,0.01316242505666174,0.03141805831312676,-0.0330461797649521,0.13002252578735352,2019-07-25 11:47:52:471,5.77776052583952,-25.01967415880255,0,-43.632232666015625,14.54407787322998,-5.84761905670166
0.17726176977157593,-0.3732911944389343,10.173229217529297,-0.007348922808005853,-0.012268449732397976,-0.039172944139058315,0.13999247550964355,2019-07-25 11:47:52:481,2.0890381309527095,-28.07313788925535,0,-43.632232666015625,14.54407787322998,-5.84761905670166
0.5005529522895813,-0.19607971608638763,9.615252494812012,-0.0025540625113998103,0.0026488941928215744,-0.03597637268858222,0.15001559257507324,2019-07-25 11:47:52:491,-1.4946328933321649,-31.08687278741898,0,-43.632232666015625,14.54407787322998,-5.84761905670166
0.41194725036621094,-0.1002897247672081,9.86191177368164,0.0030399416881225563,0.011705852790929535,-0.03491084609763072,0.16001558303833008,2019-07-25 11:47:52:501,-5.023474200860635,-34.05518938094555,0,-43.632232666015625,14.54407787322998,-5.84761905670166
0.6418431997299194,-0.24636945128440857,9.950517654418945,-0.0006893944232194946,0.011173090535751088,-0.029050462330965077,0.1700150966644287,2019-07-25 11:47:52:511,-8.455464780751985,-36.945332061603516,0,-43.632232666015625,14.54407787322998,-5.84761905670166
0.6849486827850342,-0.7013719081878662,9.924175262451172,-0.0028204436389890346,-0.01892797844227724,-0.03597637268858222,0.18002581596374512,2019-07-25 11:47:52:521,-11.796752253391276,-39.72398910709834,0,-43.632232666015625,14.54407787322998,-5.84761905670166
0.39278924465179443,-0.6103714108467102,9.646384239196777,0.005437371836425577,0.0031816564480000235,-0.035709990000547046,0.18999981880187988,2019-07-25 11:47:52:531,-15.115964507850112,-42.46014361132009,0,-43.632232666015625,14.54407787322998,-5.84761905670166
0.2658675014972687,-0.4211861789226532,9.811622619628906,-0.004152349276935158,0.011173090535751088,-0.027984937820608177,0.2000105381011963,2019-07-25 11:47:52:541,-18.388882110206904,-45.15944585502028,0,-43.632232666015625,14.54407787322998,-5.84761905670166
0.3879997432231903,-0.4666864275932312,9.852333068847656,0.0038390850708902298,0.0031816564480000235,-0.02159179075846679,0.21001267433166504,2019-07-25 11:47:52:551,-21.577786768273462,-47.8041737221497,0,-43.632232666015625,14.54407787322998,-5.84761905670166
0.4406842291355133,-0.5169761776924133,9.830780029296875,-0.0038859681493459333,-0.005875302670256588,-0.028251318428048754,0.220015287399292,2019-07-25 11:47:52:561,-24.69159762123275,-50.38570232914511,0,-44.231990814208984,13.04468822479248,-7.646886348724365
0.36644700169563293,-0.33258044719696045,9.715832710266113,0.001974417047728495,0.0023825130652323496,-0.01653054777382557,0.2300260066986084,2019-07-25 11:47:52:571,-27.755905455640658,-52.93988783899701,0,-44.231990814208984,13.04468822479248,-7.646886348724365
0.39997348189353943,-0.2966592013835907,9.778096199035645,-0.00042301326312097924,0.009841185417953615,-0.008272732818559609,0.23996853828430176,2019-07-25 11:47:52:581,-30.75943378920455,-55.446098473284124,0,-44.231990814208984,13.04468822479248,-7.646886348724365
0.5604217052459717,-0.3541331887245178,9.847543716430664,-0.0017549189985949741,0.001316988424838289,-0.0029451100067007917,0.2500154972076416,2019-07-25 11:47:52:591,-33.679844517277566,-57.8949953121991,0,-44.231990814208984,13.04468822479248,-7.646886348724365
0.5197109580039978,-0.37808069586753845,9.720622062683105,-0.004152349276935158,-0.005342540415078138,-0.0026787288791115674,0.25999927520751953,2019-07-25 11:47:52:601,-36.54204481082439,-60.290220059381916,0,-44.231990814208984,13.04468822479248,-7.646886348724365
0.5149214863777161,-0.2894749343395233,9.749359130859375,-0.001222156743416525,0.006910992494323493,0.0026488941928215744,0.27001380920410156,2019-07-25 11:47:52:611,-39.35462365021274,-62.64971424596063,0,-44.231990814208984,13.04468822479248,-7.646886348724365
0.5101319551467896,-0.3613174259662628,9.842754364013672,-0.00042301326312097924,0.004513562346020471,0.008509279259858839,0.28006768226623535,2019-07-25 11:47:52:621,-42.11074157275481,-64.95443465286377,0,-44.231990814208984,13.04468822479248,-7.646886348724365
0.5149214863777161,-0.3900544345378876,9.859517097473145,-0.0014885378710057496,-0.004543397032310465,0.008509279259858839,0.28996896743774414,2019-07-25 11:47:52:631,-44.80620874009106,-67.20920821856915,0,-44.231990814208984,13.04468822479248,-7.646886348724365
0.47181597352027893,-0.44992318749427795,9.734990119934082,-0.0025540625113998103,-0.0005476796633420271,0.008242898132269616,0.299985408782959,2019-07-25 11:47:52:641,-47.45428202422682,-69.4106643379226,0,-44.231990814208984,13.04468822479248,-7.646886348724365
0.42392098903656006,-0.4092124402523041,9.746964454650879,-0.00308682476657826,-0.0018795853663067313,0.007710135877091167,0.30999326705932617,2019-07-25 11:47:52:651,-50.05433269180296,-71.57263504140916,0,-44.231990814208984,13.04468822479248,-7.646886348724365
0.3760260045528412,-0.3828701972961426,9.83796501159668,-0.00308682476657826,-0.0016132042387175067,0.004247180958356922,0.32000231742858887,2019-07-25 11:47:52:661,-52.6085616116079,-73.69487370943968,0,-44.231990814208984,13.04468822479248,-7.646886348724365
0.3185519874095917,-0.4020281732082367,9.823596000671387,0.0003761301846652757,-0.003744253389468466,0.00557908685637737,0.3299899101257324,2019-07-25 11:47:52:671,-55.11714474485033,-75.77431701999937,0,-44.231990814208984,13.04468822479248,-7.646886348724365
0.2634727656841278,-0.44273892045021057,9.768516540527344,-0.0020213001261841987,0.0015833695524275135,0.0002514638006988733,0.3399698734283447,2019-07-25 11:47:52:681,-57.58478941415419,-77.80579713031061,0,-44.231990814208984,13.04468822479248,-7.646886348724365
0.20839351415634155,-0.3900544345378876,9.751753807067871,-0.006816160552827403,0.0005178449445427432,-0.002145966493895956,0.35001444816589355,2019-07-25 11:47:52:691,-60.00890137378472,-79.80002650606464,0,-44.231990814208984,13.04468822479248,-7.646886348724365
0.29460451006889343,-0.37089642882347107,9.818806648254395,-0.006549779425238179,-0.0032114911342900165,-0.00480977815989969,0.35999226570129395,2019-07-25 11:47:52:701,-62.37255223815387,-81.75709110012004,0,-44.231990814208984,13.04468822479248,-7.646886348724365
0.26107800006866455,-0.3804754316806793,9.818806648254395,-0.0014885378710057496,0.005312705728788145,-0.003744253389468466,0.37000107765197754,2019-07-25 11:47:52:711,-64.69762465604319,-83.67673109330799,0,-44.231990814208984,13.04468822479248,-7.646886348724365
0.28742024302482605,-0.4140019416809082,9.792464256286621,-0.004685111532113607,-0.005076159287488914,-0.008805495593886707,0.3799924850463867,2019-07-25 11:47:52:721,-66.96720005035858,-85.55215031424196,0,-44.231990814208984,13.04468822479248,-7.646886348724365
0.3233414888381958,-0.3541331887245178,9.845149040222168,-0.004152349276935158,0.0007842261046412585,-0.010137400711684182,0.3899683952331543,2019-07-25 11:47:52:731,-69.19067386661987,-87.39758019592256,0,-44.231990814208984,13.04468822479248,-7.646886348724365
0.28742024302482605,-0.3804754316806793,9.852333068847656,-0.0014885378710057496,-0.005342540415078138,-0.011469306869778954,0.3999948501586914,2019-07-25 11:47:52:741,-71.37043252463089,-89.20455980825182,0,-44.231990814208984,13.04468822479248,-7.646886348724365
0.26107800006866455,-0.44273892045021057,9.761332511901855,-0.00042301326312097924,-0.0002812985032435118,-0.005608921542667363,0.40999913215637207,2019-07-25 11:47:52:751,-73.51222434010708,-90.96829197780667,0,-44.231990814208984,13.04468822479248,-7.646886348724365
0.3113677501678467,-0.44992318749427795,9.790069580078125,0.0009088924723530155,0.001849750680016738,-0.009338257849065158,0.4199862480163574,2019-07-25 11:47:52:761,-75.60658421675808,-92.69680989625064,0,-44.231990814208984,13.04468822479248,-7.646886348724365
0.24192000925540924,-0.4547126889228821,9.78049087524414,-0.0020213001261841987,-0.0016132042387175067,-0.009071876201327283,0.43000364303588867,2019-07-25 11:47:52:771,-77.66520675170028,-94.38849941616047,0,-44.231990814208984,13.04468822479248,-7.646886348724365
0.23713050782680511,-0.4211861789226532,9.823596000671387,0.0014416547925500459,-0.006141683797845812,-0.006141683797845812,0.440051794052124,2019-07-25 11:47:52:781,-79.68078172757532,-96.05244181223888,0,-44.231990814208984,13.04468822479248,-7.646886348724365
0.2514989972114563,-0.4020281732082367,9.816411972045898,0.0014416547925500459,0.004247180958356922,-0.0002812985032435118,0.4500267505645752,2019-07-25 11:47:52:791,-81.66019267625208,-97.68529602306347,0,-44.231990814208984,13.04468822479248,-7.646886348724365
0.21557776629924774,-0.4259756803512573,9.797253608703613,-0.0020213001261841987,-0.0008140607909312516,0.001050607232230483,0.4599947929382324,2019-07-25 11:47:52:801,-83.6013226482427,-99.28066676458081,0,-44.231990814208984,13.04468822479248,-7.646886348724365
0.2059987634420395,-0.3565279543399811,9.802042961120605,0.0022407983053548824,-0.0013468231111282822,0.0002514638006988733,0.47000813484191895,2019-07-25 11:47:52:811,-85.50446004303089,-100.85465149663054,0,-43.482295989990234,13.79438304901123,-8.396581649780273
0.17007751762866974,-0.35892269015312195,9.828385353088379,-0.0017549189985949741,-0.0002812985032435118,0.003448037575589248,0.48000001907348633,2019-07-25 11:47:52:821,-87.37438524508893,-102.39474479202458,0,-43.482295989990234,13.79438304901123,-8.396581649780273
0.17486701905727386,-0.39723867177963257,9.811622619628906,0.0027735605605333316,0.002116131807605963,-0.0005476796633420271,0.48996925354003906,2019-07-25 11:47:52:831,-89.20766124410872,-103.90203361991063,0,-43.482295989990234,13.79438304901123,-8.396581649780273
0.16768276691436768,-0.4259756803512573,9.859517097473145,-0.0014885378710057496,-0.0032114911342900165,-0.002145966493895956,0.4999966621398926,2019-07-25 11:47:52:841,-91.00221289336037,-105.37367688472531,0,-43.482295989990234,13.79438304901123,-8.396581649780273
0.2251567542552948,-0.4475284218788147,9.797253608703613,0.0014416547925500459,0.001050607232230483,0.002915275320410799,0.5099897384643555,2019-07-25 11:47:52:851,-92.75642778040006,-106.81470439471566,0,-43.482295989990234,13.79438304901123,-8.396581649780273
0.2179725170135498,-0.37808069586753845,9.751753807067871,0.0022407983053548824,0.0026488941928215744,0.0031816564480000235,0.5200045108795166,2019-07-25 11:47:52:861,-94.47717937695042,-108.23526485266014,0,-43.482295989990234,13.79438304901123,-8.396581649780273
0.2059987634420395,-0.4068176746368408,9.814017295837402,-0.0020213001261841987,-0.0029451100067007917,0.006111849111555819,0.5299906730651855,2019-07-25 11:47:52:871,-96.16193486919789,-109.62195203460418,0,-43.482295989990234,13.79438304901123,-8.396581649780273
0.24910426139831543,-0.4259756803512573,9.857122421264648,0.0027735605605333316,-0.0026787288791115674,0.006111849111555819,0.5399692058563232,2019-07-25 11:47:52:881,-97.8082424556731,-110.98157703607096,0,-43.482295989990234,13.79438304901123,-8.396581649780273
0.20360401272773743,-0.3828701972961426,9.835570335388184,-0.002287681383810586,-0.002412347751522343,0.006644611366734268,0.5500011444091797,2019-07-25 11:47:52:891,-99.42700078729813,-112.31607220669676,0,-43.482295989990234,13.79438304901123,-8.396581649780273
0.17486701905727386,-0.36610692739486694,9.828385353088379,-0.00308682476657826,0.002116131807605963,0.006378230239145044,0.5600006580352783,2019-07-25 11:47:52:901,-101.01926289453411,-113.62535201938306,0,-43.482295989990234,13.79438304901123,-8.396581649780273
0.19641976058483124,-0.37808069586753845,9.857122421264648,-0.0017549189985949741,-0.0026787288791115674,0.002915275320410799,0.570000410079956,2019-07-25 11:47:52:911,-102.57454229538747,-114.90792831014821,0,-43.482295989990234,13.79438304901123,-8.396581649780273
0.17726176977157593,-0.3804754316806793,9.804438591003418,0.000642511344763791,-1.491734416091191e-05,0.0037144187031784726,0.580010175704956,2019-07-25 11:47:52:921,-104.10232745816657,-116.16568425464709,0,-43.482295989990234,13.79438304901123,-8.396581649780273
0.13655102252960205,-0.3230014443397522,9.842754364013672,-0.00015663211927710938,-0.0034778722618792413,0.001050607232230483,0.5899710655212402,2019-07-25 11:47:52:931,-105.6024391687613,-117.40469190059552,0,-43.482295989990234,13.79438304901123,-8.396581649780273
0.2059987634420395,-0.3421594500541687,9.727806091308594,-0.0025540625113998103,0.0002514638006988733,-0.009338257849065158,0.5999996662139893,2019-07-25 11:47:52:941,-107.06626938059905,-118.61487078667783,0,-43.482295989990234,13.79438304901123,-8.396581649780273
0.18684077262878418,-0.33258044719696045,9.785280227661133,0.0017080359201392707,0.0026488941928215744,0.0002514638006988733,0.6099951267242432,2019-07-25 11:47:52:951,-108.50455314047224,-119.80459979693062,0,-43.482295989990234,13.79438304901123,-8.396581649780273
0.2059987634420395,-0.36610692739486694,9.83796501159668,0.0022407983053548824,-0.0008140607909312516,-0.005875302670256588,0.6200006008148193,2019-07-25 11:47:52:961,-109.91001372473487,-120.967142622389,0,-43.482295989990234,13.79438304901123,-8.396581649780273
0.23473575711250305,-0.3756859302520752,9.754148483276367,-0.0038859681493459333,-0.002412347751522343,-0.0034778722618792413,0.6299984455108643,2019-07-25 11:47:52:971,-111.28288781983538,-122.10150456439932,0,-43.482295989990234,13.79438304901123,-8.396581649780273
0.22036726772785187,-0.35173845291137695,9.778096199035645,0.004904609581247128,0.002116131807605963,-0.006141683797845812,0.6399717330932617,2019-07-25 11:47:52:981,-112.63259416351603,-123.22101784774948,0,-43.482295989990234,13.79438304901123,-8.396581649780273
0.22036726772785187,-0.3493436872959137,9.859517097473145,-0.0025540625113998103,0.002915275320410799,-0.006674446053024261,0.6500024795532227,2019-07-25 11:47:52:991,-113.95597646586577,-124.31457372751842,0,-43.482295989990234,13.79438304901123,-8.396581649780273
0.2850255072116852,-0.43076518177986145,9.828385353088379,-0.000955775550808719,-0.0018795853663067313,-0.01360035589049275,0.6599860191345215,2019-07-25 11:47:53:001,-115.24258077656457,-125.37755462130684,0,-43.482295989990234,13.79438304901123,-8.396581649780273
0.26826226711273193,-0.4283704161643982,9.811622619628906,-0.001222156743416525,0.001849750680016738,-0.010936544614600505,0.670006275177002,2019-07-25 11:47:53:011,-116.50744690826238,-126.41931756396306,0,-43.482295989990234,13.79438304901123,-8.396581649780273
0.23952525854110718,-0.3565279543399811,9.852333068847656,-0.004685111532113607,-0.0008140607909312516,-0.0016132042387175067,0.6799895763397217,2019-07-25 11:47:53:021,-117.74898816862309,-127.44685557738951,0,-43.482295989990234,13.79438304901123,-8.396581649780273
0.25389376282691956,-0.3732911944389343,9.77091121673584,-0.0006893944232194946,0.001050607232230483,-0.007473589435791935,0.6899833679199219,2019-07-25 11:47:53:031,-118.96482843052746,-128.45377394650183,0,-43.482295989990234,13.79438304901123,-8.396581649780273
0.28742024302482605,-0.3828701972961426,9.873886108398438,0.0017080359201392707,-0.0018795853663067313,-0.007473589435791935,0.6999943256378174,2019-07-25 11:47:53:041,-120.1511281306283,-129.441246760197,0,-43.482295989990234,13.79438304901123,-8.396581649780273
0.23473575711250305,-0.4068176746368408,9.792464256286621,-0.0014885378710057496,0.0002514638006988733,-0.007207208308202711,0.7099995613098145,2019-07-25 11:47:53:051,-121.32078328560335,-130.40400707132522,0,-43.482295989990234,13.79438304901123,-8.396581649780273
0.26826226711273193,-0.4283704161643982,9.763727188110352,-0.007348922808005853,0.002116131807605963,-0.010403782359422057,0.7199859619140625,2019-07-25 11:47:53:061,-122.46407764388898,-131.34156284523058,0,-41.982906341552734,12.594871520996094,-6.59731388092041
0.2778412401676178,-0.4020281732082367,9.797253608703613,-0.004152349276935158,0.00557908685637737,-0.0032114911342900165,0.7300050258636475,2019-07-25 11:47:53:071,-123.58544629194232,-132.26539957405603,0,-41.982906341552734,12.594871520996094,-6.59731388092041
0.2850255072116852,-0.43076518177986145,9.751753807067871,-0.0020213001261841987,-0.0010804419185204762,-0.010936544614600505,0.7399678230285645,2019-07-25 11:47:53:081,-124.67964952162053,-133.16837509031942,0,-41.982906341552734,12.594871520996094,-6.59731388092041
0.28023600578308105,-0.39723867177963257,9.840359687805176,-0.0014885378710057496,0.0015833695524275135,-0.008272732818559609,0.7500050067901611,2019-07-25 11:47:53:091,-125.75432406934003,-134.05793509822198,0,-41.982906341552734,12.594871520996094,-6.59731388092041
0.2586832642555237,-0.4475284218788147,9.797253608703613,0.00010974903269408318,0.0026488941928215744,-0.0013468231111282822,0.7599873542785645,2019-07-25 11:47:53:101,-126.8104729858233,-134.9245300323516,0,-41.982906341552734,12.594871520996094,-6.59731388092041
0.3568679988384247,-0.4403441846370697,9.73020076751709,-0.0025540625113998103,0.003980799830767698,-0.00480977815989969,0.770000696182251,2019-07-25 11:47:53:111,-127.83449257967438,-135.7727799003976,0,-41.982906341552734,12.594871520996094,-6.59731388092041
0.3281309902667999,-0.4403441846370697,9.746964454650879,-0.004685111532113607,0.0031816564480000235,-0.002145966493895956,0.7799925804138184,2019-07-25 11:47:53:121,-128.8410251560468,-136.60296124779927,0,-41.982906341552734,12.594871520996094,-6.59731388092041
0.3616575002670288,-0.4355546832084656,9.756543159484863,0.0030399416881225563,-0.0005476796633420271,-0.0026787288791115674,0.7899668216705322,2019-07-25 11:47:53:131,-129.82144033374198,-137.4214821663955,0,-41.982906341552734,12.594871520996094,-6.59731388092041
0.3544732332229614,-0.44992318749427795,9.744569778442383,0.0011752736649608213,0.005845467983966595,-0.0013468231111282822,0.8000004291534424,2019-07-25 11:47:53:141,-130.78663876618447,-138.22084335341694,0,-41.982906341552734,12.594871520996094,-6.59731388092041
0.3640522360801697,-0.43794941902160645,9.811622619628906,0.0017080359201392707,0.004247180958356922,-0.0013468231111282822,0.8099987506866455,2019-07-25 11:47:53:151,-131.7307916115629,-139.0062704784545,0,-41.982906341552734,12.594871520996094,-6.59731388092041
0.3903944790363312,-0.4259756803512573,9.833174705505371,-0.0025540625113998103,0.003448037575589248,-0.0029451100067007917,0.8200006484985352,2019-07-25 11:47:53:161,-132.65264121437377,-139.7751003514633,0,-41.982906341552734,12.594871520996094,-6.59731388092041
0.3688417375087738,-0.4355546832084656,9.79964828491211,0.00010974903269408318,-1.491734416091191e-05,-0.002145966493895956,0.8300156593322754,2019-07-25 11:47:53:171,-133.55647007868907,-140.52876225079044,0,-41.982906341552734,12.594871520996094,-6.59731388092041
0.37123650312423706,-0.40442293882369995,9.778096199035645,0.0022407983053548824,0.0037144187031784726,-0.0018795853663067313,0.8399715423583984,2019-07-25 11:47:53:181,-134.44393201847464,-141.27207148613047,0,-41.982906341552734,12.594871520996094,-6.59731388092041
0.37123650312423706,-0.4092124402523041,9.778096199035645,0.001974417047728495,0.002116131807605963,-0.0026787288791115674,0.8499891757965088,2019-07-25 11:47:53:191,-135.3127585799789,-141.9998121479735,0,-41.982906341552734,12.594871520996094,-6.59731388092041
0.3281309902667999,-0.4163966774940491,9.864306449890137,-0.0020213001261841987,0.002915275320410799,-0.005608921542667363,0.8600006103515625,2019-07-25 11:47:53:201,-136.1700379712986,-142.71033643026755,0,-41.982906341552734,12.594871520996094,-6.59731388092041
0.3041835129261017,-0.44273892045021057,9.80922794342041,0.0011752736649608213,0.002116131807605963,-0.004277015644646915,0.8699994087219238,2019-07-25 11:47:53:211,-137.01230189088952,-143.40510378322853,0,-41.982906341552734,12.594871520996094,-6.59731388092041
0.28742024302482605,-0.4092124402523041,9.761332511901855,0.0003761301846652757,0.0026488941928215744,-0.004010634517057691,0.8799855709075928,2019-07-25 11:47:53:221,-137.8398096643387,-144.08920190197802,0,-41.982906341552734,12.594871520996094,-6.59731388092041
0.28742024302482605,-0.3828701972961426,9.804438591003418,-0.002287681383810586,0.003980799830767698,-0.006408064925435037,0.889970064163208,2019-07-25 11:47:53:231,-138.65166195594244,-144.76140924494104,0,-41.982906341552734,12.594871520996094,-6.59731388092041
0.3616575002670288,-0.35892269015312195,9.86670207977295,-0.0025540625113998103,0.0005178449445427432,-0.013866736497933324,0.8999872207641602,2019-07-25 11:47:53:241,-139.43693599540845,-145.42307770448687,0,-41.982906341552734,12.594871520996094,-6.59731388092041
0.39278924465179443,-0.37808069586753845,9.797253608703613,-0.0014885378710057496,0.003448037575589248,-0.009338257849065158,0.9100003242492676,2019-07-25 11:47:53:251,-140.20421868693788,-146.06957974558455,0,-41.982906341552734,12.594871520996094,-6.59731388092041
0.38560497760772705,-0.35892269015312195,9.727806091308594,0.0017080359201392707,0.006111849111555819,-0.010403782359422057,0.9199931621551514,2019-07-25 11:47:53:261,-140.95816394410235,-146.70688533801757,0,-41.982906341552734,12.594871520996094,-6.59731388092041
0.4095524847507477,-0.3685016930103302,9.823596000671387,-0.00015663211927710938,0.003448037575589248,-0.013067593635314302,0.9299921989440918,2019-07-25 11:47:53:271,-141.6931901868178,-147.32969437193424,0,-41.982906341552734,12.594871520996094,-6.59731388092041
0.3616575002670288,-0.3828701972961426,9.77091121673584,0.0022407983053548824,-0.0002812985032435118,-0.007473589435791935,0.9399714469909668,2019-07-25 11:47:53:281,-142.4167735487888,-147.93947668374642,0,-41.982906341552734,12.594871520996094,-6.59731388092041
0.3903944790363312,-0.39244917035102844,9.792464256286621,-0.00308682476657826,-0.0018795853663067313,-0.012801211987576427,0.9499993324279785,2019-07-25 11:47:53:291,-143.12171991132365,-148.53304917332315,0,-41.982906341552734,12.594871520996094,-6.59731388092041
0.4334999918937683,-0.4163966774940491,9.734990119934082,0.0022407983053548824,0.001316988424838289,-0.012801211987576427,0.9599995613098145,2019-07-25 11:47:53:301,-143.80903098023944,-149.11466180600615,0,-41.982906341552734,12.594871520996094,-6.59731388092041
0.4287104904651642,-0.3804754316806793,9.785280227661133,0.0017080359201392707,0.0007842261046412585,-0.01573140491120655,0.969989538192749,2019-07-25 11:47:53:311,-144.48311775091685,-149.68879312416044,0,-43.632232666015625,12.44493293762207,-4.9479851722717285
0.39757874608039856,-0.3948439359664917,9.811622619628906,-0.003619587021756709,0.0005178449445427432,-0.01173568747721953,0.9799880981445312,2019-07-25 11:47:53:321,-145.1473376349902,-150.24689555587867,0,-43.632232666015625,12.44493293762207,-4.9479851722717285
0.36644700169563293,-0.3900544345378876,9.802042961120605,-0.000955775550808719,0.002116131807605963,-0.01653054777382557,0.9899747371673584,2019-07-25 11:47:53:331,-145.80275766429426,-150.79584611886077,0,-43.632232666015625,12.44493293762207,-4.9479851722717285
0.3305257558822632,-0.4092124402523041,9.790069580078125,-0.004152349276935158,-0.0032114911342900165,-0.01173568747721953,0.9999985694885254,2019-07-25 11:47:53:341,-146.44622202181318,-151.32972215455123,0,-43.632232666015625,12.44493293762207,-4.9479851722717285
0.3640522360801697,-0.4163966774940491,9.80922794342041,-0.00308682476657826,-0.002145966493895956,-0.017862453931920343,1.0100023746490479,2019-07-25 11:47:53:351,-147.07358303476724,-151.8527794633376,0,-43.632232666015625,12.44493293762207,-4.9479851722717285
0.3544732332229614,-0.46429166197776794,9.763727188110352,0.0009088924723530155,0.001050607232230483,-0.015198642656028098,1.0199923515319824,2019-07-25 11:47:53:361,-147.6911163644635,-152.3617833331116,0,-43.632232666015625,12.44493293762207,-4.9479851722717285
0.3616575002670288,-0.4355546832084656,9.785280227661133,-0.003619587021756709,0.0002514638006988733,-0.012534831380135851,1.0299992561340332,2019-07-25 11:47:53:371,-148.29510231569378,-152.86154142339524,0,-43.632232666015625,12.44493293762207,-4.9479851722717285
0.3616575002670288,-0.4403441846370697,9.83796501159668,-0.0017549189985949741,0.0026488941928215744,-0.01067016296686263,1.0399680137634277,2019-07-25 11:47:53:381,-148.88857645689663,-153.35207168293925,0,-43.632232666015625,12.44493293762207,-4.9479851722717285
0.39757874608039856,-0.4068176746368408,9.782885551452637,0.0041054661984794545,0.004513562346020471,-0.005875302670256588,1.050002098083496,2019-07-25 11:47:53:391,-149.46680326228378,-153.8397182841702,0,-43.632232666015625,12.44493293762207,-4.9479851722717285
0.3568679988384247,-0.44273892045021057,9.785280227661133,0.004371847326068679,0.006910992494323493,-0.012002069124957404,1.0599901676177979,2019-07-25 11:47:53:401,-150.03957018932599,-154.31356370295399,0,-43.632232666015625,12.44493293762207,-4.9479851722717285
0.3616575002670288,-0.43794941902160645,9.797253608703613,0.0009088924723530155,-0.0029451100067007917,-0.01653054777382557,1.069997787475586,2019-07-25 11:47:53:411,-150.59484252353474,-154.7766133855171,0,-43.632232666015625,12.44493293762207,-4.9479851722717285
0.3832102417945862,-0.4163966774940491,9.773306846618652,-0.004152349276935158,-0.0002812985032435118,-0.010936544614600505,1.0799989700317383,2019-07-25 11:47:53:421,-151.13787949140598,-155.22995649986237,0,-43.632232666015625,12.44493293762207,-4.9479851722717285
0.3903944790363312,-0.4020281732082367,9.727806091308594,-0.00308682476657826,-0.002145966493895956,-0.005076159287488914,1.089970588684082,2019-07-25 11:47:53:431,-151.66795736067388,-155.67629788220196,0,-43.632232666015625,12.44493293762207,-4.9479851722717285
0.36644700169563293,-0.4738706648349762,9.665542602539062,-0.00308682476657826,-0.0018795853663067313,-0.005608921542667363,1.1000022888183594,2019-07-25 11:47:53:441,-152.19011550489319,-156.1048975505299,0,-43.632232666015625,12.44493293762207,-4.9479851722717285
0.39757874608039856,-0.4331599175930023,9.756543159484863,-0.006283398297648954,-0.0008140607909312516,-0.004543397032310465,1.1099934577941895,2019-07-25 11:47:53:451,-152.69918631110335,-156.52843292407445,0,-43.632232666015625,12.44493293762207,-4.9479851722717285
0.34728899598121643,-0.4403441846370697,9.749359130859375,-0.0038859681493459333,-0.002412347751522343,0.002116131807605963,1.1199898719787598,2019-07-25 11:47:53:461,-153.2030463021157,-156.94396126631594,0,-43.632232666015625,12.44493293762207,-4.9479851722717285
0.3377099931240082,-0.44992318749427795,9.854727745056152,-0.001222156743416525,-0.00480977815989969,-0.0002812985032435118,1.1299934387207031,2019-07-25 11:47:53:471,-153.69702990310967,-157.35211443561872,0,-43.632232666015625,12.44493293762207,-4.9479851722717285
0.29939401149749756,-0.47626543045043945,9.734990119934082,-0.004685111532113607,-0.005076159287488914,-0.0005476796633420271,1.1399686336517334,2019-07-25 11:47:53:481,-154.18501524965865,-157.74643096337854,0,-43.632232666015625,12.44493293762207,-4.9479851722717285
0.2898150086402893,-0.3828701972961426,9.869096755981445,-0.0017549189985949741,-0.005076159287488914,0.004247180958356922,1.1500024795532227,2019-07-25 11:47:53:491,-154.66481385492594,-158.14608027530505,0,-43.632232666015625,12.44493293762207,-4.9479851722717285
0.24670951068401337,-0.3732911944389343,9.814017295837402,-0.0006893944232194946,-0.004010634517057691,0.006910992494323493,1.159989833831787,2019-07-25 11:47:53:501,-155.1404679454985,-158.53920641075544,0,-43.632232666015625,12.44493293762207,-4.9479851722717285
0.20360401272773743,-0.3804754316806793,9.840359687805176,0.004371847326068679,0.004513562346020471,0.0023825130652323496,1.1699998378753662,2019-07-25 11:47:53:511,-155.6164890583363,-158.92659499921808,0,-43.632232666015625,12.44493293762207,-4.9479851722717285
0.232341006398201,-0.3756859302520752,9.833174705505371,-0.00042301326312097924,0.0026488941928215744,0.009841185417953615,1.1799898147583008,2019-07-25 11:47:53:521,-156.07857415942595,-159.30406628839413,0,-43.632232666015625,12.44493293762207,-4.9479851722717285
0.21078826487064362,-0.4283704161643982,9.828385353088379,0.000642511344763791,-0.0029451100067007917,0.0005178449445427432,1.189976453781128,2019-07-25 11:47:53:531,-156.5307786559525,-159.66843208072945,0,-43.632232666015625,12.44493293762207,-4.9479851722717285
0.22755150496959686,-0.3900544345378876,9.82120132446289,0.0022407983053548824,0.0031816564480000235,0.0031816564480000235,1.200000286102295,2019-07-25 11:47:53:541,-156.97540838991668,-160.03083787814316,0,-43.632232666015625,12.44493293762207,-4.9479851722717285
0.23952525854110718,-0.3828701972961426,9.828385353088379,0.0067692774743717005,0.002915275320410799,0.002915275320410799,1.2099697589874268,2019-07-25 11:47:53:551,-157.40961083687012,-160.38939324100437,0,-43.632232666015625,12.44493293762207,-4.9479851722717285
0.2706570029258728,-0.3685016930103302,9.825990676879883,0.0022407983053548824,0.0037144187031784726,0.0002514638006988733,1.2201218605041504,2019-07-25 11:47:53:561,-157.83197970795615,-160.73992786100376,0,-41.68302917480469,12.894749641418457,-3.298656940460205
0.2562884986400604,-0.4020281732082367,9.814017295837402,0.005170990708836353,0.0002514638006988733,0.001849750680016738,1.23000168800354,2019-07-25 11:47:53:571,-158.24556136060966,-161.08108207083635,0,-41.68302917480469,12.894749641418457,-3.298656940460205
0.2898150086402893,-0.41879144310951233,9.828385353088379,0.005437371836425577,0.006378230239145044,-0.0002812985032435118,1.2399888038635254,2019-07-25 11:47:53:581,-158.6504464315778,-161.41371116889084,0,-41.68302917480469,12.894749641418457,-3.298656940460205
0.2826307415962219,-0.4020281732082367,9.830780029296875,0.005970134091604027,0.002116131807605963,0.0037144187031784726,1.249985933303833,2019-07-25 11:47:53:591,-159.04568985366012,-161.7419522687088,0,-41.68302917480469,12.894749641418457,-3.298656940460205
0.29460451006889343,-0.35173845291137695,9.893043518066406,0.002507179432944107,-0.0013468231111282822,0.001050607232230483,1.2599949836730957,2019-07-25 11:47:53:601,-159.42990504417824,-162.06779740952237,0,-41.68302917480469,12.894749641418457,-3.298656940460205
0.30657824873924255,-0.3876596987247467,9.86191177368164,-0.00015663211927710938,0.005845467983966595,-0.0029451100067007917,1.269998550415039,2019-07-25 11:47:53:611,-159.80897861130737,-162.38133211906668,0,-41.68302917480469,12.894749641418457,-3.298656940460205
0.32573625445365906,-0.3541331887245178,9.785280227661133,-0.0028204436389890346,0.0005178449445427432,-0.0029451100067007917,1.2799925804138184,2019-07-25 11:47:53:621,-160.1749580267404,-162.6906696965913,0,-41.68302917480469,12.894749641418457,-3.298656940460205
0.3041835129261017,-0.37808069586753845,9.77091121673584,0.000642511344763791,0.001050607232230483,0.001316988424838289,1.2899789810180664,2019-07-25 11:47:53:631,-160.53638537960444,-162.9928980403785,0,-41.68302917480469,12.894749641418457,-3.298656940460205
0.3017887473106384,-0.3421594500541687,9.761332511901855,-0.00042301326312097924,-0.002412347751522343,-0.005875302670256588,1.2999930381774902,2019-07-25 11:47:53:641,-160.88888452529295,-163.2926514166975,0,-41.68302917480469,12.894749641418457,-3.298656940460205
0.3233414888381958,-0.3637121915817261,9.79964828491211,0.000642511344763791,-0.0008140607909312516,-0.005608921542667363,1.3099994659423828,2019-07-25 11:47:53:651,-161.232853429223,-163.58464845011557,0,-41.68302917480469,12.894749641418457,-3.298656940460205
0.3113677501678467,-0.3828701972961426,9.768516540527344,0.0022407983053548824,0.001050607232230483,-0.008006351690970383,1.319995403289795,2019-07-25 11:47:53:661,-161.57227277418377,-163.8693227896353,0,-41.68302917480469,12.894749641418457,-3.298656940460205
0.30657824873924255,-0.36610692739486694,9.744569778442383,0.0003761301846652757,0.001849750680016738,-0.006940827180613486,1.3299994468688965,2019-07-25 11:47:53:671,-161.90582609856594,-164.14911540197016,0,-41.68302917480469,12.894749641418457,-3.298656940460205
0.3544732332229614,-0.3349751830101013,9.773306846618652,-0.0025540625113998103,0.0007842261046412585,-0.013866736497933324,1.3399708271026611,2019-07-25 11:47:53:681,-162.22660505003327,-164.42544278317024,0,-41.68302917480469,12.894749641418457,-3.298656940460205
0.3496837317943573,-0.41160717606544495,9.797253608703613,-0.005484254914881281,0.002915275320410799,-0.017329691676741896,1.3499853610992432,2019-07-25 11:47:53:691,-162.54282956829746,-164.68573555947629,0,-41.68302917480469,12.894749641418457,-3.298656940460205
0.34010475873947144,-0.3613174259662628,9.790069580078125,-0.006283398297648954,0.003448037575589248,-0.013866736497933324,1.3600003719329834,2019-07-25 11:47:53:701,-162.8541191111528,-164.94621485892662,0,-41.68302917480469,12.894749641418457,-3.298656940460205
0.34010475873947144,-0.3469489514827728,9.790069580078125,-0.000955775550808719,-0.002145966493895956,-0.015198642656028098,1.3699893951416016,2019-07-25 11:47:53:711,-163.15604025393455,-165.20616152463282,0,-41.68302917480469,12.894749641418457,-3.298656940460205
0.3424994945526123,-0.3613174259662628,9.768516540527344,-0.00042301326312097924,0.002116131807605963,-0.014932261008290223,1.3800013065338135,2019-07-25 11:47:53:721,-163.4539479248546,-165.45943473168225,0,-41.68302917480469,12.894749641418457,-3.298656940460205
0.37123650312423706,-0.3421594500541687,9.785280227661133,-0.0060170171700597306,0.006378230239145044,-0.016796929421563446,1.3899760246276855,2019-07-25 11:47:53:731,-163.74498807581892,-165.70682340587373,0,-41.68302917480469,12.894749641418457,-3.298656940460205
0.43110522627830505,-0.3373699486255646,9.778096199035645,-0.0049514926597028315,0.004513562346020471,-0.014133118145671199,1.3999967575073242,2019-07-25 11:47:53:741,-164.02213850005435,-165.95037950315276,0,-41.68302917480469,12.894749641418457,-3.298656940460205
0.3903944790363312,-0.39244917035102844,9.746964454650879,-0.00308682476657826,0.001050607232230483,-0.018395217227396093,1.4099953174591064,2019-07-25 11:47:53:751,-164.29641280318907,-166.18352498459925,0,-41.68302917480469,12.894749641418457,-3.298656940460205
0.37842074036598206,-0.3900544345378876,9.80922794342041,-0.005217873787292057,0.004247180958356922,-0.010403782359422057,1.4199879169464111,2019-07-25 11:47:53:761,-164.56868230777008,-166.41138459549916,0,-41.68302917480469,12.894749641418457,-3.298656940460205
0.3903944790363312,-0.49063393473625183,9.802042961120605,-0.00894721009368985,0.001316988424838289,-0.015198642656028098,1.4300005435943604,2019-07-25 11:47:53:771,-164.83243381601233,-166.62081659560047,0,-41.68302917480469,12.894749641418457,-3.298656940460205
0.3616575002670288,-0.4738706648349762,9.80922794342041,-0.00308682476657826,0.001050607232230483,-0.012002069124957404,1.4399664402008057,2019-07-25 11:47:53:781,-165.09414328272248,-166.83135828226838,0,-41.68302917480469,12.894749641418457,-3.298656940460205
0.3353152573108673,-0.5361341834068298,9.739779472351074,-0.015073976548390666,0.007710135877091167,0.02076281112896317,1.450000524520874,2019-07-25 11:47:53:791,-165.35716908774327,-167.02322397672364,0,-41.68302917480469,12.894749641418457,-3.298656940460205
4.114230155944824,1.1449800729751587,9.473962783813477,0.016625380235470312,0.04740092596848023,0.07989942665525752,1.4599971771240234,2019-07-25 11:47:53:801,-165.2071579651516,-160.2299132333737,0,-41.68302917480469,12.894749641418457,-3.298656940460205
2.7755651473999023,1.6526670455932617,7.249240398406982,0.25104078291696097,0.09987801174459802,-0.0959121321177929,1.4700047969818115,2019-07-25 11:47:53:811,-165.14012534457768,-153.82323508557946,0,-41.53308868408203,13.644444465637207,-4.048351764678955
0.8477916717529297,-0.4810549318790436,8.022744178771973,0.049923022744569334,0.02236109893479582,-0.04743076169506752,1.47999906539917,2019-07-25 11:47:53:821,-165.32922617394698,-154.30615749895253,0,-41.53308868408203,13.644444465637207,-4.048351764678955
1.2908203601837158,-1.462902307510376,10.709653854370117,-0.09818489043682334,-0.03491084609763072,0.034348249156162275,1.4899792671203613,2019-07-25 11:47:53:831,-165.46562542241819,-154.60944742005552,0,-41.53308868408203,13.644444465637207,-4.048351764678955
-0.3831096589565277,-0.9168993830680847,10.448625564575195,0.009433089270412597,-0.006674446053024261,-0.004010634517057691,1.499992847442627,2019-07-25 11:47:53:841,-158.5945574983135,-155.02226160753352,0,-41.53308868408203,13.644444465637207,-4.048351764678955
0.05752428248524666,-0.49542343616485596,9.746964454650879,-0.030524082988862992,-0.004010634517057691,0.014369664066821781,1.5099899768829346,2019-07-25 11:47:53:851,-159.01365218427335,-155.44648699274904,0,-41.53308868408203,13.644444465637207,-4.048351764678955
0.8597654104232788,-0.3637121915817261,9.598489761352539,0.02701424473159872,0.011439472183488963,0.0005178449445427432,1.5199995040893555,2019-07-25 11:47:53:861,-159.3374386233343,-155.909339154569,0,-41.53308868408203,13.644444465637207,-4.048351764678955
0.07907702773809433,-0.25355368852615356,9.294356346130371,0.04939026152968819,0.011705852790929535,0.0023825130652323496,1.529991626739502,2019-07-25 11:47:53:871,-159.74750819964214,-156.38760981477407,0,-41.53308868408203,13.644444465637207,-4.048351764678955
0.4071577489376068,-0.20086920261383057,9.967281341552734,-0.014008452038033768,-0.005608921542667363,0.02582405307330709,1.5399768352508545,2019-07-25 11:47:53:881,-160.1026293058845,-156.82891317808117,0,-41.53308868408203,13.644444465637207,-4.048351764678955
0.1461300253868103,-0.37808069586753845,9.92896556854248,0.004904609581247128,-0.004010634517057691,0.01889814479628455,1.5499930381774902,2019-07-25 11:47:53:891,-160.48145725515633,-157.2514795659954,0,-41.53308868408203,13.644444465637207,-4.048351764678955
0.01681353710591793,-0.4140019416809082,9.854727745056152,0.004371847326068679,0.0002514638006988733,0.020496430521522595,1.559990406036377,2019-07-25 11:47:53:901,-160.87001417988265,-157.66079193017515,0,-41.53308868408203,13.644444465637207,-4.048351764678955
0.24192000925540924,-0.35892269015312195,9.869096755981445,0.0027735605605333316,-0.0005476796633420271,0.021029193816998346,1.5699892044067383,2019-07-25 11:47:53:911,-161.22422234178612,-158.06747656370595,0,-41.53308868408203,13.644444465637207,-4.048351764678955
-0.002344459993764758,-0.3158172070980072,9.79964828491211,0.01209690054630484,0.004513562346020471,0.01969728661860627,1.5800046920776367,2019-07-25 11:47:53:921,-154.402550327119,-158.47601284003213,0,-41.53308868408203,13.644444465637207,-4.048351764678955
0.11020877212285995,-0.3876596987247467,9.979254722595215,-0.010545496859225198,-0.005076159287488914,0.02342662344515272,1.5899689197540283,2019-07-25 11:47:53:931,-154.89900452585627,-158.85609997785002,0,-41.53308868408203,13.644444465637207,-4.048351764678955
0.11739302426576614,-0.3373699486255646,9.914596557617188,0.0009088924723530155,0.0023825130652323496,0.010107566025394189,1.599989652633667,2019-07-25 11:47:53:941,-155.3887974946553,-159.24051165745985,0,-41.53308868408203,13.644444465637207,-4.048351764678955
0.10781402885913849,-0.28708019852638245,9.828385353088379,0.00623651521919325,0.0071773736219127166,0.011173090535751088,1.609997272491455,2019-07-25 11:47:53:951,-155.87248490287112,-159.62574401612315,0,-41.53308868408203,13.644444465637207,-4.048351764678955
0.17007751762866974,-0.23918519914150238,9.823596000671387,0.002507179432944107,0.0026488941928215744,0.011439472183488963,1.6199884414672852,2019-07-25 11:47:53:961,-156.33668380045808,-160.00674039602305,0,-41.53308868408203,13.644444465637207,-4.048351764678955
0.18205127120018005,-0.26792219281196594,9.811622619628906,0.0027735605605333316,0.0002514638006988733,-0.006141683797845812,1.6300015449523926,2019-07-25 11:47:53:971,-156.78883187728314,-160.37688167834344,0,-41.53308868408203,13.644444465637207,-4.048351764678955
0.22994625568389893,-0.2846854627132416,9.790069580078125,0.0041054661984794545,0.004247180958356922,-0.004010634517057691,1.639967679977417,2019-07-25 11:47:53:981,-157.22852197165642,-160.73832875646372,0,-41.53308868408203,13.644444465637207,-4.048351764678955
0.2658675014972687,-0.3373699486255646,9.725411415100098,-0.0025540625113998103,0.004247180958356922,-0.017862453931920343,1.6499972343444824,2019-07-25 11:47:53:991,-157.655024809378,-161.08238850092357,0,-41.53308868408203,13.644444465637207,-4.048351764678955
0.27544650435447693,-0.3421594500541687,9.756543159484863,-0.002287681383810586,0.004247180958356922,-0.021858171365907363,1.659996747970581,2019-07-25 11:47:54:001,-158.07196611175127,-161.4192857624448,0,-41.53308868408203,13.644444465637207,-4.048351764678955
0.3233414888381958,-0.3685016930103302,9.86191177368164,-0.0020213001261841987,0.0026488941928215744,-0.022657315268823686,1.6699857711791992,2019-07-25 11:47:54:011,-158.4744549445849,-161.74696779122456,0,-41.53308868408203,13.644444465637207,-4.048351764678955
0.34010475873947144,-0.3685016930103302,9.739779472351074,-0.005217873787292057,0.006111849111555819,-0.0298496062338814,1.6800017356872559,2019-07-25 11:47:54:021,-158.86840498012623,-162.0657592190488,0,-41.53308868408203,13.644444465637207,-4.048351764678955
0.4143419861793518,-0.3828701972961426,9.768516540527344,-0.00308682476657826,0.0007842261046412585,-0.031181511351678872,1.6899693012237549,2019-07-25 11:47:54:031,-159.2428996869533,-162.3778260229463,0,-41.53308868408203,13.644444465637207,-4.048351764678955
0.5197109580039978,-0.4618969261646271,9.787674903869629,-0.0006893944232194946,0.004779943473609696,-0.027452174525132426,1.6999971866607666,2019-07-25 11:47:54:041,-159.59994378627053,-162.67584372611196,0,-41.53308868408203,13.644444465637207,-4.048351764678955
0.5340794920921326,-0.44513368606567383,9.773306846618652,-0.0076153039355950775,0.007443754749501942,-0.03597637268858222,1.7099900245666504,2019-07-25 11:47:54:051,-159.9495632306495,-162.96589826224212,0,-41.53308868408203,13.644444465637207,-4.048351764678955
0.5484479665756226,-0.4858444333076477,9.713438034057617,-0.004418730404524382,-0.0008140607909312516,-0.026386650014775533,1.7200007438659668,2019-07-25 11:47:54:061,-160.28548139852526,-163.2468281186326,0,-42.13284683227539,12.744811058044434,-2.548962116241455
0.5843692421913147,-0.4475284218788147,9.706253051757812,-0.0028204436389890346,-0.0005476796633420271,-0.025321125504418632,1.7299926280975342,2019-07-25 11:47:54:071,-160.6105573211837,-163.52751156748923,0,-42.13284683227539,12.744811058044434,-2.548962116241455
0.5771849751472473,-0.4547126889228821,9.696674346923828,-0.008680828445951977,0.001316988424838289,-0.024255600994061734,1.7399628162384033,2019-07-25 11:47:54:081,-160.93095434935648,-163.7984047384331,0,-42.13284683227539,12.744811058044434,-2.548962116241455
0.5676059722900391,-0.4283704161643982,9.696674346923828,-0.004152349276935158,-0.002412347751522343,-0.015465023263468674,1.7499964237213135,2019-07-25 11:47:54:091,-161.24397515078175,-164.06950699895404,0,-42.13284683227539,12.744811058044434,-2.548962116241455
0.5388689637184143,-0.4714759290218353,9.75893783569336,-0.003353205894167484,-0.002145966493895956,-0.015465023263468674,1.759995937347412,2019-07-25 11:47:54:101,-161.55467978158242,-164.33091541906586,0,-42.13284683227539,12.744811058044434,-2.548962116241455
0.5268952250480652,-0.4666864275932312,9.792464256286621,-0.006816160552827403,-0.004543397032310465,-0.010936544614600505,1.7700002193450928,2019-07-25 11:47:54:111,-161.85943602490485,-164.5858977829016,0,-42.13284683227539,12.744811058044434,-2.548962116241455
0.5532374978065491,-0.4259756803512573,9.732595443725586,-0.007082541680416628,-0.004277015644646915,-0.009871020104243606,1.7799861431121826,2019-07-25 11:47:54:121,-162.15478099740332,-164.8400862086718,0,-42.13284683227539,12.744811058044434,-2.548962116241455
0.4550527334213257,-0.45710742473602295,9.742175102233887,-0.000955775550808719,-0.004277015644646915,-0.005608921542667363,1.7899692058563232,2019-07-25 11:47:54:131,-162.45580156698173,-165.08902123432955,0,-42.13284683227539,12.744811058044434,-2.548962116241455
0.41913148760795593,-0.4403441846370697,9.78049087524414,-0.007348922808005853,0.003980799830767698,0.0015833695524275135,1.7999968528747559,2019-07-25 11:47:54:141,-162.75985008549804,-165.3315455857654,0,-42.13284683227539,12.744811058044434,-2.548962116241455
0.4095524847507477,-0.4714759290218353,9.804438591003418,-0.004418730404524382,-0.0016132042387175067,0.001050607232230483,1.8099896907806396,2019-07-25 11:47:54:151,-163.05590837435506,-165.56737295795486,0,-42.13284683227539,12.744811058044434,-2.548962116241455
0.3281309902667999,-0.4475284218788147,9.833174705505371,-0.0025540625113998103,-0.004543397032310465,0.00904204151503729,1.8199992179870605,2019-07-25 11:47:54:161,-163.3540118848328,-165.80247297033205,0,-42.13284683227539,12.744811058044434,-2.548962116241455
0.2922097444534302,-0.3996334373950958,9.835570335388184,-0.0020213001261841987,0.0002514638006988733,0.010906709928310512,1.8300056457519531,2019-07-25 11:47:54:171,-163.65303838189308,-166.0387532145405,0,-42.13284683227539,12.744811058044434,-2.548962116241455
0.3041835129261017,-0.3086329400539398,9.775701522827148,0.0003761301846652757,-0.004543397032310465,0.015168807969738105,1.8399741649627686,2019-07-25 11:47:54:181,-163.94178939939408,-166.2820224937506,0,-42.13284683227539,12.744811058044434,-2.548962116241455
0.2850255072116852,-0.3421594500541687,9.828385353088379,-0.000955775550808719,-0.004010634517057691,0.012238615046107985,1.8499982357025146,2019-07-25 11:47:54:191,-164.22747371236844,-166.51596697944365,0,-42.13284683227539,12.744811058044434,-2.548962116241455
0.2251567542552948,-0.37089642882347107,9.833174705505371,-0.000955775550808719,0.0002514638006988733,0.008242898132269616,1.8599932193756104,2019-07-25 11:47:54:201,-164.51683115519467,-166.74190905938096,0,-42.13284683227539,12.744811058044434,-2.548962116241455
0.2443147599697113,-0.3804754316806793,9.876280784606934,-0.0028204436389890346,0.0023825130652323496,0.011439472183488963,1.8700051307678223,2019-07-25 11:47:54:211,-164.79949256603456,-166.96136169926586,0,-42.13284683227539,12.744811058044434,-2.548962116241455
0.19402500987052917,-0.36610692739486694,9.89064884185791,0.002507179432944107,-0.004277015644646915,0.006910992494323493,1.8799872398376465,2019-07-25 11:47:54:221,-165.07862891203595,-167.18114248690276,0,-42.13284683227539,12.744811058044434,-2.548962116241455
0.22755150496959686,-0.3996334373950958,9.845149040222168,0.0038390850708902298,-0.0018795853663067313,0.005845467983966595,1.889969825744629,2019-07-25 11:47:54:231,-165.34952188785127,-167.39318214029726,0,-42.13284683227539,12.744811058044434,-2.548962116241455
0.1916302591562271,-0.4355546832084656,9.840359687805176,0.00623651521919325,0.0031816564480000235,0.007710135877091167,1.8999998569488525,2019-07-25 11:47:54:241,-165.62201067643022,-167.5981432971334,0,-42.13284683227539,12.744811058044434,-2.548962116241455
0.232341006398201,-0.43794941902160645,9.883464813232422,0.005437371836425577,-0.0008140607909312516,0.005845467983966595,1.909998893737793,2019-07-25 11:47:54:251,-165.88218013006653,-167.7984893705067,0,-42.13284683227539,12.744811058044434,-2.548962116241455
0.17007751762866974,-0.38526493310928345,9.845149040222168,0.004371847326068679,-0.0010804419185204762,0.005312705728788145,1.9200010299682617,2019-07-25 11:47:54:261,-166.14413570940084,-168.00015526292538,0,-42.13284683227539,12.744811058044434,-2.548962116241455
0.1652880162000656,-0.41160717606544495,9.830780029296875,0.0014416547925500459,0.001849750680016738,0.001849750680016738,1.9300153255462646,2019-07-25 11:47:54:271,-166.40302828614418,-168.19301220687055,0,-42.13284683227539,12.744811058044434,-2.548962116241455
0.15810376405715942,-0.3876596987247467,9.766121864318848,-0.0006893944232194946,0.0031816564480000235,-0.0013468231111282822,1.9399855136871338,2019-07-25 11:47:54:281,-166.6581992812069,-168.3833035345298,0,-42.13284683227539,12.744811058044434,-2.548962116241455
0.22994625568389893,-0.37089642882347107,9.811622619628906,0.0014416547925500459,0.003448037575589248,-0.0032114911342900165,1.9500303268432617,2019-07-25 11:47:54:291,-166.9001291528605,-168.5731535884245,0,-42.13284683227539,12.744811058044434,-2.548962116241455
0.2443147599697113,-0.40442293882369995,9.782885551452637,0.0030399416881225563,0.006644611366734268,-0.005342540415078138,1.9599967002868652,2019-07-25 11:47:54:301,-167.13723316967884,-168.75604668934307,0,-42.13284683227539,12.744811058044434,-2.548962116241455
0.29939401149749756,-0.3373699486255646,9.706253051757812,0.000642511344763791,0.005046324601198921,-0.006674446053024261,1.9700024127960205,2019-07-25 11:47:54:311,-167.3619885192163,-168.94147302427334,0,-43.33235549926758,15.743589401245117,-4.648107528686523
0.3089730143547058,-0.3732911944389343,9.696674346923828,0.000642511344763791,0.0031816564480000235,-0.005342540415078138,1.9799957275390625,2019-07-25 11:47:54:321,-167.58003316044795,-169.11891175075755,0,-43.33235549926758,15.743589401245117,-4.648107528686523
0.34010475873947144,-0.3804754316806793,9.804438591003418,0.00010974903269408318,0.009308423162775165,-0.005076159287488914,1.9899752140045166,2019-07-25 11:47:54:331,-167.79391387414972,-169.29214840240476,0,-43.33235549926758,15.743589401245117,-4.648107528686523
0.4143419861793518,-0.3900544345378876,9.787674903869629,0.0033063228157117807,0.001050607232230483,-0.006408064925435037,1.9999995231628418,2019-07-25 11:47:54:341,-167.9901458071783,-169.46252403373745,0,-43.33235549926758,15.743589401245117,-4.648107528686523
0.4526579678058624,-0.4403441846370697,9.742175102233887,-0.0014885378710057496,0.0031816564480000235,-0.004277015644646915,2.0099992752075195,2019-07-25 11:47:54:351,-168.17892407532895,-169.62067785731676,0,-43.33235549926758,15.743589401245117,-4.648107528686523
0.43828949332237244,-0.45710742473602295,9.744569778442383,-0.0014885378710057496,0.003448037575589248,-0.0026787288791115674,2.0199925899505615,2019-07-25 11:47:54:361,-168.36577429780695,-169.77371473839088,0,-43.33235549926758,15.743589401245117,-4.648107528686523
0.49576348066329956,-0.47626543045043945,9.785280227661133,-0.0017549189985949741,0.001316988424838289,0.005046324601198921,2.0299954414367676,2019-07-25 11:47:54:371,-168.54119120151125,-169.92152518973467,0,-43.33235549926758,15.743589401245117,-4.648107528686523
0.5652112364768982,-0.4475284218788147,9.78049087524414,-0.00015663211927710938,-0.0026787288791115674,0.010640328280572637,2.0399668216705322,2019-07-25 11:47:54:381,-168.7027190799321,-170.07060958446343,0,-43.33235549926758,15.743589401245117,-4.648107528686523
0.4813949763774872,-0.4666864275932312,9.684700965881348,0.0003761301846652757,-0.0008140607909312516,0.008242898132269616,2.049999952316284,2019-07-25 11:47:54:391,-168.8712931959758,-170.21423258370743,0,-43.33235549926758,15.743589401245117,-4.648107528686523
0.47181597352027893,-0.42358094453811646,9.766121864318848,0.0022407983053548824,0.0002514638006988733,0.011705852790929535,2.059999942779541,2019-07-25 11:47:54:401,-169.03869064073263,-170.36153606312544,0,-43.33235549926758,15.743589401245117,-4.648107528686523
0.4215262234210968,-0.41879144310951233,9.871491432189941,0.00010974903269408318,-0.0013468231111282822,0.015168807969738105,2.070127248764038,2019-07-25 11:47:54:411,-169.208248502399,-170.5057821798372,0,-43.33235549926758,15.743589401245117,-4.648107528686523
0.4095524847507477,-0.44513368606567383,9.811622619628906,-0.0017549189985949741,-0.002412347751522343,0.016767094735273453,2.0800161361694336,2019-07-25 11:47:54:421,-169.37493949397862,-170.64273982715912,0,-43.33235549926758,15.743589401245117,-4.648107528686523
0.3161572515964508,-0.41160717606544495,9.857122421264648,-0.00308682476657826,-0.0029451100067007917,0.019164525403725124,2.0899736881256104,2019-07-25 11:47:54:431,-169.54905255823178,-170.78033654009465,0,-43.33235549926758,15.743589401245117,-4.648107528686523
0.29460451006889343,-0.37808069586753845,9.773306846618652,-0.0020213001261841987,0.0007842261046412585,0.020230049914082022,2.100010395050049,2019-07-25 11:47:54:441,-169.72398168285,-170.9192829975622,0,-43.33235549926758,15.743589401245117,-4.648107528686523
0.2634727656841278,-0.37808069586753845,9.79964828491211,0.0027735605605333316,0.0007842261046412585,0.025557672465866516,2.110015392303467,2019-07-25 11:47:54:451,-169.89914101242843,-171.0582667587583,0,-43.33235549926758,15.743589401245117,-4.648107528686523
0.25389376282691956,-0.3900544345378876,9.845149040222168,0.001974417047728495,0.003980799830767698,0.02076281112896317,2.1200008392333984,2019-07-25 11:47:54:461,-170.0738450086183,-171.1928322058768,0,-43.33235549926758,15.743589401245117,-4.648107528686523
0.2179725170135498,-0.40442293882369995,9.802042961120605,0.0014416547925500459,-1.491734416091191e-05,0.02129557442443892,2.1300156116485596,2019-07-25 11:47:54:471,-170.24688166950355,-171.32253366169462,0,-43.33235549926758,15.743589401245117,-4.648107528686523
0.2059987634420395,-0.3804754316806793,9.854727745056152,0.005970134091604027,-0.0016132042387175067,0.022094718327355243,2.1399850845336914,2019-07-25 11:47:54:481,-170.41709077705391,-171.45520495393822,0,-43.33235549926758,15.743589401245117,-4.648107528686523
0.23952525854110718,-0.3948439359664917,9.82120132446289,0.004904609581247128,0.0023825130652323496,0.015168807969738105,2.1500155925750732,2019-07-25 11:47:54:491,-170.58214909350008,-171.58281848609403,0,-43.33235549926758,15.743589401245117,-4.648107528686523
0.2562884986400604,-0.4140019416809082,9.835570335388184,0.0003761301846652757,-0.0016132042387175067,0.0183653815008088,2.16001033782959,2019-07-25 11:47:54:501,-170.73974805390552,-171.70316741632652,0,-43.33235549926758,15.743589401245117,-4.648107528686523
0.2706570029258728,-0.35892269015312195,9.864306449890137,0.0003761301846652757,-0.0016132042387175067,0.017299856990451903,2.170011043548584,2019-07-25 11:47:54:511,-170.89261345273366,-171.82763837678206,0,-43.33235549926758,15.743589401245117,-4.648107528686523
0.3305257558822632,-0.3996334373950958,9.842754364013672,0.0022407983053548824,0.003980799830767698,0.014369664066821781,2.1800053119659424,2019-07-25 11:47:54:521,-171.03852901921005,-171.94584241109303,0,-43.33235549926758,15.743589401245117,-4.648107528686523
0.3688417375087738,-0.3828701972961426,9.857122421264648,0.004371847326068679,0.003448037575589248,0.02076281112896317,2.1899852752685547,2019-07-25 11:47:54:531,-171.1768318321576,-172.06488815855553,0,-43.33235549926758,15.743589401245117,-4.648107528686523
0.3233414888381958,-0.3541331887245178,9.746964454650879,0.007035658601960925,0.002116131807605963,0.016500713087535576,2.2000153064727783,2019-07-25 11:47:54:541,-171.3164868073323,-172.18593691078127,0,-43.33235549926758,15.743589401245117,-4.648107528686523
0.31376248598098755,-0.3685016930103302,9.773306846618652,0.0030399416881225563,0.003980799830767698,0.01490242632200023,2.210010528564453,2019-07-25 11:47:54:551,-171.45561534541602,-172.30073808910078,0,-43.33235549926758,15.743589401245117,-4.648107528686523
0.3185519874095917,-0.3637121915817261,9.727806091308594,0.0041054661984794545,0.0002514638006988733,0.013836901811643333,2.220001220703125,2019-07-25 11:47:54:561,-171.58913273783756,-172.4142017935828,0,-43.78217315673828,14.394139289855957,-2.0991454124450684
0.3041835129261017,-0.36610692739486694,9.797253608703613,-0.00308682476657826,0.003448037575589248,0.013037758949024307,2.2300095558166504,2019-07-25 11:47:54:571,-171.7237209925934,-172.52138203729885,0,-43.78217315673828,14.394139289855957,-2.0991454124450684
0.3185519874095917,-0.3373699486255646,9.792464256286621,0.0003761301846652757,0.0037144187031784726,0.01490242632200023,2.2399840354919434,2019-07-25 11:47:54:581,-171.85406303207532,-172.6317015823995,0,-43.78217315673828,14.394139289855957,-2.0991454124450684
0.28742024302482605,-0.38526493310928345,9.825990676879883,-0.00015663211927710938,0.0037144187031784726,0.012771377301286432,2.250009298324585,2019-07-25 11:47:54:591,-171.98556303736143,-172.73407245060307,0,-43.78217315673828,14.394139289855957,-2.0991454124450684
0.28742024302482605,-0.42358094453811646,9.763727188110352,0.0011752736649608213,0.007443754749501942,0.0071773736219127166,2.2600302696228027,2019-07-25 11:47:54:601,-172.11631698730395,-172.83037006022596,0,-43.78217315673828,14.394139289855957,-2.0991454124450684
0.3161572515964508,-0.3948439359664917,9.794858932495117,-0.002287681383810586,0.0023825130652323496,0.004247180958356922,2.2699997425079346,2019-07-25 11:47:54:611,-172.2383494564431,-172.92631364896044,0,-43.78217315673828,14.394139289855957,-2.0991454124450684
0.32573625445365906,-0.3948439359664917,9.768516540527344,-0.00042301326312097924,0.005845467983966595,0.004513562346020471,2.2800111770629883,2019-07-25 11:47:54:621,-172.35867144574203,-173.02125681627365,0,-43.78217315673828,14.394139289855957,-2.0991454124450684
0.30657824873924255,-0.4092124402523041,9.80922794342041,-0.0014885378710057496,-0.0008140607909312516,-0.0013468231111282822,2.2899794578552246,2019-07-25 11:47:54:631,-172.47523950678396,-173.11222195840563,0,-43.78217315673828,14.394139289855957,-2.0991454124450684
0.3281309902667999,-0.3996334373950958,9.761332511901855,-0.0014885378710057496,0.004247180958356922,0.003980799830767698,2.2999911308288574,2019-07-25 11:47:54:641,-172.58961638776796,-173.2022526059369,0,-43.78217315673828,14.394139289855957,-2.0991454124450684
0.3640522360801697,-0.39723867177963257,9.763727188110352,-0.002287681383810586,0.00557908685637737,0.002915275320410799,2.3099987506866455,2019-07-25 11:47:54:651,-172.69825204852063,-173.2903259997998,0,-43.78217315673828,14.394139289855957,-2.0991454124450684
0.3424994945526123,-0.4259756803512573,9.778096199035645,-0.0020213001261841987,0.0007842261046412585,0.003448037575589248,2.3199920654296875,2019-07-25 11:47:54:661,-172.8046052245574,-173.3734958432463,0,-43.78217315673828,14.394139289855957,-2.0991454124450684
0.3808155059814453,-0.4163966774940491,9.773306846618652,-0.000955775550808719,0.0031816564480000235,0.004779943473609696,2.3299994468688965,2019-07-25 11:47:54:671,-172.9056730735766,-173.4566960598147,0,-43.78217315673828,14.394139289855957,-2.0991454124450684
0.37842074036598206,-0.44992318749427795,9.787674903869629,-0.006283398297648954,-1.491734416091191e-05,-0.0005476796633420271,2.339979887008667,2019-07-25 11:47:54:681,-173.00326878977165,-173.5314021361389,0,-43.78217315673828,14.394139289855957,-2.0991454124450684
0.4358947277069092,-0.4140019416809082,9.804438591003418,-0.0020213001261841987,0.0007842261046412585,-0.0010804419185204762,2.349996328353882,2019-07-25 11:47:54:691,-173.09273183991175,-173.61127859944202,0,-43.78217315673828,14.394139289855957,-2.0991454124450684
0.3832102417945862,-0.4738706648349762,9.756543159484863,-0.005484254914881281,0.001316988424838289,0.001849750680016738,2.3599956035614014,2019-07-25 11:47:54:701,-173.1866313403864,-173.6803609760643,0,-43.78217315673828,14.394139289855957,-2.0991454124450684
0.3185519874095917,-0.47626543045043945,9.804438591003418,-0.00042301326312097924,-0.0013468231111282822,-0.0016132042387175067,2.3700006008148193,2019-07-25 11:47:54:711,-173.28492371622548,-173.75089525547347,0,-43.78217315673828,14.394139289855957,-2.0991454124450684
0.28023600578308105,-0.4858444333076477,9.773306846618652,-0.007881685063184303,-0.0008140607909312516,0.0026488941928215744,2.3799936771392822,2019-07-25 11:47:54:721,-173.3859199261014,-173.8145366846863,0,-43.78217315673828,14.394139289855957,-2.0991454124450684
0.29939401149749756,-0.44273892045021057,9.814017295837402,-0.003353205894167484,0.002116131807605963,-1.491734416091191e-05,2.389979124069214,2019-07-25 11:47:54:731,-173.48444065384092,-173.8847053058949,0,-43.78217315673828,14.394139289855957,-2.0991454124450684
0.2706570029258728,-0.4714759290218353,9.833174705505371,0.005437371836425577,0.0026488941928215744,-0.0005476796633420271,2.399996042251587,2019-07-25 11:47:54:741,-173.58470847452415,-173.95516772575974,0,-43.78217315673828,14.394139289855957,-2.0991454124450684
0.2634727656841278,-0.44273892045021057,9.804438591003418,-0.00042301326312097924,-0.0016132042387175067,0.0005178449445427432,2.4099960327148438,2019-07-25 11:47:54:751,-173.68132193717824,-174.0241158827734,0,-43.78217315673828,14.394139289855957,-2.0991454124450684
0.24670951068401337,-0.45710742473602295,9.818806648254395,0.0014416547925500459,-0.0002812985032435118,0.00557908685637737,2.419987440109253,2019-07-25 11:47:54:761,-173.77875121336166,-174.0911335770781,0,-43.78217315673828,14.394139289855957,-2.0991454124450684
0.28023600578308105,-0.46908116340637207,9.814017295837402,-0.0025540625113998103,0.001050607232230483,0.00557908685637737,2.4300074577331543,2019-07-25 11:47:54:771,-173.8710549341876,-174.15314418955074,0,-43.78217315673828,14.394139289855957,-2.0991454124450684
0.26107800006866455,-0.4259756803512573,9.766121864318848,-0.0038859681493459333,0.0015833695524275135,0.0031816564480000235,2.439966917037964,2019-07-25 11:47:54:781,-173.9638927929605,-174.21795765523308,0,-43.78217315673828,14.394139289855957,-2.0991454124450684
0.34489426016807556,-0.3948439359664917,9.785280227661133,-0.002287681383810586,0.0026488941928215744,0.0026488941928215744,2.4500060081481934,2019-07-25 11:47:54:791,-174.0457356073702,-174.2860954046125,0,-43.78217315673828,14.394139289855957,-2.0991454124450684
0.34010475873947144,-0.38526493310928345,9.751753807067871,0.000642511344763791,-0.0016132042387175067,0.002116131807605963,2.4599995613098145,2019-07-25 11:47:54:801,-174.1239666025286,-174.35548559627463,0,-43.78217315673828,14.394139289855957,-2.0991454124450684
0.29460451006889343,-0.39244917035102844,9.792464256286621,0.001974417047728495,-0.0008140607909312516,0.003448037575589248,2.46998929977417,2019-07-25 11:47:54:811,-174.20656637824024,-174.42358348360267,0,-42.58266067504883,14.69401741027832,-2.6989011764526367
0.3281309902667999,-0.42358094453811646,9.797253608703613,-0.0038859681493459333,-0.0008140607909312516,0.0023825130652323496,2.480001926422119,2019-07-25 11:47:54:821,-174.28361255464253,-174.4834146550065,0,-42.58266067504883,14.69401741027832,-2.6989011764526367
0.32094675302505493,-0.41879144310951233,9.790069580078125,0.0057037529640148014,0.0026488941928215744,0.0037144187031784726,2.4899680614471436,2019-07-25 11:47:54:831,-174.36186964394733,-174.54794900984993,0,-42.58266067504883,14.69401741027832,-2.6989011764526367
0.3041835129261017,-0.39244917035102844,9.82120132446289,0.004638228453657903,-0.002412347751522343,0.0071773736219127166,2.499999761581421,2019-07-25 11:47:54:841,-174.43779332402406,-174.61383691007148,0,-42.58266067504883,14.69401741027832,-2.6989011764526367
0.29460451006889343,-0.3996334373950958,9.818806648254395,0.00623651521919325,0.0023825130652323496,0.005845467983966595,2.5099949836730957,2019-07-25 11:47:54:851,-174.51600273590805,-174.6784463227819,0,-42.58266067504883,14.69401741027832,-2.6989011764526367
0.28023600578308105,-0.38526493310928345,9.816411972045898,0.0030399416881225563,0.0002514638006988733,0.003448037575589248,2.5200002193450928,2019-07-25 11:47:54:861,-174.59311957711066,-174.74163450931346,0,-42.58266067504883,14.69401741027832,-2.6989011764526367
0.28742024302482605,-0.3804754316806793,9.833174705505371,0.0057037529640148014,0.001849750680016738,0.004779943473609696,2.529996395111084,2019-07-25 11:47:54:871,-174.66881024472508,-174.80568639253505,0,-42.58266067504883,14.69401741027832,-2.6989011764526367
0.24670951068401337,-0.3876596987247467,9.84993839263916,0.003572703943301005,0.0037144187031784726,0.004513562346020471,2.5399744510650635,2019-07-25 11:47:54:881,-174.74881957658988,-174.86649829815426,0,-42.58266067504883,14.69401741027832,-2.6989011764526367
0.27544650435447693,-0.4283704161643982,9.787674903869629,0.0003761301846652757,0.001316988424838289,0.006910992494323493,2.549994468688965,2019-07-25 11:47:54:891,-174.82234409966009,-174.9192594397835,0,-42.58266067504883,14.69401741027832,-2.6989011764526367
0.28742024302482605,-0.4020281732082367,9.773306846618652,0.0038390850708902298,0.0031816564480000235,0.01250499669384586,2.559999465942383,2019-07-25 11:47:54:901,-174.89399442939842,-174.97591991717772,0,-42.58266067504883,14.69401741027832,-2.6989011764526367
0.2969992458820343,-0.40442293882369995,9.790069580078125,0.005437371836425577,0.001316988424838289,0.007710135877091167,2.569995880126953,2019-07-25 11:47:54:911,-174.96210102540888,-175.03214319295853,0,-42.58266067504883,14.69401741027832,-2.6989011764526367
0.25389376282691956,-0.3900544345378876,9.811622619628906,0.0030399416881225563,0.001316988424838289,0.00904204151503729,2.5799899101257324,2019-07-25 11:47:54:921,-175.03395199519483,-175.08767510816594,0,-42.58266067504883,14.69401741027832,-2.6989011764526367
0.26826226711273193,-0.3876596987247467,9.84993839263916,-0.00042301326312097924,0.0007842261046412585,0.006378230239145044,2.5899720191955566,2019-07-25 11:47:54:931,-175.10251130479753,-175.14060847677192,0,-42.58266067504883,14.69401741027832,-2.6989011764526367
0.2922097444534302,-0.3493436872959137,9.77091121673584,0.00010974903269408318,0.001849750680016738,0.008242898132269616,2.599996328353882,2019-07-25 11:47:54:941,-175.16724259313406,-175.1969051009807,0,-42.58266067504883,14.69401741027832,-2.6989011764526367
0.2634727656841278,-0.30623820424079895,9.648778915405273,0.0033063228157117807,0.001050607232230483,0.006644611366734268,2.6099932193756104,2019-07-25 11:47:54:951,-175.23320449391804,-175.25846542874487,0,-42.58266067504883,14.69401741027832,-2.6989011764526367
0.28023600578308105,-0.33976468443870544,9.744569778442383,-0.0017549189985949741,0.0026488941928215744,0.008509279259858839,2.620000123977661,2019-07-25 11:47:54:961,-175.29708342506626,-175.3123715051044,0,-42.58266067504883,14.69401741027832,-2.6989011764526367
0.29460451006889343,-0.3493436872959137,9.811622619628906,0.0009088924723530155,0.003448037575589248,0.005046324601198921,2.629995107650757,2019-07-25 11:47:54:971,-175.35867984165301,-175.36585096349484,0,-42.58266067504883,14.69401741027832,-2.6989011764526367
0.26107800006866455,-0.3493436872959137,9.845149040222168,-0.00042301326312097924,-0.0010804419185204762,-0.0018795853663067313,2.63997745513916,2019-07-25 11:47:54:981,-175.42051987475244,-175.41765241016395,0,-42.58266067504883,14.69401741027832,-2.6989011764526367
0.22994625568389893,-0.4020281732082367,9.792464256286621,-0.006816160552827403,-0.0018795853663067313,0.003448037575589248,2.6499860286712646,2019-07-25 11:47:54:991,-175.4841497876798,-175.45844982550517,0,-42.58266067504883,14.69401741027832,-2.6989011764526367
0.34728899598121643,-0.3828701972961426,9.814017295837402,-0.0049514926597028315,0.0007842261046412585,-0.002145966493895956,2.659987211227417,2019-07-25 11:47:55:001,-175.53437354183941,-175.5018177723413,0,-42.58266067504883,14.69401741027832,-2.6989011764526367
0.41913148760795593,-0.41160717606544495,9.790069580078125,-0.0060170171700597306,0.0005178449445427432,-0.003744253389468466,2.669990062713623,2019-07-25 11:47:55:011,-175.57494803829593,-175.5402521505389,0,-42.58266067504883,14.69401741027832,-2.6989011764526367
0.43110522627830505,-0.4020281732082367,9.802042961120605,-0.006549779425238179,0.0026488941928215744,0.0005178449445427432,2.6800003051757812,2019-07-25 11:47:55:021,-175.61457171219973,-175.57879255435898,0,-42.58266067504883,14.69401741027832,-2.6989011764526367
0.46463173627853394,-0.44992318749427795,9.737384796142578,-0.004152349276935158,0.0023825130652323496,0.001849750680016738,2.689965009689331,2019-07-25 11:47:55:031,-175.6489759517272,-175.6119831350012,0,-42.58266067504883,14.69401741027832,-2.6989011764526367
0.4334999918937683,-0.4810549318790436,9.792464256286621,-0.007082541680416628,-0.0016132042387175067,0.008242898132269616,2.6999995708465576,2019-07-25 11:47:55:041,-175.6843923568849,-175.6395049903251,0,-42.58266067504883,14.69401741027832,-2.6989011764526367
0.42392098903656006,-0.46429166197776794,9.89064884185791,-0.004418730404524382,-0.0018795853663067313,0.00557908685637737,2.709993600845337,2019-07-25 11:47:55:051,-175.72056495396572,-175.67048259198992,0,-42.58266067504883,14.69401741027832,-2.6989011764526367
0.4023682475090027,-0.4810549318790436,9.80922794342041,-0.0006893944232194946,-0.0034778722618792413,0.010107566025394189,2.7199997901916504,2019-07-25 11:47:55:061,-175.75722123872194,-175.70053367858563,0,-44.53186798095703,14.244200706481934,-1.0495727062225342
0.3305257558822632,-0.4786601662635803,9.82120132446289,-0.002287681383810586,-0.0002812985032435118,0.015168807969738105,2.7300004959106445,2019-07-25 11:47:55:071,-175.80336840518765,-175.72943355433932,0,-44.53186798095703,14.244200706481934,-1.0495727062225342
0.3233414888381958,-0.4714759290218353,9.840359687805176,-0.004152349276935158,0.001849750680016738,0.016234332480095003,2.739966630935669,2019-07-25 11:47:55:081,-175.85069639100976,-175.75765954985994,0,-44.53186798095703,14.244200706481934,-1.0495727062225342
0.2898150086402893,-0.4666864275932312,9.794858932495117,-0.00042301326312097924,-0.0026787288791115674,0.017832620285927653,2.7499988079071045,2019-07-25 11:47:55:091,-175.89827750727275,-175.78771097053055,0,-44.53186798095703,14.244200706481934,-1.0495727062225342
0.28023600578308105,-0.4331599175930023,9.737384796142578,0.00010974903269408318,0.001050607232230483,0.020496430521522595,2.7599985599517822,2019-07-25 11:47:55:101,-175.94793220443827,-175.82107680229632,0,-44.53186798095703,14.244200706481934,-1.0495727062225342
0.2634727656841278,-0.41160717606544495,9.77091121673584,0.000642511344763791,0.0002514638006988733,0.01969728661860627,2.769986391067505,2019-07-25 11:47:55:111,-175.9982224401452,-175.856771542001,0,-44.53186798095703,14.244200706481934,-1.0495727062225342
0.2658675014972687,-0.4475284218788147,9.840359687805176,0.0027735605605333316,-0.0026787288791115674,0.018631762108249374,2.7800004482269287,2019-07-25 11:47:55:121,-176.0457988798612,-175.88911659239977,0,-44.53186798095703,14.244200706481934,-1.0495727062225342
0.25389376282691956,-0.42358094453811646,9.804438591003418,0.0033063228157117807,-0.0032114911342900165,0.015701570224916552,2.789971351623535,2019-07-25 11:47:55:131,-176.09341713284115,-175.92370915562122,0,-44.53186798095703,14.244200706481934,-1.0495727062225342
0.24670951068401337,-0.3804754316806793,9.830780029296875,-0.002287681383810586,0.002116131807605963,0.006644611366734268,2.7999982833862305,2019-07-25 11:47:55:141,-176.14398876900628,-175.95961934734586,0,-44.53186798095703,14.244200706481934,-1.0495727062225342
0.24192000925540924,-0.3493436872959137,9.763727188110352,-0.002287681383810586,-0.0010804419185204762,0.008775660907596714,2.8099873065948486,2019-07-25 11:47:55:151,-176.19211596450913,-175.9981607534133,0,-44.53186798095703,14.244200706481934,-1.0495727062225342
0.23713050782680511,-0.36610692739486694,9.782885551452637,0.0033063228157117807,0.0026488941928215744,0.004779943473609696,2.82000470161438,2019-07-25 11:47:55:161,-176.24199280458416,-176.03719343266044,0,-44.53186798095703,14.244200706481934,-1.0495727062225342
0.27305176854133606,-0.35173845291137695,9.802042961120605,0.003572703943301005,0.002116131807605963,-0.0029451100067007917,2.829990863800049,2019-07-25 11:47:55:171,-176.28642642934545,-176.07735023045632,0,-44.53186798095703,14.244200706481934,-1.0495727062225342
0.3161572515964508,-0.3876596987247467,9.749359130859375,0.0014416547925500459,0.004779943473609696,-0.0013468231111282822,2.839967966079712,2019-07-25 11:47:55:181,-176.3262283623462,-176.11107028681099,0,-44.53186798095703,14.244200706481934,-1.0495727062225342
0.3161572515964508,-0.3038434386253357,9.766121864318848,0.002507179432944107,0.0002514638006988733,-0.005608921542667363,2.8500046730041504,2019-07-25 11:47:55:191,-176.36276190113253,-176.15462161399677,0,-44.53186798095703,14.244200706481934,-1.0495727062225342
0.37363123893737793,-0.32539618015289307,9.71822738647461,0.000642511344763791,0.0023825130652323496,-0.005875302670256588,2.8599905967712402,2019-07-25 11:47:55:201,-176.39280787149335,-176.19353498931878,0,-44.53186798095703,14.244200706481934,-1.0495727062225342
0.3951839804649353,-0.3804754316806793,9.720622062683105,-0.0025540625113998103,-0.0008140607909312516,-0.004543397032310465,2.869999647140503,2019-07-25 11:47:55:211,-176.41793358036762,-176.2233994243453,0,-44.53186798095703,14.244200706481934,-1.0495727062225342
0.45026323199272156,-0.3685016930103302,9.75893783569336,-0.007082541680416628,-0.0005476796633420271,-0.009071876201327283,2.879995346069336,2019-07-25 11:47:55:221,-176.43643410570343,-176.25170659096955,0,-44.53186798095703,14.244200706481934,-1.0495727062225342
0.2850255072116852,-0.40442293882369995,9.806833267211914,-0.00042301326312097924,0.00904204151503729,-0.010936544614600505,2.889970064163208,2019-07-25 11:47:55:231,-176.47947419842052,-176.27920601035154,0,-44.53186798095703,14.244200706481934,-1.0495727062225342
0.4095524847507477,-0.5073971748352051,9.876280784606934,-0.005484254914881281,0.007443754749501942,-0.005342540415078138,2.900017261505127,2019-07-25 11:47:55:241,-176.5065921486446,-176.29170787804097,0,-44.53186798095703,14.244200706481934,-1.0495727062225342
0.3832102417945862,-0.49063393473625183,9.785280227661133,-0.008148066190773526,-0.011469306869778954,-0.01573140491120655,2.9099884033203125,2019-07-25 11:47:55:251,-176.5251855699529,-176.3039036657295,0,-44.53186798095703,14.244200706481934,-1.0495727062225342
0.3113677501678467,-0.509791910648346,9.675121307373047,-0.005484254914881281,-0.008006351690970383,-0.015198642656028098,2.9200022220611572,2019-07-25 11:47:55:261,-176.55331460397673,-176.3144182710296,0,-44.53186798095703,14.244200706481934,-1.0495727062225342
0.34010475873947144,-0.48344966769218445,9.962491989135742,-0.003619587021756709,0.008242898132269616,-0.023456457091145407,2.9299919605255127,2019-07-25 11:47:55:271,-176.58776725983816,-176.33053536107244,0,-44.53186798095703,14.244200706481934,-1.0495727062225342
0.3640522360801697,-0.49542343616485596,10.132518768310547,0.004371847326068679,-0.007473589435791935,-0.018395217227396093,2.939971446990967,2019-07-25 11:47:55:281,-176.6106701042824,-176.3503901328768,0,-44.53186798095703,14.244200706481934,-1.0495727062225342
0.1604985147714615,-0.5193709135055542,9.981649398803711,0.01023223213303162,-0.01360035589049275,-0.025587506111859205,2.949995994567871,2019-07-25 11:47:55:291,-176.65237737553156,-176.36957060218268,0,-44.53186798095703,14.244200706481934,-1.0495727062225342
0.03597153350710869,-0.4714759290218353,9.830780029296875,0.004904609581247128,-0.002145966493895956,-0.027718557213167606,2.96000599861145,2019-07-25 11:47:55:301,-176.71393069619018,-176.3900208076084,0,-44.53186798095703,14.244200706481934,-1.0495727062225342
-0.002344459993764758,-0.39723867177963257,9.842754364013672,0.0027735605605333316,0.009308423162775165,-0.023456457091145407,2.969985246658325,2019-07-25 11:47:55:311,-169.58514085014872,-176.41755217581124,0,-43.03247833251953,15.44371223449707,-1.0495727062225342
5.028974192100577e-05,-0.2775011956691742,9.876280784606934,0.011564138291126394,-0.009871020104243606,-0.01866159783483667,2.979995012283325,2019-07-25 11:47:55:321,-169.7878842211592,-176.46351154908965,0,-43.03247833251953,15.44371223449707,-1.0495727062225342
-0.07658170163631439,-0.19607971608638763,9.782885551452637,0.009433089270412597,-0.004277015644646915,-0.01706331002900402,2.989966869354248,2019-07-25 11:47:55:331,-162.7987019500935,-176.5165584101234,0,-43.03247833251953,15.44371223449707,-1.0495727062225342
-0.2466089278459549,-0.2846854627132416,9.675121307373047,0.011031376035947943,0.003980799830767698,-0.009604638456505731,3.0000014305114746,2019-07-25 11:47:55:341,-155.97417274114846,-176.55873450184183,0,-43.03247833251953,15.44371223449707,-1.0495727062225342
-0.014318208210170269,-0.3158172070980072,9.663147926330566,0.007834801984728598,0.006378230239145044,-0.005076159287488914,3.0100021362304688,2019-07-25 11:47:55:351,-149.259968846733,-176.59452112973423,0,-43.03247833251953,15.44371223449707,-1.0495727062225342
-0.014318208210170269,-0.3038434386253357,9.684700965881348,0.008900327015234149,0.005046324601198921,0.009574803770215738,3.020000457763672,2019-07-25 11:47:55:361,-142.67929665995024,-176.63168773980797,0,-43.03247833251953,15.44371223449707,-1.0495727062225342
-0.26816168427467346,-0.22242195904254913,9.773306846618652,0.0067692774743717005,0.004247180958356922,0.011173090535751088,3.0299994945526123,2019-07-25 11:47:55:371,-136.25952922681117,-176.67678019079113,0,-43.03247833251953,15.44371223449707,-1.0495727062225342
-0.7111903429031372,-0.6462926268577576,10.005597114562988,-0.026794746162316547,-0.021858171365907363,0.02236109893479582,3.039980173110962,2019-07-25 11:47:55:381,-130.003403087926,-176.65431287658816,0,-43.03247833251953,15.44371223449707,-1.0495727062225342
0.45744746923446655,-1.2785065174102783,10.338467597961426,-0.05902686416105867,0.006378230239145044,0.02316024283771214,3.0500006675720215,2019-07-25 11:47:55:391,-130.9562533135078,-176.54702137950719,0,-43.03247833251953,15.44371223449707,-1.0495727062225342
-0.4477679133415222,-0.32060670852661133,9.531436920166016,0.02648148143612297,-0.002145966493895956,0.014369664066821781,3.059999942779541,2019-07-25 11:47:55:401,-124.78971665882209,-176.59241882311795,0,-43.03247833251953,15.44371223449707,-1.0495727062225342
0.014418788254261017,-0.26073795557022095,10.041518211364746,-0.02466369714160275,0.010107566025394189,0.03061891441021043,3.070000410079956,2019-07-25 11:47:55:411,-125.8979525367033,-176.6169730195618,0,-43.03247833251953,15.44371223449707,-1.0495727062225342
0.4358947277069092,-0.040420979261398315,9.761332511901855,-0.010012734604046749,-0.00480977815989969,0.03994225231538734,3.0799989700317383,2019-07-25 11:47:55:421,-126.92615601837157,-176.67426710461214,0,-43.03247833251953,15.44371223449707,-1.0495727062225342
0.5125267505645752,-0.16255322098731995,9.627226829528809,-0.012676545879938996,0.012238615046107985,0.027422340879139737,3.0899715423583984,2019-07-25 11:47:55:431,-127.93353819613841,-176.7143367736115,0,-43.03247833251953,15.44371223449707,-1.0495727062225342
0.47660547494888306,-0.09789497405290604,9.636805534362793,0.003572703943301005,0.003448037575589248,0.02369300405259329,3.100010395050049,2019-07-25 11:47:55:441,-128.920183854642,-176.77042357876175,0,-43.03247833251953,15.44371223449707,-1.0495727062225342
0.43828949332237244,-0.33976468443870544,9.883464813232422,-0.016938643921366587,-0.004277015644646915,0.019164525403725124,3.1099965572357178,2019-07-25 11:47:55:451,-129.88859876698825,-176.78613951526813,0,-43.03247833251953,15.44371223449707,-1.0495727062225342
0.6825539469718933,-0.5050024390220642,9.857122421264648,-0.012942926487379568,0.005046324601198921,0.01490242632200023,3.1199951171875,2019-07-25 11:47:55:461,-130.81443771061578,-176.7844937995401,0,-43.03247833251953,15.44371223449707,-1.0495727062225342
0.6178957223892212,-0.4666864275932312,9.83796501159668,-0.008680828445951977,0.0002514638006988733,0.00797651700468039,3.129997491836548,2019-07-25 11:47:55:471,-131.72641277058378,-176.78961007901268,0,-43.03247833251953,15.44371223449707,-1.0495727062225342
0.6825539469718933,-0.3541331887245178,9.87867546081543,-0.00042301326312097924,0.00557908685637737,0.0031816564480000235,3.1399712562561035,2019-07-25 11:47:55:481,-132.61595906524576,-176.81251949846288,0,-43.03247833251953,15.44371223449707,-1.0495727062225342
0.5412636995315552,-0.4523179233074188,9.921780586242676,0.0003761301846652757,-0.0034778722618792413,-0.014133118145671199,3.1500022411346436,2019-07-25 11:47:55:491,-133.4992296900721,-176.8242766672045,0,-43.03247833251953,15.44371223449707,-1.0495727062225342
0.5939481854438782,-0.42358094453811646,9.82120132446289,-0.001222156743416525,0.004247180958356922,-0.021858171365907363,3.1599960327148438,2019-07-25 11:47:55:501,-134.3624121699105,-176.8377134625054,0,-43.03247833251953,15.44371223449707,-1.0495727062225342
0.6562117338180542,-0.41160717606544495,9.854727745056152,-0.00015663211927710938,0.0015833695524275135,-0.022390932580788513,3.17000150680542,2019-07-25 11:47:55:511,-135.19986113026428,-176.8530369891871,0,-43.03247833251953,15.44371223449707,-1.0495727062225342
0.6705802083015442,-0.4618969261646271,9.797253608703613,0.0003761301846652757,0.008242898132269616,-0.03251341646947635,3.1799941062927246,2019-07-25 11:47:55:521,-136.02217796391898,-176.86220244078135,0,-43.03247833251953,15.44371223449707,-1.0495727062225342
0.7711597084999084,-0.2822906970977783,9.761332511901855,0.0067692774743717005,0.005312705728788145,-0.029583223545846225,3.189974069595337,2019-07-25 11:47:55:531,-136.81437011323783,-176.89562189740914,0,-43.03247833251953,15.44371223449707,-1.0495727062225342
0.9268184304237366,-0.4595021903514862,9.775701522827148,0.0014416547925500459,-0.0010804419185204762,-0.026386650014775533,3.2000014781951904,2019-07-25 11:47:55:541,-137.56915575116747,-176.90469756566472,0,-43.03247833251953,15.44371223449707,-1.0495727062225342
0.8262389302253723,-0.5002129077911377,9.691884994506836,-0.0006893944232194946,0.001050607232230483,-0.022923695876264263,3.2099995613098145,2019-07-25 11:47:55:551,-138.32090808816918,-176.90712657988541,0,-43.03247833251953,15.44371223449707,-1.0495727062225342
0.8885024189949036,-0.562476396560669,9.754148483276367,-0.00894721009368985,-0.0005476796633420271,-0.014399498753111774,3.2200002670288086,2019-07-25 11:47:55:561,-139.05008854682342,-176.89795332156592,0,-45.731380462646484,15.44371223449707,-1.0495727062225342
0.8645549416542053,-0.6127661466598511,9.80922794342041,-0.0028204436389890346,-0.002412347751522343,-0.0026787288791115674,3.2299931049346924,2019-07-25 11:47:55:571,-139.76699607600514,-176.88692116981878,0,-45.731380462646484,15.44371223449707,-1.0495727062225342
0.8669496774673462,-0.744477391242981,9.814017295837402,-0.012143783624760545,-0.008805495593886707,0.001050607232230483,3.239969253540039,2019-07-25 11:47:55:581,-140.46575798390123,-176.85561893428292,0,-45.731380462646484,15.44371223449707,-1.0495727062225342
1.0226083993911743,-0.6941876411437988,9.538620948791504,-0.005484254914881281,0.004779943473609696,0.007443754749501942,3.250004768371582,2019-07-25 11:47:55:591,-141.1367533751868,-176.83216723516412,0,-45.731380462646484,15.44371223449707,-1.0495727062225342
0.9148446917533875,-0.49542343616485596,9.598489761352539,0.006502896346782475,-0.008006351690970383,0.02236109893479582,3.259995460510254,2019-07-25 11:47:55:601,-141.80063714573012,-176.84007817755315,0,-45.731380462646484,15.44371223449707,-1.0495727062225342
0.8861076831817627,-0.3637121915817261,9.469173431396484,0.007834801984728598,-0.0002812985032435118,0.03168443892056733,3.270000457763672,2019-07-25 11:47:55:611,-142.45754509312394,-176.86368490158628,0,-45.731380462646484,15.44371223449707,-1.0495727062225342
0.6562117338180542,-0.4666864275932312,9.71822738647461,0.00010974903269408318,-0.003744253389468466,0.030885295017651006,3.280000925064087,2019-07-25 11:47:55:621,-143.12903239185968,-176.8714861837618,0,-45.731380462646484,15.44371223449707,-1.0495727062225342
0.5173162221908569,-0.6415031552314758,9.739779472351074,-0.002287681383810586,-0.005342540415078138,0.03940949110050619,3.2899715900421143,2019-07-25 11:47:55:631,-143.80265397654833,-176.85740969678398,0,-45.731380462646484,15.44371223449707,-1.0495727062225342
0.37363123893737793,-0.5337393879890442,9.924175262451172,-0.004152349276935158,-0.006141683797845812,0.0529949291277053,3.2999932765960693,2019-07-25 11:47:55:641,-144.48002312725373,-176.8563548942337,0,-45.731380462646484,15.44371223449707,-1.0495727062225342
0.232341006398201,-0.4523179233074188,9.82120132446289,0.000642511344763791,-0.0029451100067007917,0.05805617107204922,3.310000419616699,2019-07-25 11:47:55:651,-145.16166383987877,-176.86685065585647,0,-45.731380462646484,15.44371223449707,-1.0495727062225342
0.12457727640867233,-0.4140019416809082,9.83796501159668,-0.000955775550808719,-0.0008140607909312516,0.06285103448954715,3.3199989795684814,2019-07-25 11:47:55:661,-145.8434636831389,-176.88078298771757,0,-45.731380462646484,15.44371223449707,-1.0495727062225342
0.08626127988100052,-0.3900544345378876,9.938544273376465,0.002507179432944107,0.001050607232230483,0.07110884788436717,3.330002546310425,2019-07-25 11:47:55:671,-146.51723884612642,-176.89962534474745,0,-45.731380462646484,15.44371223449707,-1.0495727062225342
-0.002344459993764758,-0.2559484541416168,9.909807205200195,0.008900327015234149,-0.01067016296686263,0.08496066443841224,3.3399698734283447,2019-07-25 11:47:55:681,-139.98119346291412,-176.93702413816945,0,-45.731380462646484,15.44371223449707,-1.0495727062225342
0.09105078130960464,-0.23679044842720032,9.763727188110352,0.005170990708836353,0.005046324601198921,0.08469429007275547,3.34999942779541,2019-07-25 11:47:55:691,-140.773725646742,-176.97341037947422,0,-45.731380462646484,15.44371223449707,-1.0495727062225342
0.08147177845239639,-0.25355368852615356,9.785280227661133,0.011297756643388519,0.00557908685637737,0.079100278591152,3.35998797416687,2019-07-25 11:47:55:701,-141.5518395771345,-177.01059255092377,0,-45.731380462646484,15.44371223449707,-1.0495727062225342
0.03118203580379486,-0.3804754316806793,9.957701683044434,0.008101183112317823,-0.0002812985032435118,0.07057608250829682,3.370248794555664,2019-07-25 11:47:55:712,-142.31705235264502,-177.031284960344,0,-45.731380462646484,15.44371223449707,-1.0495727062225342
-0.12687143683433533,-0.44992318749427795,9.857122421264648,0.012363281153745416,-0.006408064925435037,0.0540604557186568,3.3799924850463867,2019-07-25 11:47:55:721,-135.88195372241086,-177.04515485973903,0,-45.731380462646484,15.44371223449707,-1.0495727062225342
-0.2466089278459549,-0.5193709135055542,9.708647727966309,0.010764994388210068,0.006111849111555819,0.033282724645805374,3.3899717330932617,2019-07-25 11:47:55:731,-129.59684041438595,-177.04904056835727,0,-45.731380462646484,15.44371223449707,-1.0495727062225342
-0.0957396999001503,-0.4978181719779968,9.883464813232422,0.0003761301846652757,-0.002412347751522343,0.01250499669384586,3.4000003337860107,2019-07-25 11:47:55:741,-123.41464517413817,-177.05060191156144,0,-45.731380462646484,15.44371223449707,-1.0495727062225342
-0.17955593764781952,-0.4714759290218353,9.71822738647461,-0.006816160552827403,-0.008006351690970383,-0.0013468231111282822,3.409986734390259,2019-07-25 11:47:55:751,-117.36303258862576,-177.0502177298845,0,-45.731380462646484,15.44371223449707,-1.0495727062225342
-0.1484241932630539,-0.08113172650337219,9.473962783813477,-0.01480759490065279,0.00557908685637737,-0.006940827180613486,3.419994592666626,2019-07-25 11:47:55:761,-111.43685810928264,-177.09107941397545,0,-45.731380462646484,15.44371223449707,-1.0495727062225342
-0.13405568897724152,-0.033236730843782425,9.842754364013672,-0.011611021369582097,0.02635681636878284,-0.00480977815989969,3.429997682571411,2019-07-25 11:47:55:771,-105.63853093623314,-177.13886675829494,0,-45.731380462646484,15.44371223449707,-1.0495727062225342
-0.17955593764781952,-0.05957897752523422,10.501310348510742,0.0011752736649608213,-0.0029451100067007917,0.012771377301286432,3.439972400665283,2019-07-25 11:47:55:781,-99.94370227341642,-177.19024640951528,0,-45.731380462646484,15.44371223449707,-1.0495727062225342
-0.12687143683433533,-0.4163966774940491,10.18759822845459,0.010498613780769495,-0.012268449732397976,0.01889814479628455,3.4500069618225098,2019-07-25 11:47:55:791,-94.35218564454169,-177.20554597538964,0,-45.731380462646484,15.44371223449707,-1.0495727062225342
0.040761034935712814,-0.48344966769218445,9.696674346923828,0.015559855725113413,0.006644611366734268,0.016500713087535576,3.459960699081421,2019-07-25 11:47:55:801,-96.0640386579508,-177.21304652509733,0,-45.731380462646484,15.44371223449707,-1.0495727062225342
0.3424994945526123,-0.6965823769569397,9.699069023132324,0.020088334373981578,0.02129557442443892,0.019430906011165698,3.4700160026550293,2019-07-25 11:47:55:811,-97.71433298041471,-177.19796951621194,0,-46.78095245361328,15.29377269744873,-2.6989011764526367
0.3879997432231903,-0.730108916759491,9.931360244750977,0.012896043408923866,0.00797651700468039,0.005312705728788145,3.4800097942352295,2019-07-25 11:47:55:821,-99.31977631260166,-177.17715545678283,0,-46.78095245361328,15.29377269744873,-2.6989011764526367
0.35926273465156555,-0.5936081409454346,9.720622062683105,0.014494331214756516,-0.00773997056338116,-0.006141683797845812,3.489985466003418,2019-07-25 11:47:55:831,-100.88671295449033,-177.17184038775525,0,-46.78095245361328,15.29377269744873,-2.6989011764526367
0.3544732332229614,-0.5816344022750854,9.596095085144043,0.007834801984728598,0.003448037575589248,-0.026120269407334955,3.5000154972076416,2019-07-25 11:47:55:841,-102.42861047187937,-177.1634451451186,0,-46.78095245361328,15.29377269744873,-2.6989011764526367
0.2778412401676178,-0.5528973937034607,9.684700965881348,-0.007082541680416628,0.015701570224916552,-0.039172944139058315,3.510014295578003,2019-07-25 11:47:55:851,-103.95598782784649,-177.15085075460377,0,-46.78095245361328,15.29377269744873,-2.6989011764526367
0.4790002405643463,-0.22960621118545532,9.816411972045898,-0.0028204436389890346,0.002915275320410799,-0.05329114754232777,3.520015239715576,2019-07-25 11:47:55:861,-105.42263353100348,-177.1794517962592,0,-46.78095245361328,15.29377269744873,-2.6989011764526367
0.5221056938171387,-0.2822906970977783,9.68949031829834,0.0003761301846652757,-0.008006351690970383,-0.06661020288149169,3.5300145149230957,2019-07-25 11:47:55:871,-106.84799910159127,-177.20269862195545,0,-46.78095245361328,15.29377269744873,-2.6989011764526367
0.41194725036621094,-0.3732911944389343,9.677515983581543,-0.009746352956308874,0.0026488941928215744,-0.07193782335268158,3.539996385574341,2019-07-25 11:47:55:881,-108.26377449054918,-177.209002463662,0,-46.78095245361328,15.29377269744873,-2.6989011764526367
0.4670264720916748,-0.27271169424057007,9.773306846618652,-0.010279115211487323,0.005312705728788145,-0.07113868361095446,3.550023078918457,2019-07-25 11:47:55:891,-109.64677303168841,-177.22706827679482,0,-46.78095245361328,15.29377269744873,-2.6989011764526367
0.5556322336196899,-0.2703169584274292,9.845149040222168,-0.009746352956308874,-0.008539113946148834,-0.059684294604469154,3.5600154399871826,2019-07-25 11:47:55:901,-110.9844428461216,-177.24560317752483,0,-46.78095245361328,15.29377269744873,-2.6989011764526367
0.6107114553451538,-0.3014487028121948,9.739779472351074,-0.009213590701130425,-0.007207208308202711,-0.05542219656304156,3.5700156688690186,2019-07-25 11:47:55:911,-112.28894888561412,-177.26006251009238,0,-46.78095245361328,15.29377269744873,-2.6989011764526367
0.5340794920921326,-0.26073795557022095,9.775701522827148,-0.015340357155831241,0.009308423162775165,-0.039972088041974635,3.5800154209136963,2019-07-25 11:47:55:921,-113.58585339469916,-177.27569121567663,0,-46.78095245361328,15.29377269744873,-2.6989011764526367
0.5771849751472473,-0.3373699486255646,9.89064884185791,-0.007881685063184303,0.001849750680016738,-0.02478836428953748,3.5899906158447266,2019-07-25 11:47:55:931,-114.84837636199525,-177.2866907910451,0,-46.93089294433594,13.94432258605957,-1.9492063522338867
0.5364742279052734,-0.3804754316806793,9.873886108398438,-0.0060170171700597306,-0.013067593635314302,-0.006674446053024261,3.600015640258789,2019-07-25 11:47:55:941,-116.08185358314167,-177.29343566581494,0,-46.93089294433594,13.94432258605957,-1.9492063522338867
0.47181597352027893,-0.49063393473625183,9.756543159484863,-0.005750636042470505,-0.0013468231111282822,0.0007842261046412585,3.610015392303467,2019-07-25 11:47:55:951,-117.30408817799861,-177.2867611218553,0,-46.93089294433594,13.94432258605957,-1.9492063522338867
0.35207849740982056,-0.5385289192199707,9.854727745056152,-0.010545496859225198,0.0002514638006988733,0.003448037575589248,3.6200110912323,2019-07-25 11:47:55:961,-118.51722498760736,-177.2725488149582,0,-46.93089294433594,13.94432258605957,-1.9492063522338867
0.40476298332214355,-0.4930286705493927,9.86191177368164,-0.008148066190773526,-0.0016132042387175067,0.011173090535751088,3.6300151348114014,2019-07-25 11:47:55:971,-119.69896881571302,-177.26528051230676,0,-46.93089294433594,13.94432258605957,-1.9492063522338867
0.37842074036598206,-0.3756859302520752,9.78049087524414,-0.006549779425238179,-0.007207208308202711,0.010107566025394189,3.6399900913238525,2019-07-25 11:47:55:981,-120.85663777955634,-177.27231140732022,0,-46.93089294433594,13.94432258605957,-1.9492063522338867
0.39757874608039856,-0.37808069586753845,9.775701522827148,-0.005217873787292057,0.005046324601198921,0.014103283459381206,3.6500158309936523,2019-07-25 11:47:55:991,-121.99576699154524,-177.27963096337126,0,-46.93089294433594,13.94432258605957,-1.9492063522338867
0.5125267505645752,-0.3469489514827728,9.82120132446289,-0.00042301326312097924,0.003448037575589248,0.013836901811643333,3.660015106201172,2019-07-25 11:47:56:001,-123.09804131341598,-177.2933364469397,0,-46.93089294433594,13.94432258605957,-1.9492063522338867
0.4813949763774872,-0.3373699486255646,9.823596000671387,-0.00308682476657826,-0.005342540415078138,0.01490242632200023,3.670015573501587,2019-07-25 11:47:56:011,-124.17697101591682,-177.3063978817797,0,-46.93089294433594,13.94432258605957,-1.9492063522338867
0.4742107391357422,-0.3948439359664917,9.797253608703613,-0.001222156743416525,-0.0029451100067007917,0.017299856990451903,3.6800143718719482,2019-07-25 11:47:56:021,-125.23635629024577,-177.31342663830554,0,-46.93089294433594,13.94432258605957,-1.9492063522338867
0.4742107391357422,-0.5193709135055542,9.792464256286621,-0.0028204436389890346,-0.002412347751522343,0.0183653815008088,3.689985752105713,2019-07-25 11:47:56:031,-126.27482961855944,-177.30485899558778,0,-46.93089294433594,13.94432258605957,-1.9492063522338867
0.4526579678058624,-0.4786601662635803,9.811622619628906,-0.005484254914881281,-0.005608921542667363,0.02529129185842594,3.7000138759613037,2019-07-25 11:47:56:041,-127.2933455560936,-177.29981452964049,0,-46.93089294433594,13.94432258605957,-1.9492063522338867
0.3808155059814453,-0.5265551805496216,9.830780029296875,-0.0006893944232194946,-0.0010804419185204762,0.026889577583663987,3.7100143432617188,2019-07-25 11:47:56:051,-128.30250473314294,-177.2921123134718,0,-46.93089294433594,13.94432258605957,-1.9492063522338867
0.3688417375087738,-0.5313446521759033,9.679910659790039,-0.001222156743416525,0.002116131807605963,0.03461463184419745,3.7200162410736084,2019-07-25 11:47:56:061,-129.29400040175472,-177.28274575256964,0,-47.230770111083984,14.54407787322998,-1.6493284702301025
0.2969992458820343,-0.5265551805496216,9.792464256286621,0.0009088924723530155,-0.0002812985032435118,0.03647929817687607,3.7300143241882324,2019-07-25 11:47:56:071,-130.2732182311483,-177.27604280142927,0,-47.230770111083984,14.54407787322998,-1.6493284702301025
0.2443147599697113,-0.5576869249343872,9.825990676879883,-0.0006893944232194946,-0.003744253389468466,0.033549107333840554,3.739990711212158,2019-07-25 11:47:56:081,-131.23717010699028,-177.2651675309632,0,-47.230770111083984,14.54407787322998,-1.6493284702301025
0.23952525854110718,-0.509791910648346,9.792464256286621,0.0011752736649608213,-0.0029451100067007917,0.03994225231538734,3.7500147819519043,2019-07-25 11:47:56:091,-132.18274535647197,-177.26092356566792,0,-47.230770111083984,14.54407787322998,-1.6493284702301025
0.22994625568389893,-0.4331599175930023,9.80922794342041,0.005970134091604027,0.0007842261046412585,0.04047501769145769,3.7600154876708984,2019-07-25 11:47:56:101,-133.11267338247774,-177.26848859383128,0,-47.230770111083984,14.54407787322998,-1.6493284702301025
0.232341006398201,-0.39723867177963257,9.802042961120605,0.00010974903269408318,0.0026488941928215744,0.034348249156162275,3.7700161933898926,2019-07-25 11:47:56:111,-134.02475044629298,-177.27676634743744,0,-47.230770111083984,14.54407787322998,-1.6493284702301025
0.23473575711250305,-0.4092124402523041,9.86670207977295,0.005170990708836353,-0.0002812985032435118,0.03221720013544848,3.780015468597412,2019-07-25 11:47:56:121,-134.91684050681948,-177.28663573536969,0,-47.230770111083984,14.54407787322998,-1.6493284702301025
0.21318301558494568,-0.3541331887245178,9.835570335388184,0.005437371836425577,0.004247180958356922,0.02822148478205606,3.789990186691284,2019-07-25 11:47:56:131,-135.79604896796718,-177.30270709803227,0,-47.230770111083984,14.54407787322998,-1.6493284702301025
0.27305176854133606,-0.4020281732082367,9.86191177368164,0.0014416547925500459,0.004779943473609696,0.03168443892056733,3.8000149726867676,2019-07-25 11:47:56:141,-136.6510991285213,-177.31077619922394,0,-47.230770111083984,14.54407787322998,-1.6493284702301025
0.2658675014972687,-0.35892269015312195,9.77091121673584,0.005970134091604027,-0.007473589435791935,0.0183653815008088,3.8100154399871826,2019-07-25 11:47:56:151,-137.48270775002905,-177.32583813902036,0,-47.230770111083984,14.54407787322998,-1.6493284702301025
0.2562884986400604,-0.38526493310928345,9.694279670715332,-0.002287681383810586,-0.0008140607909312516,0.019963669306641448,3.820021152496338,2019-07-25 11:47:56:161,-138.30230862655924,-177.3325196939788,0,-47.230770111083984,14.54407787322998,-1.6493284702301025
0.13176152110099792,-0.4738706648349762,9.885859489440918,-0.0038859681493459333,0.006378230239145044,0.014636045714559657,3.830014944076538,2019-07-25 11:47:56:171,-139.12456941654943,-177.3288021651764,0,-47.230770111083984,14.54407787322998,-1.6493284702301025
0.22276201844215393,-0.4140019416809082,9.840359687805176,0.006502896346782475,-0.0002812985032435118,0.017033475342714027,3.8399887084960938,2019-07-25 11:47:56:181,-139.9159841575364,-177.33768555844176,0,-47.230770111083984,14.54407787322998,-2.548962116241455
0.27305176854133606,-0.37089642882347107,9.734990119934082,0.0027735605605333316,-0.0010804419185204762,0.00904204151503729,3.850015163421631,2019-07-25 11:47:56:191,-140.6849234260488,-177.34885582771233,0,-47.230770111083984,14.54407787322998,-2.548962116241455
0.27305176854133606,-0.3996334373950958,9.785280227661133,0.0027735605605333316,0.00797651700468039,-0.0008140607909312516,3.8600149154663086,2019-07-25 11:47:56:201,-141.4437359292968,-177.35666252004992,0,-47.230770111083984,14.54407787322998,-2.548962116241455
0.29460451006889343,-0.4331599175930023,9.828385353088379,-0.0017549189985949741,0.003448037575589248,0.006644611366734268,3.8700196743011475,2019-07-25 11:47:56:211,-142.18245981877604,-177.3580728978876,0,-47.230770111083984,14.54407787322998,-2.548962116241455
0.3305257558822632,-0.42358094453811646,9.833174705505371,-0.0006893944232194946,-0.006674446053024261,-0.002412347751522343,3.8800137042999268,2019-07-25 11:47:56:221,-142.89656162418225,-177.36119278669167,0,-47.230770111083984,14.54407787322998,-2.548962116241455
0.32573625445365906,-0.35892269015312195,9.711043357849121,0.008367564239907048,0.004247180958356922,-0.0016132042387175067,3.8899917602539062,2019-07-25 11:47:56:231,-143.60258705425258,-177.37632292822659,0,-47.230770111083984,14.54407787322998,-2.548962116241455
0.33292049169540405,-0.3876596987247467,9.746964454650879,-0.0025540625113998103,0.006378230239145044,-0.006674446053024261,3.9000141620635986,2019-07-25 11:47:56:241,-144.29499964805896,-177.38180740486612,0,-47.230770111083984,14.54407787322998,-2.548962116241455
0.3760260045528412,-0.3685016930103302,9.785280227661133,-0.0017549189985949741,0.006111849111555819,-0.005342540415078138,3.910015106201172,2019-07-25 11:47:56:251,-144.96851850722672,-177.39005238125975,0,-47.230770111083984,14.54407787322998,-2.548962116241455
0.41913148760795593,-0.3996334373950958,9.77091121673584,0.0014416547925500459,-0.0034778722618792413,-0.002145966493895956,3.9200143814086914,2019-07-25 11:47:56:261,-145.61807055721977,-177.39621855106026,0,-47.230770111083984,14.54407787322998,-2.548962116241455
0.41913148760795593,-0.44513368606567383,9.73020076751709,-0.0017549189985949741,0.004513562346020471,-0.005076159287488914,3.9300215244293213,2019-07-25 11:47:56:271,-146.2589151329417,-177.3949216870561,0,-47.230770111083984,14.54407787322998,-2.548962116241455
0.4287104904651642,-0.44273892045021057,9.766121864318848,-0.00015663211927710938,0.007710135877091167,-0.0029451100067007917,3.939992666244507,2019-07-25 11:47:56:281,-146.88778275932611,-177.39502198348728,0,-47.230770111083984,14.54407787322998,-2.548962116241455
0.5005529522895813,-0.4211861789226532,9.857122421264648,0.001974417047728495,-0.0032114911342900165,0.0002514638006988733,3.9500198364257812,2019-07-25 11:47:56:291,-147.49007834232344,-177.39929898880746,0,-47.230770111083984,14.54407787322998,-2.548962116241455
0.5245004892349243,-0.4666864275932312,9.691884994506836,0.0027735605605333316,0.004247180958356922,-0.0013468231111282822,3.960015296936035,2019-07-25 11:47:56:301,-148.08070683784513,-177.39773378334655,0,-47.230770111083984,14.54407787322998,-2.548962116241455
0.3808155059814453,-0.3996334373950958,9.70146369934082,0.01023223213303162,0.006910992494323493,0.006378230239145044,3.9700140953063965,2019-07-25 11:47:56:311,-148.67801473768452,-177.40834665004965,0,-46.631011962890625,15.44371223449707,-1.6493284702301025
0.47181597352027893,-0.4978181719779968,9.775701522827148,-0.0025540625113998103,0.003980799830767698,0.009308423162775165,3.9800150394439697,2019-07-25 11:47:56:321,-149.25142610436473,-177.4004411972881,0,-46.631011962890625,15.44371223449707,-1.6493284702301025
0.39997348189353943,-0.4331599175930023,9.797253608703613,0.004904609581247128,-0.005076159287488914,0.007710135877091167,3.989992380142212,2019-07-25 11:47:56:331,-149.81679767406672,-177.40454937976477,0,-46.631011962890625,15.44371223449707,-1.6493284702301025
0.37842074036598206,-0.44992318749427795,9.761332511901855,0.0033063228157117807,0.0031816564480000235,0.00797651700468039,4.000014305114746,2019-07-25 11:47:56:341,-150.37785028726714,-177.40553832150857,0,-46.631011962890625,15.44371223449707,-1.6493284702301025
0.49815821647644043,-0.44273892045021057,9.876280784606934,-0.003619587021756709,0.0002514638006988733,0.002116131807605963,4.010020017623901,2019-07-25 11:47:56:351,-150.9126836802534,-177.40405868536106,0,-46.631011962890625,15.44371223449707,-1.6493284702301025
0.4358947277069092,-0.41160717606544495,9.842754364013672,0.002507179432944107,-0.004010634517057691,0.008242898132269616,4.020015478134155,2019-07-25 11:47:56:361,-151.44146435616787,-177.4094923222163,0,-46.631011962890625,15.44371223449707,-1.6493284702301025
0.3808155059814453,-0.3900544345378876,9.773306846618652,0.0041054661984794545,-0.0010804419185204762,0.011705852790929535,4.030014991760254,2019-07-25 11:47:56:371,-151.96740057093749,-177.41789813867743,0,-46.631011962890625,15.44371223449707,-1.6493284702301025
0.3951839804649353,-0.33258044719696045,9.706253051757812,-0.0006893944232194946,0.011173090535751088,0.003980799830767698,4.03999137878418,2019-07-25 11:47:56:381,-152.4876819429152,-177.42990506287305,0,-46.631011962890625,15.44371223449707,-1.6493284702301025
0.3832102417945862,-0.34455418586730957,9.828385353088379,0.004638228453657903,0.006378230239145044,0.0023825130652323496,4.050014972686768,2019-07-25 11:47:56:391,-152.99686131851175,-177.4437614915358,0,-46.631011962890625,15.44371223449707,-1.6493284702301025
0.39997348189353943,-0.33258044719696045,9.816411972045898,0.0017080359201392707,-0.006141683797845812,0.00557908685637737,4.060014724731445,2019-07-25 11:47:56:401,-153.48681067178222,-177.45703647421263,0,-46.631011962890625,15.44371223449707,-1.6493284702301025
0.3760260045528412,-0.37089642882347107,9.723016738891602,0.0027735605605333316,0.0002514638006988733,0.006111849111555819,4.070014238357544,2019-07-25 11:47:56:411,-153.9729208123089,-177.4657618442338,0,-46.631011962890625,15.44371223449707,-1.6493284702301025
0.42392098903656006,-0.38526493310928345,9.816411972045898,0.0017080359201392707,0.01490242632200023,0.0005178449445427432,4.0800158977508545,2019-07-25 11:47:56:421,-154.4523759294373,-177.4724551225168,0,-46.631011962890625,15.44371223449707,-1.6493284702301025
0.46942123770713806,-0.43794941902160645,9.857122421264648,0.0041054661984794545,-0.007207208308202711,-0.0029451100067007917,4.089992523193359,2019-07-25 11:47:56:431,-154.90476081611192,-177.47442657087018,0,-47.980464935302734,16.493284225463867,-0.8996337056159973
0.39278924465179443,-0.44513368606567383,9.73020076751709,0.002507179432944107,-0.005076159287488914,-0.004543397032310465,4.100014925003052,2019-07-25 11:47:56:441,-155.35757568142375,-177.4739625664788,0,-47.980464935302734,16.493284225463867,-0.8996337056159973
0.4071577489376068,-0.42358094453811646,9.684700965881348,-0.0038859681493459333,0.002915275320410799,-0.002145966493895956,4.110013961791992,2019-07-25 11:47:56:451,-155.80391346617736,-177.47221443143385,0,-47.980464935302734,16.493284225463867,-0.8996337056159973
0.4406842291355133,-0.4331599175930023,9.751753807067871,-0.004152349276935158,0.0023825130652323496,-0.009071876201327283,4.120015382766724,2019-07-25 11:47:56:461,-156.2374241558882,-177.46957166453632,0,-47.980464935302734,16.493284225463867,-0.8996337056159973
0.4263157248497009,-0.4355546832084656,9.825990676879883,0.001974417047728495,-0.007473589435791935,-0.003744253389468466,4.130014896392822,2019-07-25 11:47:56:471,-156.65879331609347,-177.4705272724446,0,-47.980464935302734,16.493284225463867,-0.8996337056159973
0.3760260045528412,-0.44992318749427795,9.756543159484863,-0.000955775550808719,-0.0032114911342900165,-0.0013468231111282822,4.139991044998169,2019-07-25 11:47:56:481,-157.07967572671657,-177.46777483093425,0,-47.980464935302734,16.493284225463867,-0.8996337056159973
0.39757874608039856,-0.4523179233074188,9.725411415100098,-0.004152349276935158,0.001050607232230483,-0.00480977815989969,4.1500184535980225,2019-07-25 11:47:56:491,-157.49185432154138,-177.46282454030754,0,-47.980464935302734,16.493284225463867,-0.8996337056159973
0.41194725036621094,-0.44513368606567383,9.797253608703613,-0.003619587021756709,-0.0002812985032435118,-1.491734416091191e-05,4.1600141525268555,2019-07-25 11:47:56:501,-157.89370515761206,-177.45950816663418,0,-47.980464935302734,16.493284225463867,-0.8996337056159973
0.36644700169563293,-0.4259756803512573,9.737384796142578,-0.005750636042470505,-0.0002812985032435118,0.0031816564480000235,4.170013904571533,2019-07-25 11:47:56:511,-158.29256920912962,-177.4569913514931,0,-47.980464935302734,16.493284225463867,-0.8996337056159973
0.2969992458820343,-0.42358094453811646,9.823596000671387,-0.00015663211927710938,0.003448037575589248,0.002116131807605963,4.180017709732056,2019-07-25 11:47:56:521,-158.69402042601655,-177.458383709465,0,-47.980464935302734,16.493284225463867,-0.8996337056159973
0.3424994945526123,-0.4163966774940491,9.871491432189941,-0.00015663211927710938,0.0026488941928215744,0.001849750680016738,4.18998908996582,2019-07-25 11:47:56:531,-159.08188057185896,-177.4608202635657,0,-47.980464935302734,16.493284225463867,-0.8996337056159973
0.3616575002670288,-0.49542343616485596,9.902623176574707,0.0014416547925500459,-0.0026787288791115674,0.004513562346020471,4.2000157833099365,2019-07-25 11:47:56:541,-159.45690301191638,-177.45513366429975,0,-47.980464935302734,16.493284225463867,-0.8996337056159973
0.3281309902667999,-0.5002129077911377,9.864306449890137,0.0022407983053548824,-0.0016132042387175067,0.006111849111555819,4.2100160121917725,2019-07-25 11:47:56:551,-159.82875488700597,-177.4492302818161,0,-47.980464935302734,16.493284225463867,-0.8996337056159973
0.24670951068401337,-0.46908116340637207,9.835570335388184,0.000642511344763791,0.001316988424838289,-0.002145966493895956,4.220014810562134,2019-07-25 11:47:56:561,-160.20418175845435,-177.44599640900097,0,-47.53064727783203,15.44371223449707,-1.9492063522338867
0.28023600578308105,-0.44992318749427795,9.756543159484863,0.0003761301846652757,0.0002514638006988733,0.005845467983966595,4.230007648468018,2019-07-25 11:47:56:571,-160.56733427114366,-177.4444810167317,0,-47.53064727783203,15.44371223449707,-1.9492063522338867
0.3089730143547058,-0.43794941902160645,9.842754364013672,0.0027735605605333316,0.0007842261046412585,0.010640328280572637,4.239986181259155,2019-07-25 11:47:56:581,-160.92046745766993,-177.44619195540338,0,-47.53064727783203,15.44371223449707,-1.9492063522338867
0.28023600578308105,-0.4140019416809082,9.768516540527344,0.001974417047728495,0.0026488941928215744,0.010640328280572637,4.250013828277588,2019-07-25 11:47:56:591,-161.27068493332442,-177.4498435246124,0,-47.53064727783203,15.44371223449707,-1.9492063522338867
0.29460451006889343,-0.3685016930103302,9.811622619628906,0.004371847326068679,0.0015833695524275135,0.010906709928310512,4.26001501083374,2019-07-25 11:47:56:601,-161.61176338751991,-177.46028402917182,0,-47.53064727783203,15.44371223449707,-1.9492063522338867
0.2850255072116852,-0.4259756803512573,9.804438591003418,0.004904609581247128,-0.0018795853663067313,0.016767094735273453,4.270014524459839,2019-07-25 11:47:56:611,-161.94516917551402,-177.46407658163852,0,-47.53064727783203,15.44371223449707,-1.9492063522338867
0.30657824873924255,-0.3996334373950958,9.778096199035645,0.0022407983053548824,-1.491734416091191e-05,0.017299856990451903,4.280017375946045,2019-07-25 11:47:56:621,-162.27034063213767,-177.46924578441983,0,-47.53064727783203,15.44371223449707,-1.9492063522338867
0.27305176854133606,-0.43076518177986145,9.739779472351074,0.0017080359201392707,0.0031816564480000235,0.01197223443866741,4.289989709854126,2019-07-25 11:47:56:631,-162.59459838839777,-177.47016940737032,0,-47.53064727783203,15.44371223449707,-1.9492063522338867
0.28742024302482605,-0.39244917035102844,9.814017295837402,0.0009088924723530155,0.00557908685637737,0.012771377301286432,4.30001425743103,2019-07-25 11:47:56:641,-162.91229625678776,-177.47547841382664,0,-47.53064727783203,15.44371223449707,-1.9492063522338867
0.26826226711273193,-0.4068176746368408,9.80922794342041,0.000642511344763791,0.001316988424838289,0.011173090535751088,4.310014724731445,2019-07-25 11:47:56:651,-163.22345922138774,-177.4788323446914,0,-47.53064727783203,15.44371223449707,-1.9492063522338867
0.2658675014972687,-0.3900544345378876,9.756543159484863,0.0022407983053548824,0.002116131807605963,0.014636045714559657,4.32001519203186,2019-07-25 11:47:56:661,-163.52895962390824,-177.48472606869893,0,-47.53064727783203,15.44371223449707,-1.9492063522338867
0.3233414888381958,-0.4331599175930023,9.823596000671387,0.0038390850708902298,-0.0034778722618792413,0.007443754749501942,4.330015659332275,2019-07-25 11:47:56:671,-163.8187235735212,-177.48669219655795,0,-47.53064727783203,15.44371223449707,-1.9492063522338867
0.3185519874095917,-0.4020281732082367,9.79964828491211,-0.00042301326312097924,0.0031816564480000235,0.010640328280572637,4.339991331100464,2019-07-25 11:47:56:681,-164.10689469104463,-177.48973684938025,0,-47.230770111083984,15.743589401245117,-1.3494505882263184
0.3640522360801697,-0.3685016930103302,9.835570335388184,-0.0006893944232194946,-0.0008140607909312516,0.00797651700468039,4.350019693374634,2019-07-25 11:47:56:691,-164.38190302320618,-177.49664086069538,0,-47.230770111083984,15.743589401245117,-1.3494505882263184
0.3760260045528412,-0.4140019416809082,9.699069023132324,0.0033063228157117807,-0.0026787288791115674,0.004247180958356922,4.360015392303467,2019-07-25 11:47:56:701,-164.6483574133959,-177.49968034075832,0,-47.230770111083984,15.743589401245117,-1.3494505882263184
0.38560497760772705,-0.37808069586753845,9.818806648254395,-0.005217873787292057,0.0015833695524275135,0.003448037575589248,4.3700151443481445,2019-07-25 11:47:56:711,-164.91129992650704,-177.50265440536967,0,-47.230770111083984,15.743589401245117,-1.3494505882263184
0.38560497760772705,-0.34455418586730957,9.802042961120605,0.0011752736649608213,-0.004277015644646915,0.006378230239145044,4.38001561164856,2019-07-25 11:47:56:721,-165.16561605525402,-177.5129974608735,0,-47.230770111083984,15.743589401245117,-1.3494505882263184
0.34728899598121643,-0.3996334373950958,9.725411415100098,-0.0014885378710057496,-0.004543397032310465,-0.0013468231111282822,4.3899922370910645,2019-07-25 11:47:56:731,-165.4188559618686,-177.51484253928757,0,-47.230770111083984,15.743589401245117,-1.3494505882263184
0.3353152573108673,-0.39723867177963257,9.787674903869629,-0.003619587021756709,0.0023825130652323496,-0.005608921542667363,4.400009870529175,2019-07-25 11:47:56:741,-165.67257648669124,-177.5160275486475,0,-47.230770111083984,15.743589401245117,-1.3494505882263184
0.2922097444534302,-0.3613174259662628,9.804438591003418,-0.005217873787292057,-0.0008140607909312516,-0.004543397032310465,4.410016298294067,2019-07-25 11:47:56:751,-165.92452501147474,-177.52056460865637,0,-47.230770111083984,15.743589401245117,-1.3494505882263184
0.31376248598098755,-0.4092124402523041,9.802042961120605,-0.0028204436389890346,-1.491734416091191e-05,-0.0013468231111282822,4.420015096664429,2019-07-25 11:47:56:761,-166.16935800481684,-177.5207582908164,0,-47.230770111083984,15.743589401245117,-1.3494505882263184
0.2850255072116852,-0.39723867177963257,9.754148483276367,-0.000955775550808719,-0.0008140607909312516,-0.002145966493895956,4.4300148487091064,2019-07-25 11:47:56:771,-166.41203854285934,-177.5231647189494,0,-47.230770111083984,15.743589401245117,-1.3494505882263184
0.29460451006889343,-0.4092124402523041,9.818806648254395,0.0014416547925500459,0.0005178449445427432,-0.004543397032310465,4.439988374710083,2019-07-25 11:47:56:781,-166.6497159111498,-177.52577876240835,0,-47.230770111083984,15.743589401245117,-1.3494505882263184
0.32094675302505493,-0.40442293882369995,9.79964828491211,-0.002287681383810586,0.004513562346020471,-0.0008140607909312516,4.4500322341918945,2019-07-25 11:47:56:791,-166.88175077449682,-177.526708906501,0,-47.230770111083984,15.743589401245117,-1.3494505882263184
0.3017887473106384,-0.43794941902160645,9.794858932495117,0.004371847326068679,0.0002514638006988733,-0.002145966493895956,4.460017204284668,2019-07-25 11:47:56:801,-167.10896118033875,-177.52742355265784,0,-47.230770111083984,15.743589401245117,-1.3494505882263184
0.30657824873924255,-0.43076518177986145,9.792464256286621,-0.0049514926597028315,-0.0032114911342900165,0.0031816564480000235,4.470016241073608,2019-07-25 11:47:56:811,-167.32911476581245,-177.52371936565078,0,-47.380706787109375,14.69401741027832,-2.3990232944488525
0.3424994945526123,-0.4618969261646271,9.723016738891602,0.000642511344763791,0.0005178449445427432,0.002915275320410799,4.48001503944397,2019-07-25 11:47:56:821,-167.54247427730064,-177.5192092884961,0,-47.380706787109375,14.69401741027832,-2.3990232944488525
0.35926273465156555,-0.4092124402523041,9.75893783569336,-0.0038859681493459333,0.002116131807605963,0.001050607232230483,4.489993095397949,2019-07-25 11:47:56:831,-167.75064402382554,-177.51862544787227,0,-47.380706787109375,14.69401741027832,-2.3990232944488525
0.33292049169540405,-0.4595021903514862,9.833174705505371,-0.0014885378710057496,-0.002145966493895956,0.0015833695524275135,4.499959945678711,2019-07-25 11:47:56:841,-167.9556478823685,-177.51391042898456,0,-47.380706787109375,14.69401741027832,-2.3990232944488525
0.37123650312423706,-0.4595021903514862,9.794858932495117,0.0017080359201392707,0.001316988424838289,-0.0002812985032435118,4.510023832321167,2019-07-25 11:47:56:851,-168.15386838611528,-177.51087892498725,0,-47.380706787109375,14.69401741027832,-2.3990232944488525
0.3377099931240082,-0.4211861789226532,9.814017295837402,-0.003353205894167484,0.0015833695524275135,0.0023825130652323496,4.520014762878418,2019-07-25 11:47:56:861,-168.3522627417607,-177.50963136801457,0,-47.380706787109375,14.69401741027832,-2.3990232944488525
