ACCELEROMETER X (m/s²),ACCELEROMETER Y (m/s²),ACCELEROMETER Z (m/s²),GYROSCOPE X (rad/s),GYROSCOPE Y (rad/s),GYROSCOPE Z (rad/s),Time since start in ms ,YYYY-MO-DD HH-MI-SS_SSS,Pitch (Deg),Roll (Deg),Heading (Deg),MagX,MagY,MagZ
-0.331043004989624,0.029886476695537567,9.83381175994873,-0.002703768575067792,0.007713599026805571,-0.0019216735844658289,0.0,2019-08-06 13:49:04:659,3.5614387433028156,3.5965173957994705,0,-43.33235549926758,43.33235549926758,-37.63467788696289
-0.3262535035610199,0.04664972424507141,9.814654350280762,-0.003502911957835466,0.005582549485943123,-5.7005565367755386e-05,0.009993553161621094,2019-08-06 13:49:04:669,7.048999501805506,7.12110608590662,0,-43.33235549926758,43.33235549926758,-37.63467788696289
-0.32385876774787903,0.022702226415276527,9.836206436157227,-0.0016382440647108938,0.006914455123889247,0.004205092610160662,0.01999640464782715,2019-08-06 13:49:04:679,10.466420106980213,10.576959299297322,0,-43.33235549926758,43.33235549926758,-37.63467788696289
-0.32146400213241577,0.0538339726626873,9.826627731323242,0.004754903517579147,0.006914455123889247,0.0007421378864821609,0.029998779296875,2019-08-06 13:49:04:689,13.815734708263308,13.956471912491969,0,-43.33235549926758,43.33235549926758,-37.63467788696289
-0.31667450070381165,0.008333728648722172,9.802680015563965,-3.9957173202045016e-05,0.0039842627204077765,-0.0013889113292873795,0.03999924659729004,2019-08-06 13:49:04:699,17.100176943818393,17.27639071359525,0,-43.33235549926758,43.33235549926758,-37.63467788696289
-0.3573852479457855,0.02509697712957859,9.797890663146973,0.0007591862786478714,0.009578266919930143,-0.004585484860358075,0.050000905990600586,2019-08-06 13:49:04:709,20.311014739439138,20.52750132756177,0,-43.33235549926758,43.33235549926758,-37.63467788696289
-0.3861222565174103,0.034675974398851395,9.852970123291016,-3.9957173202045016e-05,0.007713599026805571,0.0010085190140713856,0.05999326705932617,2019-08-06 13:49:04:719,23.45558293213619,23.712940867227083,0,-43.33235549926758,43.33235549926758,-37.63467788696289
-0.3502010107040405,0.07538671791553497,9.805074691772461,-0.002703768575067792,0.004517024975586225,-0.0003233867214026093,0.06999540328979492,2019-08-06 13:49:04:729,26.5430239507565,26.83139029127419,0,-43.33235549926758,43.33235549926758,-37.63467788696289
-0.32385876774787903,0.06580772250890732,9.852970123291016,-0.0013718629371216693,0.006381692868710797,-0.0024544358396442778,0.07999730110168457,2019-08-06 13:49:04:739,29.570927762184567,29.887879505197226,0,-43.33235549926758,43.33235549926758,-37.63467788696289
-0.3645695149898529,0.02509697712957859,9.805074691772461,0.0004928051185493561,0.009045504664751694,-0.000856149009090349,0.09000253677368164,2019-08-06 13:49:04:749,32.5318400178945,32.88691199243236,0,-43.33235549926758,43.33235549926758,-37.63467788696289
-0.3597800135612488,0.06580772250890732,9.848180770874023,0.0031566164919694735,0.009578266919930143,0.0023404247170360896,0.09999918937683105,2019-08-06 13:49:04:759,35.43398212481799,35.81974476251972,0,-44.08205032348633,44.381927490234375,-37.18486022949219
-0.34780627489089966,0.05862347409129143,9.824233055114746,-0.0037692930854246903,0.0074472173790676955,-0.003786341477590401,0.10999059677124023,2019-08-06 13:49:04:769,38.28057268198144,38.69862663904318,0,-44.08205032348633,44.381927490234375,-37.18486022949219
-0.3382272720336914,0.056228723376989365,9.843391418457031,-0.0037692930854246903,0.005316168358353898,-0.004851865987947299,0.12000727653503418,2019-08-06 13:49:04:779,41.07261208233249,41.52022830987806,0,-44.08205032348633,44.381927490234375,-37.18486022949219
-0.331043004989624,0.03946547582745552,9.83381175994873,-0.0011054818095324445,0.00824636128198402,0.0007421378864821609,0.1299912929534912,2019-08-06 13:49:04:789,43.80797566426099,44.28584466508175,0,-44.08205032348633,44.381927490234375,-37.18486022949219
-0.3525957465171814,0.005938979331403971,9.867338180541992,-0.002703768575067792,0.005582549485943123,-0.000856149009090349,0.13999438285827637,2019-08-06 13:49:04:799,46.48775028758523,47.00095669666196,0,-44.08205032348633,44.381927490234375,-37.18486022949219
-0.3669642508029938,0.05143922194838524,9.831417083740234,0.002890235364380249,0.006914455123889247,0.00020937558253977584,0.15000343322753906,2019-08-06 13:49:04:809,49.11135708813777,49.65331770965895,0,-44.08205032348633,44.381927490234375,-37.18486022949219
-0.3382272720336914,0.027491725981235504,9.89128589630127,-0.002970149702657017,0.005316168358353898,0.0018076624618576407,0.15999245643615723,2019-08-06 13:49:04:819,51.686979487588935,52.25873232346533,0,-44.08205032348633,44.381927490234375,-37.18486022949219
-0.30230602622032166,0.0035442295484244823,9.848180770874023,-0.0019046251923001184,0.004250643847997001,-0.001655292456876604,0.16999459266662598,2019-08-06 13:49:04:829,54.21568794506877,54.81421495011388,0,-44.08205032348633,44.381927490234375,-37.18486022949219
-0.331043004989624,0.049044474959373474,9.845786094665527,-3.9957173202045016e-05,0.005582549485943123,0.0012749002066791914,0.1799910068511963,2019-08-06 13:49:04:839,56.689726321974284,57.312245016337734,0,-44.08205032348633,44.381927490234375,-37.18486022949219
-0.3382272720336914,0.06580772250890732,9.80986499786377,0.0002264239747054862,0.006914455123889247,-0.0021880547120550534,0.18999147415161133,2019-08-06 13:49:04:849,59.11255560278818,59.75818591910712,0,-44.08205032348633,44.381927490234375,-37.18486022949219
-0.3502010107040405,0.041860222816467285,9.785917282104492,-0.004035674213013915,0.006381692868710797,-0.0003233867214026093,0.20000219345092773,2019-08-06 13:49:04:859,61.48572684006631,62.160388918677384,0,-44.08205032348633,44.381927490234375,-37.18486022949219
-0.3502010107040405,0.01791272684931755,9.759574890136719,0.0015583297264341264,0.005848930613532348,-0.0005897678815011245,0.209991455078125,2019-08-06 13:49:04:869,63.81163062152652,64.51420386841443,0,-44.08205032348633,44.381927490234375,-37.18486022949219
-0.34780627489089966,0.049044474959373474,9.824233055114746,0.0002264239747054862,0.006648073996300022,-0.0024544358396442778,0.21999120712280273,2019-08-06 13:49:04:879,66.09111342615059,66.81807207230761,0,-44.53186798095703,43.93211364746094,-37.33479690551758
-0.3525957465171814,0.05862347409129143,9.788311958312988,-0.0016382440647108938,0.01064379143028704,-0.0003233867214026093,0.23000621795654297,2019-08-06 13:49:04:889,68.32204524356568,69.07576892794495,0,-44.53186798095703,43.93211364746094,-37.33479690551758
-0.32146400213241577,0.05862347409129143,9.790706634521484,-0.002171006319889343,0.005316168358353898,-0.005651009370714973,0.23999905586242676,2019-08-06 13:49:04:899,70.51501044949477,71.2886104164223,0,-44.53186798095703,43.93211364746094,-37.33479690551758
-0.3262535035610199,-0.003640019567683339,9.8721284866333,-0.002171006319889343,0.006914455123889247,-0.001655292456876604,0.2500016689300537,2019-08-06 13:49:04:909,72.66297039771906,66.26448006202936,0,-44.53186798095703,43.93211364746094,-37.33479690551758
-0.3789380192756653,0.03707072511315346,9.819443702697754,0.0023574731092018,0.008779123017013819,0.0028731869722145387,0.2600078582763672,2019-08-06 13:49:04:919,74.76057885931624,68.53353984141002,0,-44.53186798095703,43.93211364746094,-37.33479690551758
-0.31667450070381165,0.041860222816467285,9.836206436157227,-0.0013718629371216693,0.009311885272192268,-0.0021880547120550534,0.26999807357788086,2019-08-06 13:49:04:929,76.82326402559674,70.75876191398949,0,-44.53186798095703,43.93211364746094,-37.33479690551758
-0.3525957465171814,0.013123228214681149,9.840996742248535,-3.9957173202045016e-05,0.00718083625147847,-0.005917390498304197,0.28000402450561523,2019-08-06 13:49:04:939,78.84172455019949,72.94208101726011,0,-44.53186798095703,43.93211364746094,-37.33479690551758
-0.3190692663192749,0.0035442295484244823,9.824233055114746,-0.002171006319889343,0.0039842627204077765,0.0007421378864821609,0.29000091552734375,2019-08-06 13:49:04:949,80.82544988098913,75.08404462995308,0,-44.53186798095703,43.93211364746094,-37.33479690551758
-0.32864826917648315,0.04425497353076935,9.869733810424805,-0.0011054818095324445,0.00824636128198402,-0.002987198094822727,0.3000037670135498,2019-08-06 13:49:04:959,82.76616595677328,77.1778464958015,0,-44.53186798095703,43.93211364746094,-37.33479690551758
-0.3454115092754364,0.03946547582745552,9.80986499786377,-0.003502911957835466,0.006381692868710797,0.0023404247170360896,0.31000685691833496,2019-08-06 13:49:04:969,84.66692647285521,79.23164701494842,0,-44.53186798095703,43.93211364746094,-37.33479690551758
-0.3190692663192749,0.056228723376989365,9.860154151916504,-0.0005727194893354142,0.0034515004652293266,-0.004585484860358075,0.3200199604034424,2019-08-06 13:49:04:979,86.53457911600168,81.24080142562742,0,-44.53186798095703,43.93211364746094,-37.33479690551758
-0.32385876774787903,0.05143922194838524,9.802680015563965,-0.0008391006169246387,0.005049787230764674,0.0023404247170360896,0.3300058841705322,2019-08-06 13:49:04:989,88.36321133630993,83.21044279080694,0,-44.53186798095703,43.93211364746094,-37.33479690551758
-0.31667450070381165,0.034675974398851395,9.848180770874023,-0.0013718629371216693,0.006914455123889247,0.00553699850818111,0.34000182151794434,2019-08-06 13:49:04:999,90.15523127903066,85.14296910743965,0,-44.53186798095703,43.93211364746094,-37.33479690551758
-0.36217474937438965,0.041860222816467285,9.785917282104492,-0.002171006319889343,0.006381692868710797,0.0018076624618576407,0.3500046730041504,2019-08-06 13:49:05:009,91.90615157126464,87.03642735333905,0,-43.93211364746094,44.231990814208984,-37.63467788696289
-0.3597800135612488,0.041860222816467285,9.845786094665527,-0.0008391006169246387,0.003717881592818551,0.00020937558253977584,0.3600022792816162,2019-08-06 13:49:05:019,93.62408657657132,88.89129791609975,0,-43.93211364746094,44.231990814208984,-37.63467788696289
-0.33583250641822815,0.01791272684931755,9.852970123291016,-0.0037692930854246903,0.005049787230764674,-5.7005565367755386e-05,0.37000060081481934,2019-08-06 13:49:05:029,95.30972714947777,90.71350478006919,0,-43.93211364746094,44.231990814208984,-37.63467788696289
-0.3502010107040405,0.05143922194838524,9.876917839050293,0.0002264239747054862,0.004517024975586225,0.0023404247170360896,0.3800017833709717,2019-08-06 13:49:05:039,96.96038285197116,92.4931396311115,0,-43.93211364746094,44.231990814208984,-37.63467788696289
-0.3597800135612488,0.034675974398851395,9.848180770874023,-0.002171006319889343,0.006381692868710797,0.0018076624618576407,0.3900027275085449,2019-08-06 13:49:05:049,98.57574683558758,94.24046115689788,0,-43.93211364746094,44.231990814208984,-37.63467788696289
-0.33583250641822815,0.02509697712957859,9.805074691772461,-0.0011054818095324445,0.008512742409573244,0.0012749002066791914,0.4000101089477539,2019-08-06 13:49:05:059,100.16021518885405,95.95334005009569,0,-43.93211364746094,44.231990814208984,-37.63467788696289
-0.3262535035610199,0.09454471617937088,9.838602066040039,-0.002970149702657017,0.010910172037727614,-0.0003233867214026093,0.4100029468536377,2019-08-06 13:49:05:069,101.71290394813376,97.6249283747427,0,-43.93211364746094,44.231990814208984,-37.63467788696289
-0.35499051213264465,0.04664972424507141,9.829022407531738,0.0023574731092018,0.0039842627204077765,-0.0024544358396442778,0.42002391815185547,2019-08-06 13:49:05:079,103.2350354671378,99.26566470071637,0,-43.93211364746094,44.231990814208984,-37.63467788696289
-0.33583250641822815,0.02509697712957859,9.82183837890625,-0.002171006319889343,0.005582549485943123,-0.0019216735844658289,0.4300534725189209,2019-08-06 13:49:05:089,104.72802452155612,100.87864596421443,0,-43.93211364746094,44.231990814208984,-37.63467788696289
-0.29751652479171753,0.0538339726626873,9.860154151916504,-0.0011054818095324445,0.006914455123889247,-0.005651009370714973,0.44004321098327637,2019-08-06 13:49:05:099,106.19501962630598,102.45543678448279,0,-43.93211364746094,44.231990814208984,-37.63467788696289
-0.3789380192756653,0.04664972424507141,9.8721284866333,-0.0005727194893354142,0.006381692868710797,-0.001655292456876604,0.4500594139099121,2019-08-06 13:49:05:109,107.62356615103702,104.00123528551606,0,-43.93211364746094,44.231990814208984,-37.63467788696289
-0.331043004989624,0.005938979331403971,9.814654350280762,-3.9957173202045016e-05,0.008779123017013819,0.0028731869722145387,0.46007585525512695,2019-08-06 13:49:05:119,109.02752078951544,105.52053964374285,0,-43.93211364746094,44.231990814208984,-37.63467788696289
-0.34780627489089966,0.04664972424507141,9.862548828125,0.0004928051185493561,0.004517024975586225,-0.0019216735844658289,0.47003865242004395,2019-08-06 13:49:05:129,110.40404912714776,107.00443304588428,0,-42.13284683227539,44.231990814208984,-36.735042572021484
-0.30230602622032166,0.049044474959373474,9.785917282104492,-0.004302055340603139,0.006115311741121573,-0.003519960350001176,0.48004150390625,2019-08-06 13:49:05:139,111.7571451182619,108.46101768885313,0,-42.13284683227539,44.231990814208984,-36.735042572021484
-0.33583250641822815,0.0538339726626873,9.814654350280762,-0.003502911957835466,0.007713599026805571,-5.7005565367755386e-05,0.49004411697387695,2019-08-06 13:49:05:149,113.07847488431739,109.88747937605281,0,-42.13284683227539,44.231990814208984,-36.735042572021484
-0.3334377706050873,0.06101822108030319,9.788311958312988,-0.0024373874474785677,0.005316168358353898,-0.0024544358396442778,0.5000643730163574,2019-08-06 13:49:05:159,114.3748939189154,111.28395785290776,0,-42.13284683227539,44.231990814208984,-36.735042572021484
-0.3118850290775299,0.04425497353076935,9.852970123291016,-0.002970149702657017,0.0039842627204077765,-0.0024544358396442778,0.5100326538085938,2019-08-06 13:49:05:169,115.64890537706297,112.65479425401792,0,-42.13284683227539,44.231990814208984,-36.735042572021484
-0.3334377706050873,0.022702226415276527,9.812259674072266,-0.0005727194893354142,0.006648073996300022,0.0012749002066791914,0.5200507640838623,2019-08-06 13:49:05:179,116.8932623842371,113.99936927894608,0,-42.13284683227539,44.231990814208984,-36.735042572021484
-0.32864826917648315,0.034675974398851395,9.82183837890625,-0.002970149702657017,0.012774840451000838,0.0018076624618576407,0.530024528503418,2019-08-06 13:49:05:189,118.10991374992057,115.31699961783441,0,-42.13284683227539,44.231990814208984,-36.735042572021484
-0.33583250641822815,0.06341297179460526,9.757180213928223,-0.0003063383292368989,0.006648073996300022,-0.003786341477590401,0.5400452613830566,2019-08-06 13:49:05:199,119.30454913209223,116.60338466588189,0,-42.13284683227539,44.231990814208984,-36.735042572021484
-0.34301677346229553,0.03228122740983963,9.773942947387695,-0.0016382440647108938,0.0039842627204077765,-0.001655292456876604,0.5500214099884033,2019-08-06 13:49:05:209,120.47602688944592,117.8684499518502,0,-42.13284683227539,44.231990814208984,-36.735042572021484
-0.3047007620334625,0.015517977997660637,9.795495986938477,-0.004035674213013915,0.009844647527370716,0.0026068058446253144,0.5600368976593018,2019-08-06 13:49:05:219,121.62533643248722,119.11153513544697,0,-42.13284683227539,44.231990814208984,-36.735042572021484
-0.3406220078468323,0.06101822108030319,9.874523162841797,-0.002171006319889343,0.006115311741121573,-0.000856149009090349,0.5700240135192871,2019-08-06 13:49:05:229,122.74988765914871,120.32344094583385,0,-42.13284683227539,44.231990814208984,-36.735042572021484
-0.29033225774765015,0.04664972424507141,9.831417083740234,0.0002264239747054862,0.0074472173790676955,0.0028731869722145387,0.5800204277038574,2019-08-06 13:49:05:239,123.85687952244677,121.51140774785611,0,-42.13284683227539,44.231990814208984,-36.735042572021484
-0.3837275207042694,0.04664972424507141,9.805074691772461,-0.002703768575067792,0.005316168358353898,-0.001122530201698155,0.5900495052337646,2019-08-06 13:49:05:249,124.9319250065364,122.67725027417865,0,-42.13284683227539,44.231990814208984,-36.735042572021484
-0.3454115092754364,0.03228122740983963,9.773942947387695,-0.0005727194893354142,0.0007876890592999184,-0.001122530201698155,0.6000046730041504,2019-08-06 13:49:05:259,125.99236634952584,123.82024070968416,0,-43.18241882324219,43.482295989990234,-36.88498306274414
-0.3669642508029938,0.04425497353076935,9.826627731323242,-0.002703768575067792,0.00718083625147847,0.001541281334268416,0.6100387573242188,2019-08-06 13:49:05:269,127.02570020961224,124.94019854834214,0,-43.18241882324219,43.482295989990234,-36.88498306274414
-0.3406220078468323,0.06101822108030319,9.83381175994873,-0.002970149702657017,0.00718083625147847,-0.004052722605179625,0.6200389862060547,2019-08-06 13:49:05:279,128.04147790386168,126.03595210326584,0,-43.18241882324219,43.482295989990234,-36.88498306274414
-0.376543253660202,0.01791272684931755,9.826627731323242,-3.9957173202045016e-05,0.0039842627204077765,-0.0019216735844658289,0.6300256252288818,2019-08-06 13:49:05:289,129.03452569379107,127.11316660705903,0,-43.18241882324219,43.482295989990234,-36.88498306274414
-0.35499051213264465,0.029886476695537567,9.915233612060547,0.0015583297264341264,0.0039842627204077765,-0.0032535792224119516,0.6400496959686279,2019-08-06 13:49:05:299,130.010583468364,128.16657216275968,0,-43.18241882324219,43.482295989990234,-36.88498306274414
-0.3262535035610199,0.056228723376989365,9.740416526794434,-0.0005727194893354142,0.009578266919930143,-0.0003233867214026093,0.6500148773193359,2019-08-06 13:49:05:309,130.9666444482749,129.19694620158037,0,-43.18241882324219,43.482295989990234,-36.88498306274414
-0.3597800135612488,0.03707072511315346,9.797890663146973,-0.0011054818095324445,0.009311885272192268,-0.0019216735844658289,0.6600286960601807,2019-08-06 13:49:05:319,131.9000164279356,130.2092932634397,0,-43.18241882324219,43.482295989990234,-36.88498306274414
-0.3334377706050873,0.029886476695537567,9.797890663146973,-0.0016382440647108938,0.005049787230764674,-0.0005897678815011245,0.6700196266174316,2019-08-06 13:49:05:329,132.82020094041485,131.20253106364157,0,-43.18241882324219,43.482295989990234,-36.88498306274414
-0.3502010107040405,0.0538339726626873,9.819443702697754,-0.0013718629371216693,0.006115311741121573,-0.0019216735844658289,0.6800470352172852,2019-08-06 13:49:05:339,133.71950310791024,132.1729705651109,0,-43.18241882324219,43.482295989990234,-36.88498306274414
-0.3669642508029938,0.022702226415276527,9.819443702697754,-0.002703768575067792,0.009045504664751694,0.006069760763359559,0.6900150775909424,2019-08-06 13:49:05:349,134.59724593414904,133.12837515058354,0,-43.18241882324219,43.482295989990234,-36.88498306274414
-0.35499051213264465,0.04425497353076935,9.814654350280762,0.0020910919816125757,0.0031851193376401022,0.0028731869722145387,0.7000341415405273,2019-08-06 13:49:05:359,135.46208010516705,134.0594642841199,0,-43.18241882324219,43.482295989990234,-36.88498306274414
-0.31667450070381165,0.041860222816467285,9.874523162841797,0.0004928051185493561,0.005848930613532348,-0.0003233867214026093,0.7100212574005127,2019-08-06 13:49:05:369,136.31282181479662,134.9731408925425,0,-43.18241882324219,43.482295989990234,-36.88498306274414
-0.3502010107040405,0.04425497353076935,9.874523162841797,-0.0011054818095324445,0.0015868324420675922,0.001541281334268416,0.720024585723877,2019-08-06 13:49:05:379,137.14505108561133,135.86916335481322,0,-43.482295989990234,44.381927490234375,-36.58510208129883
-0.3262535035610199,0.03707072511315346,9.795495986938477,-0.0005727194893354142,0.0005213078992014032,-0.004851865987947299,0.7300443649291992,2019-08-06 13:49:05:389,137.9637044586799,136.74776564668528,0,-43.482295989990234,44.381927490234375,-36.58510208129883
-0.32864826917648315,0.029886476695537567,9.848180770874023,-0.002171006319889343,0.005049787230764674,0.0018076624618576407,0.7400166988372803,2019-08-06 13:49:05:399,138.7633760639209,137.610548455372,0,-43.482295989990234,44.381927490234375,-36.58510208129883
-0.32146400213241577,0.07059722393751144,9.814654350280762,-0.004035674213013915,0.0074472173790676955,-0.003519960350001176,0.7500367164611816,2019-08-06 13:49:05:409,139.54639926888748,138.452365570724,0,-43.482295989990234,44.381927490234375,-36.58510208129883
-0.3118850290775299,0.01791272684931755,9.862548828125,-0.0005727194893354142,0.006648073996300022,-0.0003233867214026093,0.7600271701812744,2019-08-06 13:49:05:419,140.3155165546091,139.28155828144006,0,-43.482295989990234,44.381927490234375,-36.58510208129883
-0.3454115092754364,0.03707072511315346,9.848180770874023,-0.002703768575067792,0.011176553685465489,-0.0013889113292873795,0.770028829574585,2019-08-06 13:49:05:429,141.06275460444112,140.0931320713907,0,-43.482295989990234,44.381927490234375,-36.58510208129883
-0.3597800135612488,0.05143922194838524,9.845786094665527,-0.0003063383292368989,0.00718083625147847,0.0023404247170360896,0.7800495624542236,2019-08-06 13:49:05:439,141.79560424548686,140.8854550237939,0,-43.482295989990234,44.381927490234375,-36.58510208129883
-0.32864826917648315,0.0011494798818603158,9.83381175994873,0.0004928051185493561,0.005049787230764674,-0.001655292456876604,0.7900223731994629,2019-08-06 13:49:05:449,142.5185819050531,141.66733601953854,0,-43.482295989990234,44.381927490234375,-36.58510208129883
-0.3861222565174103,0.08257097005844116,9.819443702697754,-0.0024373874474785677,0.0074472173790676955,0.00047575672638364575,0.8000326156616211,2019-08-06 13:49:05:459,143.21898764756827,142.42572359899398,0,-43.482295989990234,44.381927490234375,-36.58510208129883
-0.3334377706050873,0.0538339726626873,9.826627731323242,-0.0019046251923001184,0.006115311741121573,0.001541281334268416,0.8100216388702393,2019-08-06 13:49:05:469,143.9123095551908,143.17199970259716,0,-43.482295989990234,44.381927490234375,-36.58510208129883
-0.3262535035610199,0.03707072511315346,9.807470321655273,-3.9957173202045016e-05,0.006648073996300022,-0.0019216735844658289,0.8200442790985107,2019-08-06 13:49:05:479,144.59221626300862,143.9042508316813,0,-43.482295989990234,44.381927490234375,-36.58510208129883
-0.3717537522315979,0.02509697712957859,9.845786094665527,0.0004928051185493561,0.007713599026805571,0.0012749002066791914,0.8300025463104248,2019-08-06 13:49:05:489,145.25281230053116,144.6229693199585,0,-43.482295989990234,44.381927490234375,-36.58510208129883
-0.3047007620334625,0.056228723376989365,9.831417083740234,0.001824710854023351,0.006115311741121573,-0.003786341477590401,0.8400287628173828,2019-08-06 13:49:05:499,145.90880982267294,145.32292892294495,0,-43.482295989990234,44.381927490234375,-36.58510208129883
-0.3454115092754364,0.020307477563619614,9.7811279296875,0.0026238542367910244,0.006914455123889247,-0.0027208169672335025,0.8500821590423584,2019-08-06 13:49:05:509,146.5462802956343,146.01261005230117,0,-43.18241882324219,44.981685638427734,-37.18486022949219
-0.3262535035610199,0.049044474959373474,9.805074691772461,0.0031566164919694735,0.008512742409573244,-0.0024544358396442778,0.859997034072876,2019-08-06 13:49:05:519,147.17250041668316,146.68486874070993,0,-43.18241882324219,44.981685638427734,-37.18486022949219
-0.32385876774787903,0.06101822108030319,9.82183837890625,-0.002970149702657017,0.005316168358353898,-0.0021880547120550534,0.8700079917907715,2019-08-06 13:49:05:529,147.7882911421914,147.3457220134978,0,-43.18241882324219,44.981685638427734,-37.18486022949219
-0.331043004989624,0.04664972424507141,9.855364799499512,-0.0011054818095324445,0.005848930613532348,-0.004585484860358075,0.880007266998291,2019-08-06 13:49:05:539,148.39076440161438,147.99400417883274,0,-43.18241882324219,44.981685638427734,-37.18486022949219
-0.34301677346229553,0.013123228214681149,9.785917282104492,-0.005101198723370813,0.0047834061031754496,-0.004052722605179625,0.8900034427642822,2019-08-06 13:49:05:549,148.98011397579918,148.63545060746267,0,-43.18241882324219,44.981685638427734,-37.18486022949219
-0.3406220078468323,0.0538339726626873,9.860154151916504,0.0026238542367910244,0.0047834061031754496,-0.001655292456876604,0.9000198841094971,2019-08-06 13:49:05:559,149.55825113937618,149.25500953242366,0,-43.18241882324219,44.981685638427734,-37.18486022949219
-0.30230602622032166,0.04425497353076935,9.881707191467285,-0.002171006319889343,0.006914455123889247,-0.001655292456876604,0.9100086688995361,2019-08-06 13:49:05:569,150.12816253302358,149.86599507229238,0,-43.18241882324219,44.981685638427734,-37.18486022949219
-0.38133275508880615,0.015517977997660637,9.807470321655273,-0.0016382440647108938,0.004517024975586225,-0.00431910373276885,0.9200074672698975,2019-08-06 13:49:05:579,150.67853037893337,150.4677817960671,0,-43.18241882324219,44.981685638427734,-37.18486022949219
-0.3645695149898529,0.034675974398851395,9.82183837890625,-0.003236530830246241,0.004517024975586225,0.00047575672638364575,0.9300308227539062,2019-08-06 13:49:05:589,151.21990267365643,151.05620207706326,0,-43.18241882324219,44.981685638427734,-37.18486022949219
-0.36935901641845703,0.04425497353076935,9.819443702697754,0.001824710854023351,0.005316168358353898,-0.002987198094822727,0.9400203227996826,2019-08-06 13:49:05:599,151.74943935514588,151.62889007900952,0,-43.18241882324219,44.981685638427734,-37.18486022949219
-0.36217474937438965,0.06101822108030319,9.869733810424805,-0.002171006319889343,0.0074472173790676955,-0.0013889113292873795,0.9500033855438232,2019-08-06 13:49:05:609,152.26824496942865,152.19044486046204,0,-43.18241882324219,44.981685638427734,-37.18486022949219
-0.34780627489089966,0.056228723376989365,9.829022407531738,-0.005101198723370813,0.005582549485943123,0.004737855125413436,0.9600234031677246,2019-08-06 13:49:05:619,152.77920715343097,152.7429506645168,0,-43.18241882324219,44.981685638427734,-37.18486022949219
-0.37414851784706116,0.04664972424507141,9.831417083740234,-0.004035674213013915,0.0026523570824616527,-0.006450152753482647,0.97001051902771,2019-08-06 13:49:05:629,153.27854722640666,153.2849174693301,0,-43.18241882324219,43.482295989990234,-37.78461456298828
-0.3525957465171814,0.04664972424507141,9.783522605895996,-0.0024373874474785677,0.006914455123889247,-0.002987198094822727,0.9800100326538086,2019-08-06 13:49:05:639,153.76781336422198,153.81512373779793,0,-43.18241882324219,43.482295989990234,-37.78461456298828
-0.3382272720336914,0.03946547582745552,9.824233055114746,-0.002970149702657017,0.005049787230764674,-0.0024544358396442778,0.9900293350219727,2019-08-06 13:49:05:649,154.25018033517904,154.33588892036389,0,-43.18241882324219,43.482295989990234,-37.78461456298828
-0.34780627489089966,0.07299196720123291,9.862548828125,-0.0013718629371216693,0.0074472173790676955,0.0031395680998037635,1.0000102519989014,2019-08-06 13:49:05:659,154.7206087268448,154.8414592926359,0,-43.18241882324219,43.482295989990234,-37.78461456298828
-0.35499051213264465,0.05143922194838524,9.840996742248535,-0.0011054818095324445,0.006648073996300022,0.0012749002066791914,1.0100152492523193,2019-08-06 13:49:05:669,155.1811435428736,155.33926145861048,0,-43.18241882324219,43.482295989990234,-37.78461456298828
-0.3597800135612488,0.020307477563619614,9.757180213928223,0.0010255674062370958,0.006115311741121573,-0.0019216735844658289,1.0200111865997314,2019-08-06 13:49:05:679,155.6318537047324,155.8295156346425,0,-43.18241882324219,43.482295989990234,-37.78461456298828
-0.34301677346229553,0.07778146862983704,9.807470321655273,-0.0005727194893354142,0.006914455123889247,0.00047575672638364575,1.0300090312957764,2019-08-06 13:49:05:689,156.07527288427602,156.30415895227327,0,-43.18241882324219,43.482295989990234,-37.78461456298828
-0.3645695149898529,0.029886476695537567,9.826627731323242,0.0023574731092018,0.012774840451000838,-0.0032535792224119516,1.0400266647338867,2019-08-06 13:49:05:699,156.50408755395657,156.7732645708759,0,-43.18241882324219,43.482295989990234,-37.78461456298828
-0.35499051213264465,0.03946547582745552,9.876917839050293,0.0007591862786478714,0.006381692868710797,0.003672330354982212,1.05000638961792,2019-08-06 13:49:05:709,156.92926163647235,157.2327951192009,0,-43.18241882324219,43.482295989990234,-37.78461456298828
-0.3190692663192749,0.06580772250890732,9.852970123291016,-0.0011054818095324445,0.0039842627204077765,0.00553699850818111,1.0600154399871826,2019-08-06 13:49:05:719,157.3513419373601,157.68110707951686,0,-43.18241882324219,43.482295989990234,-37.78461456298828
-0.33583250641822815,0.03707072511315346,9.836206436157227,-0.0011054818095324445,0.006648073996300022,0.00047575672638364575,1.0700125694274902,2019-08-06 13:49:05:729,157.76147407456824,158.12378677651628,0,-43.18241882324219,43.482295989990234,-37.78461456298828
-0.3502010107040405,0.03946547582745552,9.89128589630127,-0.0024373874474785677,0.006381692868710797,-0.001655292456876604,1.0800082683563232,2019-08-06 13:49:05:739,158.1621086164949,158.55810695059313,0,-43.18241882324219,43.482295989990234,-37.78461456298828
-0.3597800135612488,0.049044474959373474,9.807470321655273,-0.002703768575067792,0.004517024975586225,-0.0003233867214026093,1.0900428295135498,2019-08-06 13:49:05:749,158.55430312533974,158.98273785841693,0,-43.18241882324219,43.482295989990234,-37.78461456298828
-0.3406220078468323,0.013123228214681149,9.79310131072998,-0.002970149702657017,0.0039842627204077765,0.00020937558253977584,1.100024938583374,2019-08-06 13:49:05:759,158.94114292432846,159.40321227127652,0,-43.78217315673828,44.68180847167969,-37.18486022949219
-0.3118850290775299,0.03707072511315346,9.819443702697754,-0.0011054818095324445,0.0026523570824616527,-0.0013889113292873795,1.1100175380706787,2019-08-06 13:49:05:769,159.32444755050767,159.8114422108722,0,-43.78217315673828,44.68180847167969,-37.18486022949219
-0.331043004989624,0.027491725981235504,9.80986499786377,0.0015583297264341264,0.003717881592818551,-0.001122530201698155,1.1200087070465088,2019-08-06 13:49:05:779,159.69721754071037,160.21112776845408,0,-43.78217315673828,44.68180847167969,-37.18486022949219
-0.2927270233631134,0.07299196720123291,9.829022407531738,-0.004035674213013915,0.005582549485943123,0.0028731869722145387,1.130009651184082,2019-08-06 13:49:05:789,160.06602083396703,160.60066184786916,0,-43.78217315673828,44.68180847167969,-37.18486022949219
-0.3142797648906708,0.06101822108030319,9.829022407531738,-0.005367579850960038,0.009311885272192268,-0.002987198094822727,1.1400303840637207,2019-08-06 13:49:05:799,160.42283317023848,160.9845550365605,0,-43.78217315673828,44.68180847167969,-37.18486022949219
-0.31667450070381165,0.06101822108030319,9.862548828125,-0.005101198723370813,0.008512742409573244,-0.0027208169672335025,1.1500074863433838,2019-08-06 13:49:05:809,160.7728262330884,161.36063216304427,0,-43.78217315673828,44.68180847167969,-37.18486022949219
-0.33583250641822815,0.029886476695537567,9.898469924926758,0.002890235364380249,0.005316168358353898,0.0010085190140713856,1.1600110530853271,2019-08-06 13:49:05:819,161.11552022745357,161.7283362222355,0,-43.78217315673828,44.68180847167969,-37.18486022949219
-0.3382272720336914,0.029886476695537567,9.814654350280762,0.0004928051185493561,0.0031851193376401022,0.006336141890948784,1.1700174808502197,2019-08-06 13:49:05:829,161.451945935795,162.0900032086054,0,-43.78217315673828,44.68180847167969,-37.18486022949219
-0.34301677346229553,0.041860222816467285,9.845786094665527,-0.0024373874474785677,0.005582549485943123,-0.002987198094822727,1.180009365081787,2019-08-06 13:49:05:839,161.7798686202409,162.44469869220666,0,-43.78217315673828,44.68180847167969,-37.18486022949219
-0.3573852479457855,0.013123228214681149,9.819443702697754,-0.0005727194893354142,0.004250643847997001,0.0012749002066791914,1.1900122165679932,2019-08-06 13:49:05:849,162.10019586981656,162.79459492948257,0,-43.78217315673828,44.68180847167969,-37.18486022949219
-0.37414851784706116,0.034675974398851395,9.89128589630127,-0.0008391006169246387,0.006648073996300022,-0.006450152753482647,1.200021505355835,2019-08-06 13:49:05:859,162.41113076731042,163.13515739174053,0,-43.78217315673828,44.68180847167969,-37.18486022949219
-0.3382272720336914,0.056228723376989365,9.80986499786377,-0.004568436468192365,0.00718083625147847,-0.002987198094822727,1.2100157737731934,2019-08-06 13:49:05:869,162.71938487899553,163.46844979448335,0,-43.78217315673828,44.68180847167969,-37.18486022949219
-0.3454115092754364,0.022702226415276527,9.884101867675781,-0.0013718629371216693,0.008779123017013819,-0.0005897678815011245,1.2200076580047607,2019-08-06 13:49:05:879,163.02004264447513,163.79721848947253,0,-43.93211364746094,44.53186798095703,-36.43516540527344
-0.3070955276489258,0.05862347409129143,9.82183837890625,-0.0024373874474785677,0.003717881592818551,-0.0021880547120550534,1.2300083637237549,2019-08-06 13:49:05:889,163.3217368388383,164.11580327631285,0,-43.93211364746094,44.53186798095703,-36.43516540527344
-0.29751652479171753,0.06341297179460526,9.831417083740234,-3.9957173202045016e-05,0.005582549485943123,0.0020740435894468653,1.2400250434875488,2019-08-06 13:49:05:899,163.61749537392353,164.4261185923956,0,-43.93211364746094,44.53186798095703,-36.43516540527344
-0.3454115092754364,0.06580772250890732,9.862548828125,-0.0019046251923001184,0.0005213078992014032,0.0020740435894468653,1.2500090599060059,2019-08-06 13:49:05:909,163.90473674285386,164.7310179629734,0,-43.93211364746094,44.53186798095703,-36.43516540527344
-0.36217474937438965,0.06820247322320938,9.845786094665527,-0.002171006319889343,0.005848930613532348,0.0012749002066791914,1.2600069046020508,2019-08-06 13:49:05:919,164.18122533119563,165.0296786447625,0,-43.93211364746094,44.53186798095703,-36.43516540527344
-0.3573852479457855,0.049044474959373474,9.898469924926758,-0.005101198723370813,0.005316168358353898,-0.005118247115536523,1.2700185775756836,2019-08-06 13:49:05:929,164.4532568854903,165.32627504910775,0,-43.93211364746094,44.53186798095703,-36.43516540527344
-0.3645695149898529,0.027491725981235504,9.82183837890625,-0.0003063383292368989,0.009578266919930143,0.00047575672638364575,1.2800092697143555,2019-08-06 13:49:05:939,164.7163036992159,165.61671394050677,0,-43.93211364746094,44.53186798095703,-36.43516540527344
-0.3502010107040405,0.022702226415276527,9.860154151916504,0.0012919485988449018,0.007979980154394795,-0.005118247115536523,1.2899997234344482,2019-08-06 13:49:05:949,164.976819013201,165.90101655132233,0,-43.93211364746094,44.53186798095703,-36.43516540527344
-0.3382272720336914,0.013123228214681149,9.879312515258789,-0.006433104361316936,0.005049787230764674,0.003938711482571438,1.300023078918457,2019-08-06 13:49:05:959,165.23522441379143,166.18509465494336,0,-43.93211364746094,44.53186798095703,-36.43516540527344
-0.3669642508029938,0.05143922194838524,9.860154151916504,0.0012919485988449018,0.009045504664751694,-0.005118247115536523,1.3100090026855469,2019-08-06 13:49:05:969,165.4828202982886,166.45469030791352,0,-43.93211364746094,44.53186798095703,-36.43516540527344
-0.3525957465171814,0.07299196720123291,9.85057544708252,0.0020910919816125757,0.0034515004652293266,0.003405949227392988,1.3200087547302246,2019-08-06 13:49:05:979,165.73022603491685,166.7159313991439,0,-43.93211364746094,44.53186798095703,-36.43516540527344
-0.3334377706050873,0.0538339726626873,9.896075248718262,-0.0008391006169246387,0.004250643847997001,-0.00431910373276885,1.3301587104797363,2019-08-06 13:49:05:989,165.97460318265277,166.97585734927478,0,-43.93211364746094,44.53186798095703,-36.43516540527344
-0.3525957465171814,0.056228723376989365,9.8721284866333,-0.002970149702657017,0.0026523570824616527,-0.000856149009090349,1.34002685546875,2019-08-06 13:49:05:999,166.21273100427018,167.2314592217564,0,-43.93211364746094,44.53186798095703,-36.43516540527344
-0.3262535035610199,0.02509697712957859,9.826627731323242,-0.0008391006169246387,0.0047834061031754496,-0.000856149009090349,1.350017786026001,2019-08-06 13:49:06:009,166.4477614130092,167.4843741286436,0,-42.58266067504883,44.68180847167969,-36.88498306274414
-0.2999112606048584,0.03946547582745552,9.778733253479004,-0.0016382440647108938,0.006914455123889247,-0.00431910373276885,1.3600308895111084,2019-08-06 13:49:06:019,166.67978471395344,167.7309830078137,0,-42.58266067504883,44.68180847167969,-36.88498306274414
-0.27596378326416016,0.06820247322320938,9.824233055114746,-0.005101198723370813,0.006381692868710797,-5.7005565367755386e-05,1.3700063228607178,2019-08-06 13:49:06:029,166.9104340785411,167.97126550011185,0,-42.58266067504883,44.68180847167969,-36.88498306274414
-0.3454115092754364,0.06341297179460526,9.829022407531738,0.0004928051185493561,0.009311885272192268,-0.0003233867214026093,1.3800067901611328,2019-08-06 13:49:06:039,167.12674334052213,168.20417057539817,0,-42.58266067504883,44.68180847167969,-36.88498306274414
-0.32146400213241577,0.06580772250890732,9.848180770874023,0.0010255674062370958,0.0074472173790676955,0.00020937558253977584,1.390021562576294,2019-08-06 13:49:06:049,167.34262903043575,168.43185331100688,0,-42.58266067504883,44.68180847167969,-36.88498306274414
-0.3597800135612488,0.04425497353076935,9.817049026489258,-0.004035674213013915,0.0039842627204077765,-0.0024544358396442778,1.4000091552734375,2019-08-06 13:49:06:059,167.55156477917114,168.66031373944014,0,-42.58266067504883,44.68180847167969,-36.88498306274414
-0.34780627489089966,0.05143922194838524,9.840996742248535,-0.002171006319889343,0.0007876890592999184,0.001541281334268416,1.4100098609924316,2019-08-06 13:49:06:069,167.75960839564593,168.88233688287684,0,-42.58266067504883,44.68180847167969,-36.88498306274414
-0.3382272720336914,-0.01800851710140705,9.843391418457031,-0.0019046251923001184,0.0023859759548724283,0.0012749002066791914,1.4200241565704346,2019-08-06 13:49:06:079,167.96371544450554,161.90785757252272,0,-42.58266067504883,44.68180847167969,-36.88498306274414
-0.3190692663192749,0.07299196720123291,9.85057544708252,-0.003236530830246241,0.005848930613532348,0.00047575672638364575,1.4300155639648438,2019-08-06 13:49:06:089,168.16405549584616,162.2630251807657,0,-42.58266067504883,44.68180847167969,-36.88498306274414
-0.3645695149898529,-0.015613768249750137,9.82183837890625,0.0034229976195586987,0.006381692868710797,0.00020937558253977584,1.4400107860565186,2019-08-06 13:49:06:099,168.35467791547921,155.4176652464831,0,-42.58266067504883,44.68180847167969,-36.88498306274414
-0.3070955276489258,0.01072847843170166,9.857759475708008,0.0004928051185493561,0.0074472173790676955,-0.0019216735844658289,1.4500079154968262,2019-08-06 13:49:06:109,168.54771716645277,155.90778817972813,0,-42.58266067504883,44.68180847167969,-36.88498306274414
-0.3645695149898529,0.07059722393751144,9.812259674072266,-0.002171006319889343,0.005582549485943123,-5.7005565367755386e-05,1.4600255489349365,2019-08-06 13:49:06:119,168.73106636636953,156.3826090941076,0,-42.58266067504883,44.68180847167969,-36.88498306274414
-0.32385876774787903,0.03707072511315346,9.836206436157227,-0.002703768575067792,0.006648073996300022,0.00047575672638364575,1.470008373260498,2019-08-06 13:49:06:129,168.9150027254518,156.85215375729618,0,-43.03247833251953,44.231990814208984,-36.43516540527344
-0.3382272720336914,0.02509697712957859,9.795495986938477,-0.005101198723370813,0.00824636128198402,0.0031395680998037635,1.480017900466919,2019-08-06 13:49:06:139,169.0925164976058,157.31504179066147,0,-43.03247833251953,44.231990814208984,-36.43516540527344
-0.3262535035610199,0.01791272684931755,9.840996742248535,-0.0008391006169246387,0.006115311741121573,-0.001655292456876604,1.490009069442749,2019-08-06 13:49:06:149,169.26925941950046,157.76712588253665,0,-43.03247833251953,44.231990814208984,-36.43516540527344
-0.35499051213264465,0.01791272684931755,9.773942947387695,0.0010255674062370958,0.012774840451000838,0.003672330354982212,1.5000054836273193,2019-08-06 13:49:06:159,169.43510227386668,158.20910759698918,0,-43.03247833251953,44.231990814208984,-36.43516540527344
-0.3525957465171814,0.05143922194838524,9.819443702697754,-0.0008391006169246387,-0.0016097412190402653,0.0023404247170360896,1.5100271701812744,2019-08-06 13:49:06:169,169.6061762880474,158.639394789049,0,-43.03247833251953,44.231990814208984,-36.43516540527344
-0.3525957465171814,0.04664972424507141,9.807470321655273,-0.0005727194893354142,0.004517024975586225,-0.006982915528809746,1.5200178623199463,2019-08-06 13:49:06:179,169.7703388818478,159.06147761131308,0,-43.03247833251953,44.231990814208984,-36.43516540527344
-0.3382272720336914,0.034675974398851395,9.802680015563965,-0.0005727194893354142,0.004517024975586225,-0.003786341477590401,1.5300192832946777,2019-08-06 13:49:06:189,169.93287296196195,159.47651614412143,0,-43.03247833251953,44.231990814208984,-36.43516540527344
-0.3047007620334625,0.03228122740983963,9.840996742248535,-0.0019046251923001184,0.005316168358353898,-0.0027208169672335025,1.5400094985961914,2019-08-06 13:49:06:199,170.09576445019192,159.88429530845872,0,-43.03247833251953,44.231990814208984,-36.43516540527344
-0.3669642508029938,0.013123228214681149,9.785917282104492,-0.0037692930854246903,0.005848930613532348,-0.0032535792224119516,1.5500061511993408,2019-08-06 13:49:06:209,170.24761527960914,160.28718843821358,0,-43.03247833251953,44.231990814208984,-36.43516540527344
-0.3334377706050873,0.049044474959373474,9.747601509094238,-0.002970149702657017,0.003717881592818551,-0.004585484860358075,1.5600216388702393,2019-08-06 13:49:06:219,170.40138891510412,160.6773494301816,0,-43.03247833251953,44.231990814208984,-36.43516540527344
-0.3597800135612488,0.06341297179460526,9.860154151916504,0.0004928051185493561,0.006648073996300022,-0.0021880547120550534,1.5700058937072754,2019-08-06 13:49:06:229,170.54784018840348,161.0561566166248,0,-43.03247833251953,44.231990814208984,-36.43516540527344
-0.3502010107040405,0.03707072511315346,9.90086555480957,0.0002264239747054862,0.004250643847997001,0.0020740435894468653,1.5801053047180176,2019-08-06 13:49:06:239,170.69395792706504,161.43061457763156,0,-43.03247833251953,44.231990814208984,-36.43516540527344
-0.35499051213264465,0.03707072511315346,9.838602066040039,-0.0011054818095324445,0.009045504664751694,-0.0003233867214026093,1.590003490447998,2019-08-06 13:49:06:249,170.83372313432787,161.79829903453535,0,-43.03247833251953,44.231990814208984,-36.43516540527344
-0.3262535035610199,0.056228723376989365,9.797890663146973,-0.002171006319889343,0.006648073996300022,-0.0005897678815011245,1.6000051498413086,2019-08-06 13:49:06:259,170.97517217294535,162.15697609620517,0,-42.13284683227539,43.93211364746094,-37.03491973876953
-0.31667450070381165,0.04425497353076935,9.769153594970703,-3.9957173202045016e-05,0.010910172037727614,0.0007421378864821609,1.6100058555603027,2019-08-06 13:49:06:269,171.11240953254577,162.50866796663004,0,-42.13284683227539,43.93211364746094,-37.03491973876953
-0.3118850290775299,0.041860222816467285,9.783522605895996,-0.005367579850960038,0.006648073996300022,0.0007421378864821609,1.6200306415557861,2019-08-06 13:49:06:279,171.2499013843677,162.85661302989078,0,-42.13284683227539,43.93211364746094,-37.03491973876953
-0.34780627489089966,0.03707072511315346,9.845786094665527,-0.002970149702657017,0.009045504664751694,0.003672330354982212,1.630007266998291,2019-08-06 13:49:06:289,171.3793730956934,163.19683009823086,0,-42.13284683227539,43.93211364746094,-37.03491973876953
-0.3525957465171814,0.06101822108030319,9.80986499786377,-0.002171006319889343,0.0074472173790676955,-0.0024544358396442778,1.6400198936462402,2019-08-06 13:49:06:299,171.50642885731924,163.52698644896782,0,-42.13284683227539,43.93211364746094,-37.03491973876953
-0.3382272720336914,0.034675974398851395,9.848180770874023,-0.0003063383292368989,0.008779123017013819,-5.7005565367755386e-05,1.6500115394592285,2019-08-06 13:49:06:309,171.63203491298836,163.85258377106655,0,-42.13284683227539,43.93211364746094,-37.03491973876953
-0.3262535035610199,0.04425497353076935,9.826627731323242,0.002890235364380249,0.00718083625147847,-0.0003233867214026093,1.6600079536437988,2019-08-06 13:49:06:319,171.7573320996587,164.1687491302726,0,-42.13284683227539,43.93211364746094,-37.03491973876953
-0.34301677346229553,0.02509697712957859,9.829022407531738,0.0002264239747054862,0.006381692868710797,-0.0024544358396442778,1.6700232028961182,2019-08-06 13:49:06:329,171.8786223283652,164.48232089483986,0,-42.13284683227539,43.93211364746094,-37.03491973876953
-0.32385876774787903,0.0538339726626873,9.82183837890625,-0.003502911957835466,0.009045504664751694,-0.0003233867214026093,1.6800107955932617,2019-08-06 13:49:06:339,171.99820617099763,164.78835816082307,0,-42.13284683227539,43.93211364746094,-37.03491973876953
-0.3334377706050873,0.01791272684931755,9.855364799499512,-0.002171006319889343,0.00718083625147847,0.00020937558253977584,1.6900174617767334,2019-08-06 13:49:06:349,172.1154522096196,165.09172805811014,0,-42.13284683227539,43.93211364746094,-37.03491973876953
-0.3334377706050873,0.015517977997660637,9.824233055114746,-0.0061667232337277115,0.008512742409573244,0.0010085190140713856,1.7000064849853516,2019-08-06 13:49:06:359,172.2294906826143,165.39154226044639,0,-42.13284683227539,43.93211364746094,-37.03491973876953
-0.3118850290775299,0.049044474959373474,9.852970123291016,0.0015583297264341264,0.008512742409573244,-5.7005565367755386e-05,1.7100112438201904,2019-08-06 13:49:06:369,172.34385809954415,165.67713209800323,0,-42.13284683227539,43.93211364746094,-37.03491973876953
-0.3597800135612488,0.049044474959373474,9.85057544708252,-0.0008391006169246387,0.006648073996300022,0.0018076624618576407,1.7200241088867188,2019-08-06 13:49:06:379,172.45140870491878,165.95835592862886,0,-44.83174514770508,44.231990814208984,-36.43516540527344
-0.3382272720336914,0.0538339726626873,9.812259674072266,-0.0008391006169246387,0.0074472173790676955,0.0018076624618576407,1.730010986328125,2019-08-06 13:49:06:389,172.55872049230305,166.23337245845042,0,-44.83174514770508,44.231990814208984,-36.43516540527344
-0.3525957465171814,0.0538339726626873,9.881707191467285,0.0004928051185493561,0.006914455123889247,-0.0013889113292873795,1.7400059700012207,2019-08-06 13:49:06:399,172.66279473832756,166.5021857341512,0,-44.83174514770508,44.231990814208984,-36.43516540527344
-0.3573852479457855,0.05862347409129143,9.857759475708008,-0.0016382440647108938,0.0034515004652293266,-0.002987198094822727,1.7500202655792236,2019-08-06 13:49:06:409,172.7660719869055,166.76624859885794,0,-44.83174514770508,44.231990814208984,-36.43516540527344
-0.34301677346229553,0.06341297179460526,9.761969566345215,-0.0037692930854246903,0.006381692868710797,-0.0003233867214026093,1.760010004043579,2019-08-06 13:49:06:419,172.86692220905746,167.02559423689328,0,-44.83174514770508,44.231990814208984,-36.43516540527344
-0.31667450070381165,0.020307477563619614,9.814654350280762,-3.9957173202045016e-05,0.005316168358353898,0.0012749002066791914,1.7700095176696777,2019-08-06 13:49:06:429,172.96963819859977,167.28273377917156,0,-44.83174514770508,44.231990814208984,-36.43516540527344
-0.3597800135612488,0.06101822108030319,9.826627731323242,-0.0016382440647108938,0.004517024975586225,0.0020740435894468653,1.7800278663635254,2019-08-06 13:49:06:439,173.06576807086665,167.53088521793876,0,-44.83174514770508,44.231990814208984,-36.43516540527344
-0.3406220078468323,0.034675974398851395,9.7715482711792,0.0031566164919694735,0.0047834061031754496,-5.7005565367755386e-05,1.7900092601776123,2019-08-06 13:49:06:449,173.16184304197097,167.77443191936038,0,-44.83174514770508,44.231990814208984,-36.43516540527344
-0.34780627489089966,0.02509697712957859,9.79310131072998,0.0004928051185493561,0.005848930613532348,-0.0005897678815011245,1.8000168800354004,2019-08-06 13:49:06:459,173.2546389172021,168.0157297062854,0,-44.83174514770508,44.231990814208984,-36.43516540527344
-0.3573852479457855,0.029886476695537567,9.864943504333496,-0.002703768575067792,0.005848930613532348,-0.00431910373276885,1.8100721836090088,2019-08-06 13:49:06:469,173.34474795075633,168.25347005663465,0,-44.83174514770508,44.231990814208984,-36.43516540527344
-0.32146400213241577,0.03228122740983963,9.826627731323242,0.0010255674062370958,0.007713599026805571,-0.001655292456876604,1.8200249671936035,2019-08-06 13:49:06:479,173.43606864915466,168.48406311252637,0,-44.83174514770508,44.231990814208984,-36.43516540527344
-0.3645695149898529,0.029886476695537567,9.831417083740234,0.0023574731092018,0.0029187382100508774,0.0012749002066791914,1.830024242401123,2019-08-06 13:49:06:489,173.5232350408593,168.70957477580845,0,-44.83174514770508,44.231990814208984,-36.43516540527344
-0.3573852479457855,0.015517977997660637,9.879312515258789,-0.003236530830246241,0.009844647527370716,-5.7005565367755386e-05,1.8400168418884277,2019-08-06 13:49:06:499,173.60581111697581,168.93539929206352,0,-44.83174514770508,44.231990814208984,-36.43516540527344
-0.376543253660202,0.01791272684931755,9.807470321655273,0.0004928051185493561,0.007979980154394795,-5.7005565367755386e-05,1.8500123023986816,2019-08-06 13:49:06:509,173.6852420522555,169.15432178210432,0,-42.732601165771484,43.93211364746094,-37.33479690551758
-0.31667450070381165,0.04664972424507141,9.843391418457031,-0.0037692930854246903,0.005582549485943123,-0.0003233867214026093,1.8600099086761475,2019-08-06 13:49:06:519,173.7715505070065,169.36792061916242,0,-42.732601165771484,43.93211364746094,-37.33479690551758
-0.37414851784706116,0.06101822108030319,9.814654350280762,-0.0011054818095324445,0.005316168358353898,-0.00431910373276885,1.870027780532837,2019-08-06 13:49:06:529,173.84946635895278,169.5740599170982,0,-42.732601165771484,43.93211364746094,-37.33479690551758
-0.3717537522315979,0.08257097005844116,9.759574890136719,0.0004928051185493561,0.00718083625147847,-0.0005897678815011245,1.8800082206726074,2019-08-06 13:49:06:539,173.92482470068336,169.77260775287533,0,-42.732601165771484,43.93211364746094,-37.33479690551758
-0.34780627489089966,0.07538671791553497,9.807470321655273,-0.002703768575067792,0.005049787230764674,-0.0032535792224119516,1.8900132179260254,2019-08-06 13:49:06:549,174.00287029774765,169.96986642551633,0,-42.732601165771484,43.93211364746094,-37.33479690551758
-0.33583250641822815,0.02509697712957859,9.840996742248535,-0.004568436468192365,0.008779123017013819,-0.000856149009090349,1.90004301071167,2019-08-06 13:49:06:559,174.07877855126284,170.17011954821544,0,-42.732601165771484,43.93211364746094,-37.33479690551758
-0.3645695149898529,0.05143922194838524,9.824233055114746,-0.0008391006169246387,0.007979980154394795,-0.001122530201698155,1.9100086688995361,2019-08-06 13:49:06:569,174.15023310285852,170.36118678780326,0,-42.732601165771484,43.93211364746094,-37.33479690551758
-0.3118850290775299,0.020307477563619614,9.860154151916504,0.0004928051185493561,0.007979980154394795,-0.0005897678815011245,1.9200105667114258,2019-08-06 13:49:06:579,174.2265126425436,170.55132622335182,0,-42.732601165771484,43.93211364746094,-37.33479690551758
-0.31667450070381165,0.06101822108030319,9.824233055114746,0.0023574731092018,0.010111029175108591,-0.002987198094822727,1.9300270080566406,2019-08-06 13:49:06:589,174.29937104812865,170.73185662490528,0,-42.732601165771484,43.93211364746094,-37.33479690551758
-0.36217474937438965,0.05862347409129143,9.831417083740234,0.0010255674062370958,0.006381692868710797,-0.0013889113292873795,1.9400064945220947,2019-08-06 13:49:06:599,174.36761292410063,170.90981195286102,0,-42.732601165771484,43.93211364746094,-37.33479690551758
-0.28314802050590515,-0.003640019567683339,9.840996742248535,-0.003236530830246241,0.010910172037727614,0.0010085190140713856,1.9500181674957275,2019-08-06 13:49:06:609,174.44116594496396,163.8938589977288,0,-42.732601165771484,43.93211364746094,-37.33479690551758
-0.3142797648906708,0.029886476695537567,9.867338180541992,0.0015583297264341264,0.007979980154394795,-0.0019216735844658289,1.9600071907043457,2019-08-06 13:49:06:619,174.51138113354108,164.21163700685238,0,-42.732601165771484,43.93211364746094,-37.33479690551758
-0.29751652479171753,0.041860222816467285,9.812259674072266,-0.004035674213013915,0.007713599026805571,-0.0032535792224119516,1.9700078964233398,2019-08-06 13:49:06:629,174.5820874819906,164.5247818748068,0,-44.381927490234375,44.08205032348633,-37.18486022949219
-0.3118850290775299,0.005938979331403971,9.82183837890625,-0.004035674213013915,0.005848930613532348,-0.0013889113292873795,1.9800262451171875,2019-08-06 13:49:06:639,174.65078008211145,164.8358635190845,0,-44.381927490234375,44.08205032348633,-37.18486022949219
-0.331043004989624,0.01072847843170166,9.800285339355469,0.0020910919816125757,0.0039842627204077765,0.0012749002066791914,1.9900074005126953,2019-08-06 13:49:06:649,174.71683846492812,165.136719870333,0,-44.381927490234375,44.08205032348633,-37.18486022949219
-0.3525957465171814,0.041860222816467285,9.819443702697754,0.0004928051185493561,0.0005213078992014032,-5.7005565367755386e-05,2.0000202655792236,2019-08-06 13:49:06:659,174.78107883735237,165.42882340663056,0,-44.381927490234375,44.08205032348633,-37.18486022949219
-0.33583250641822815,0.03707072511315346,9.836206436157227,-0.0019046251923001184,0.009844647527370716,0.004205092610160662,2.010010004043579,2019-08-06 13:49:06:669,174.8408259656527,165.7169965757787,0,-44.381927490234375,44.08205032348633,-37.18486022949219
-0.3645695149898529,0.05143922194838524,9.876917839050293,-0.0019046251923001184,0.01064379143028704,-0.0024544358396442778,2.020007610321045,2019-08-06 13:49:06:679,174.8957564039215,165.99775793115353,0,-44.381927490234375,44.08205032348633,-37.18486022949219
-0.36217474937438965,0.013123228214681149,9.79310131072998,0.001824710854023351,0.0047834061031754496,-0.0013889113292873795,2.030024528503418,2019-08-06 13:49:06:689,174.95279117596112,166.27524088522287,0,-44.381927490234375,44.08205032348633,-37.18486022949219
-0.34780627489089966,0.04664972424507141,9.79310131072998,0.0002264239747054862,0.006381692868710797,-0.005118247115536523,2.0400078296661377,2019-08-06 13:49:06:699,175.00947742943353,166.54415058195767,0,-44.381927490234375,44.08205032348633,-37.18486022949219
-0.3933064937591553,0.04664972424507141,9.807470321655273,-0.004035674213013915,0.0074472173790676955,-0.0019216735844658289,2.050006628036499,2019-08-06 13:49:06:709,175.0591770300641,166.81008275975964,0,-44.381927490234375,44.08205032348633,-37.18486022949219
-0.34780627489089966,0.03228122740983963,9.876917839050293,-0.003502911957835466,0.006115311741121573,-5.7005565367755386e-05,2.060021162033081,2019-08-06 13:49:06:719,175.11421909814655,167.07210560329452,0,-44.381927490234375,44.08205032348633,-37.18486022949219
-0.35499051213264465,-0.0012452697847038507,9.812259674072266,0.0023574731092018,0.005049787230764674,-5.7005565367755386e-05,2.070016384124756,2019-08-06 13:49:06:729,175.16766145969814,160.12948583341515,0,-44.381927490234375,44.08205032348633,-37.18486022949219
-0.3597800135612488,0.0538339726626873,9.805074691772461,-0.0013718629371216693,0.003717881592818551,-0.0032535792224119516,2.0800116062164307,2019-08-06 13:49:06:739,175.22019313586074,160.52137455386605,0,-44.381927490234375,44.08205032348633,-37.18486022949219
-0.3573852479457855,0.041860222816467285,9.79310131072998,-0.003502911957835466,0.007979980154394795,-0.0005897678815011245,2.0900299549102783,2019-08-06 13:49:06:749,175.26950030000256,160.90801941118247,0,-44.381927490234375,44.08205032348633,-37.18486022949219
-0.36935901641845703,0.09454471617937088,9.773942947387695,-0.0019046251923001184,0.006648073996300022,-0.0027208169672335025,2.100010395050049,2019-08-06 13:49:06:759,175.31710095667535,161.27984211963928,0,-41.38315200805664,44.381927490234375,-38.08449172973633
-0.33583250641822815,0.05143922194838524,9.82183837890625,-0.003502911957835466,0.0034515004652293266,-0.0003233867214026093,2.109998941421509,2019-08-06 13:49:06:769,175.36965676625005,161.65020853665925,0,-41.38315200805664,44.381927490234375,-38.08449172973633
-0.34301677346229553,0.05862347409129143,9.788311958312988,0.0004928051185493561,0.006914455123889247,0.0010085190140713856,2.1199898719787598,2019-08-06 13:49:06:779,175.41824422064056,162.01006495194875,0,-41.38315200805664,44.381927490234375,-38.08449172973633
-0.38133275508880615,0.07059722393751144,9.802680015563965,-0.002703768575067792,0.007979980154394795,0.0018076624618576407,2.129998207092285,2019-08-06 13:49:06:789,175.46084020854096,162.3631305353852,0,-41.38315200805664,44.381927490234375,-38.08449172973633
-0.3573852479457855,0.034675974398851395,9.857759475708008,-0.002970149702657017,0.007979980154394795,-0.001655292456876604,2.140005111694336,2019-08-06 13:49:06:799,175.50561348925456,162.71350591798418,0,-41.38315200805664,44.381927490234375,-38.08449172973633
-0.3334377706050873,0.05143922194838524,9.829022407531738,-0.005900342106138487,0.005848930613532348,-0.0005897678815011245,2.149986505508423,2019-08-06 13:49:06:809,175.55336425648795,163.0565456876195,0,-41.38315200805664,44.381927490234375,-38.08449172973633
-0.3070955276489258,0.03228122740983963,9.773942947387695,-0.004035674213013915,0.006914455123889247,-0.001122530201698155,2.160135269165039,2019-08-06 13:49:06:819,175.60236413675065,163.39392981116666,0,-41.38315200805664,44.381927490234375,-38.08449172973633
-0.3502010107040405,0.04425497353076935,9.860154151916504,0.0023574731092018,0.0007876890592999184,-0.0003233867214026093,2.170008897781372,2019-08-06 13:49:06:829,175.64919801543405,163.71960108801247,0,-41.38315200805664,44.381927490234375,-38.08449172973633
-0.34301677346229553,0.05862347409129143,9.805074691772461,0.0034229976195586987,0.00718083625147847,0.003938711482571438,2.1801223754882812,2019-08-06 13:49:06:839,175.69206436456344,164.0364140243145,0,-41.38315200805664,44.381927490234375,-38.08449172973633
-0.32864826917648315,0.05862347409129143,9.90086555480957,-0.0024373874474785677,0.0034515004652293266,-0.0003233867214026093,2.190030574798584,2019-08-06 13:49:06:849,175.73827941744423,164.35025683091183,0,-41.38315200805664,44.381927490234375,-38.08449172973633
-0.3525957465171814,0.03228122740983963,9.874523162841797,-0.0013718629371216693,0.0005213078992014032,-5.7005565367755386e-05,2.2001447677612305,2019-08-06 13:49:06:859,175.78231722869182,164.66028464125586,0,-41.38315200805664,44.381927490234375,-38.08449172973633
-0.3262535035610199,0.05143922194838524,9.802680015563965,0.001824710854023351,0.005582549485943123,-0.004052722605179625,2.2099976539611816,2019-08-06 13:49:06:869,175.8254580316125,164.9600563516916,0,-41.38315200805664,44.381927490234375,-38.08449172973633
-0.3142797648906708,0.041860222816467285,9.805074691772461,-0.002703768575067792,0.008779123017013819,-0.003786341477590401,2.2201099395751953,2019-08-06 13:49:06:879,175.86724686097804,165.25749827418963,0,-43.18241882324219,43.482295989990234,-37.18486022949219
-0.3406220078468323,0.020307477563619614,9.824233055114746,-0.005900342106138487,0.0026523570824616527,-0.001122530201698155,2.2300331592559814,2019-08-06 13:49:06:889,175.9087092305975,165.55326720914184,0,-43.18241882324219,43.482295989990234,-37.18486022949219
-0.33583250641822815,0.022702226415276527,9.785917282104492,0.0004928051185493561,0.0031851193376401022,-0.0027208169672335025,2.2401487827301025,2019-08-06 13:49:06:899,175.9494158938525,165.8392635657498,0,-43.18241882324219,43.482295989990234,-37.18486022949219
-0.38133275508880615,0.05862347409129143,9.766758918762207,-0.0019046251923001184,0.004517024975586225,0.00047575672638364575,2.25000262260437,2019-08-06 13:49:06:909,175.98320999708938,166.11665400770565,0,-43.18241882324219,43.482295989990234,-37.18486022949219
-0.31667450070381165,0.029886476695537567,9.83381175994873,-0.0019046251923001184,0.007979980154394795,0.0031395680998037635,2.260199785232544,2019-08-06 13:49:06:919,176.02208796932635,166.39192885325264,0,-43.18241882324219,43.482295989990234,-37.18486022949219
-0.3454115092754364,0.022702226415276527,9.838602066040039,-0.0003063383292368989,0.005049787230764674,-0.0005897678815011245,2.2700345516204834,2019-08-06 13:49:06:929,176.0586435728023,166.66161528756624,0,-43.18241882324219,43.482295989990234,-37.18486022949219
-0.3382272720336914,0.056228723376989365,9.879312515258789,0.0004928051185493561,0.0039842627204077765,0.00020937558253977584,2.2799952030181885,2019-08-06 13:49:06:939,176.09602619799531,166.92158538159228,0,-43.18241882324219,43.482295989990234,-37.18486022949219
-0.3502010107040405,0.01072847843170166,9.819443702697754,-0.003236530830246241,0.0074472173790676955,-0.001655292456876604,2.290003776550293,2019-08-06 13:49:06:949,176.12906982342398,167.18372054149586,0,-43.18241882324219,43.482295989990234,-37.18486022949219
-0.3382272720336914,0.0538339726626873,9.807470321655273,-3.9957173202045016e-05,0.0023859759548724283,0.0007421378864821609,2.300020217895508,2019-08-06 13:49:06:959,176.16564331239545,167.4337786462068,0,-43.18241882324219,43.482295989990234,-37.18486022949219
-0.3190692663192749,0.04425497353076935,9.874523162841797,-0.0037692930854246903,0.00824636128198402,-0.0021880547120550534,2.309994697570801,2019-08-06 13:49:06:969,176.20069756985947,167.68207847195634,0,-43.18241882324219,43.482295989990234,-37.18486022949219
-0.34780627489089966,0.029886476695537567,9.740416526794434,-0.0005727194893354142,0.004517024975586225,-0.0024544358396442778,2.320011854171753,2019-08-06 13:49:06:979,176.2332425184947,167.92524303878128,0,-43.18241882324219,43.482295989990234,-37.18486022949219
-0.3861222565174103,0.06580772250890732,9.829022407531738,0.0034229976195586987,0.006648073996300022,0.003672330354982212,2.3299975395202637,2019-08-06 13:49:06:989,176.25985723780633,168.15714684870426,0,-43.18241882324219,43.482295989990234,-37.18486022949219
-0.3190692663192749,-0.0012452697847038507,9.884101867675781,-0.002171006319889343,0.006648073996300022,0.0023404247170360896,2.340074062347412,2019-08-06 13:49:06:999,176.2939201168822,161.19537662772194,0,-43.18241882324219,43.482295989990234,-37.18486022949219
-0.34780627489089966,0.05143922194838524,9.776338577270508,-0.0008391006169246387,0.007979980154394795,-0.000856149009090349,2.350059986114502,2019-08-06 13:49:07:009,176.32281698575474,161.56591028742568,0,-44.53186798095703,43.33235549926758,-36.43516540527344
-0.3502010107040405,0.03707072511315346,9.812259674072266,-0.0005727194893354142,0.0023859759548724283,-0.003519960350001176,2.360044479370117,2019-08-06 13:49:07:019,176.354142454804,161.93058391477896,0,-44.53186798095703,43.33235549926758,-36.43516540527344
-0.35499051213264465,0.06341297179460526,9.814654350280762,-0.0013718629371216693,0.010377409782549165,0.0012749002066791914,2.3701887130737305,2019-08-06 13:49:07:029,176.3797196000265,162.2853499311447,0,-44.53186798095703,43.33235549926758,-36.43516540527344
-0.36935901641845703,0.049044474959373474,9.824233055114746,0.0012919485988449018,0.005049787230764674,-0.00431910373276885,2.3799970149993896,2019-08-06 13:49:07:039,176.40628171991932,162.63321082630753,0,-44.53186798095703,43.33235549926758,-36.43516540527344
-0.3406220078468323,0.06341297179460526,9.85057544708252,-0.0061667232337277115,0.0013204513144783674,-0.002987198094822727,2.3899917602539062,2019-08-06 13:49:07:049,176.4378063310392,162.97663067978309,0,-44.53186798095703,43.33235549926758,-36.43516540527344
-0.3334377706050873,0.04664972424507141,9.862548828125,-0.0024373874474785677,0.00824636128198402,-0.003519960350001176,2.4000139236450195,2019-08-06 13:49:07:059,176.46568270938351,163.31304956416372,0,-44.53186798095703,43.33235549926758,-36.43516540527344
-0.3789380192756653,0.015517977997660637,9.788311958312988,0.0010255674062370958,0.005049787230764674,-0.004585484860358075,2.4099907875061035,2019-08-06 13:49:07:069,176.48920011596599,163.64439736563514,0,-44.53186798095703,43.33235549926758,-36.43516540527344
-0.331043004989624,0.022702226415276527,9.843391418457031,-0.0024373874474785677,0.005049787230764674,-5.7005565367755386e-05,2.4200215339660645,2019-08-06 13:49:07:079,176.518048190096,163.9702393474921,0,-44.53186798095703,43.33235549926758,-36.43516540527344
-0.3118850290775299,0.02509697712957859,9.836206436157227,0.004222141002326372,0.0029187382100508774,-0.008581202294345095,2.4304535388946533,2019-08-06 13:49:07:089,176.54965520040372,164.28543763234936,0,-44.53186798095703,43.33235549926758,-36.43516540527344
-0.3789380192756653,0.06101822108030319,9.812259674072266,0.0004928051185493561,0.005316168358353898,-0.0032535792224119516,2.4399943351745605,2019-08-06 13:49:07:099,176.5715822060341,164.59233901273748,0,-44.53186798095703,43.33235549926758,-36.43516540527344
-0.30230602622032166,0.029886476695537567,9.836206436157227,-0.002703768575067792,0.007713599026805571,-0.0005897678815011245,2.450031280517578,2019-08-06 13:49:07:109,176.6005958910478,164.89853424741395,0,-44.53186798095703,43.33235549926758,-36.43516540527344
-0.3142797648906708,0.06580772250890732,9.85057544708252,-0.002970149702657017,0.006381692868710797,-0.0005897678815011245,2.4601824283599854,2019-08-06 13:49:07:119,176.6283987918035,165.19460121883137,0,-44.53186798095703,43.33235549926758,-36.43516540527344
-0.3142797648906708,0.04425497353076935,9.857759475708008,-0.0024373874474785677,0.0047834061031754496,-0.0003233867214026093,2.470003366470337,2019-08-06 13:49:07:129,176.656671941972,165.48690889159917,0,-43.632232666015625,43.93211364746094,-37.63467788696289
-0.3382272720336914,0.049044474959373474,9.766758918762207,-3.9957173202045016e-05,0.005316168358353898,-0.003786341477590401,2.480018138885498,2019-08-06 13:49:07:139,176.68088135019295,165.7714389344899,0,-43.632232666015625,43.93211364746094,-37.63467788696289
-0.3334377706050873,0.049044474959373474,9.819443702697754,-0.002970149702657017,0.005316168358353898,0.00020937558253977584,2.4900009632110596,2019-08-06 13:49:07:149,176.70538704475797,166.05195165111013,0,-43.632232666015625,43.93211364746094,-37.63467788696289
-0.3525957465171814,0.05862347409129143,9.881707191467285,-0.0016382440647108938,0.0026523570824616527,-0.0027208169672335025,2.500032663345337,2019-08-06 13:49:07:159,176.72891445333164,166.32503731287204,0,-43.632232666015625,43.93211364746094,-37.63467788696289
-0.3070955276489258,0.049044474959373474,9.829022407531738,0.0002264239747054862,0.004517024975586225,-0.0019216735844658289,2.5100135803222656,2019-08-06 13:49:07:169,176.7560136427177,166.5926918747417,0,-43.632232666015625,43.93211364746094,-37.63467788696289
-0.31667450070381165,0.029886476695537567,9.83381175994873,-0.0016382440647108938,0.0039842627204077765,0.0010085190140713856,2.52001953125,2019-08-06 13:49:07:179,176.78176614423256,166.85827585226846,0,-43.632232666015625,43.93211364746094,-37.63467788696289
-0.3262535035610199,0.034675974398851395,9.824233055114746,0.0010255674062370958,0.008512742409573244,0.00020937558253977584,2.5300018787384033,2019-08-06 13:49:07:189,176.80331857123096,167.11649084802215,0,-43.632232666015625,43.93211364746094,-37.63467788696289
-0.36217474937438965,0.06341297179460526,9.886496543884277,0.0004928051185493561,0.007979980154394795,-5.7005565367755386e-05,2.540025472640991,2019-08-06 13:49:07:199,176.82080100201378,167.36653375305687,0,-43.632232666015625,43.93211364746094,-37.63467788696289
-0.3118850290775299,0.027491725981235504,9.814654350280762,-0.002970149702657017,0.007979980154394795,-0.0053846282431257485,2.5500001907348633,2019-08-06 13:49:07:209,176.84351349669174,167.61765679284136,0,-43.632232666015625,43.93211364746094,-37.63467788696289
-0.3645695149898529,0.027491725981235504,9.89128589630127,-3.9957173202045016e-05,0.004517024975586225,0.0031395680998037635,2.5600314140319824,2019-08-06 13:49:07:219,176.86188236291085,167.86214122655633,0,-43.632232666015625,43.93211364746094,-37.63467788696289
-0.3142797648906708,0.0538339726626873,9.886496543884277,-0.0013718629371216693,0.00718083625147847,0.001541281334268416,2.570005178451538,2019-08-06 13:49:07:229,176.88420825661058,168.09942699985666,0,-43.632232666015625,43.93211364746094,-37.63467788696289
-0.3334377706050873,0.06101822108030319,9.881707191467285,-0.0003063383292368989,0.009311885272192268,-0.0019216735844658289,2.579988718032837,2019-08-06 13:49:07:239,176.9026522006534,168.33053439960878,0,-43.632232666015625,43.93211364746094,-37.63467788696289
-0.34780627489089966,0.05143922194838524,9.869733810424805,0.0002264239747054862,0.0047834061031754496,0.00020937558253977584,2.590022563934326,2019-08-06 13:49:07:249,176.92153919309246,168.5578238991233,0,-43.632232666015625,43.93211364746094,-37.63467788696289
-0.35499051213264465,0.08257097005844116,9.79310131072998,0.0002264239747054862,0.005582549485943123,0.006069760763359559,2.599998712539673,2019-08-06 13:49:07:259,176.938461132083,168.7768789782141,0,-43.18241882324219,44.381927490234375,-37.484737396240234
-0.3525957465171814,0.04425497353076935,9.773942947387695,-0.002171006319889343,0.005316168358353898,-0.0027208169672335025,2.610020160675049,2019-08-06 13:49:07:269,176.9553794114478,168.99737452881712,0,-43.18241882324219,44.381927490234375,-37.484737396240234
-0.3334377706050873,0.08257097005844116,9.812259674072266,0.0010255674062370958,0.0074472173790676955,0.0007421378864821609,2.6200010776519775,2019-08-06 13:49:07:279,176.9731729601304,169.2072095363592,0,-43.18241882324219,44.381927490234375,-37.484737396240234
-0.3382272720336914,0.056228723376989365,9.840996742248535,-0.0011054818095324445,0.005582549485943123,0.0028731869722145387,2.6300208568573,2019-08-06 13:49:07:289,176.99119999125193,169.41713992760134,0,-43.18241882324219,44.381927490234375,-37.484737396240234
-0.3382272720336914,0.03707072511315346,9.838602066040039,0.0007591862786478714,0.005582549485943123,-0.0021880547120550534,2.6400206089019775,2019-08-06 13:49:07:299,177.00886318480644,169.62405319936335,0,-43.18241882324219,44.381927490234375,-37.484737396240234
-0.32385876774787903,0.06580772250890732,9.819443702697754,-0.002171006319889343,0.011709315940643939,-0.003519960350001176,2.65002703666687,2019-08-06 13:49:07:309,177.02432675151488,169.82511238018645,0,-43.18241882324219,44.381927490234375,-37.484737396240234
-0.3262535035610199,0.06341297179460526,9.85057544708252,0.0004928051185493561,0.009311885272192268,-0.0003233867214026093,2.6600027084350586,2019-08-06 13:49:07:319,177.04068518551588,170.02095737917347,0,-43.18241882324219,44.381927490234375,-37.484737396240234
-0.3597800135612488,0.08496572077274323,9.831417083740234,0.0007591862786478714,0.0031851193376401022,0.0010085190140713856,2.670046329498291,2019-08-06 13:49:07:329,177.05615924466946,170.21020702933535,0,-43.18241882324219,44.381927490234375,-37.484737396240234
-0.36217474937438965,0.03707072511315346,9.867338180541992,-0.0024373874474785677,0.005848930613532348,0.0020740435894468653,2.680004119873047,2019-08-06 13:49:07:339,177.0697244815509,170.40306061748782,0,-43.18241882324219,44.381927490234375,-37.484737396240234
-0.3334377706050873,0.015517977997660637,9.817049026489258,-0.004834817595781589,0.004517024975586225,0.001541281334268416,2.6900219917297363,2019-08-06 13:49:07:349,177.0868828907731,170.59590763344445,0,-43.18241882324219,44.381927490234375,-37.484737396240234
-0.30949026346206665,0.05143922194838524,9.840996742248535,-0.002171006319889343,0.00718083625147847,0.001541281334268416,2.7000246047973633,2019-08-06 13:49:07:359,177.1050860360531,170.7792191315101,0,-43.18241882324219,44.381927490234375,-37.484737396240234
-0.31667450070381165,0.056228723376989365,9.831417083740234,-0.002703768575067792,0.01064379143028704,-0.003786341477590401,2.710020065307617,2019-08-06 13:49:07:369,177.12011283880042,170.95859847020614,0,-43.18241882324219,44.381927490234375,-37.484737396240234
-0.32864826917648315,0.05862347409129143,9.862548828125,-3.9957173202045016e-05,0.003717881592818551,-0.004585484860358075,2.720032215118408,2019-08-06 13:49:07:379,177.13744940727753,171.13263766568997,0,-43.18241882324219,43.78217315673828,-37.78461456298828
-0.29751652479171753,0.029886476695537567,9.764364242553711,-0.0011054818095324445,0.007713599026805571,0.0031395680998037635,2.730001211166382,2019-08-06 13:49:07:389,177.1554778520626,171.3070963408849,0,-43.18241882324219,43.78217315673828,-37.78461456298828
-0.32385876774787903,0.041860222816467285,9.814654350280762,-0.0011054818095324445,0.008779123017013819,-0.0019216735844658289,2.740025043487549,2019-08-06 13:49:07:399,177.16962848021387,171.476689235278,0,-43.18241882324219,43.78217315673828,-37.78461456298828
-0.331043004989624,0.07538671791553497,9.802680015563965,0.001824710854023351,0.0029187382100508774,-0.0019216735844658289,2.7500030994415283,2019-08-06 13:49:07:409,177.18591701120323,171.6373207287878,0,-43.18241882324219,43.78217315673828,-37.78461456298828
-0.33583250641822815,0.07299196720123291,9.867338180541992,-0.0003063383292368989,0.009578266919930143,-0.0032535792224119516,2.7600269317626953,2019-08-06 13:49:07:419,177.1978217539654,171.7962701703272,0,-43.18241882324219,43.78217315673828,-37.78461456298828
-0.31667450070381165,0.041860222816467285,9.884101867675781,-0.0005727194893354142,0.004517024975586225,0.0031395680998037635,2.7700037956237793,2019-08-06 13:49:07:429,177.21463370779776,171.95581255871477,0,-43.18241882324219,43.78217315673828,-37.78461456298828
-0.3525957465171814,0.02509697712957859,9.898469924926758,-0.003502911957835466,0.005049787230764674,0.00020937558253977584,2.779989004135132,2019-08-06 13:49:07:439,177.22670809936125,172.11575488446806,0,-43.18241882324219,43.78217315673828,-37.78461456298828
-0.2663847804069519,0.041860222816467285,9.82183837890625,0.0020910919816125757,0.0047834061031754496,-0.0003233867214026093,2.7900116443634033,2019-08-06 13:49:07:449,177.24841043895532,172.26737917328546,0,-43.18241882324219,43.78217315673828,-37.78461456298828
-0.30949026346206665,0.04664972424507141,9.884101867675781,-0.0019046251923001184,0.00824636128198402,-0.002987198094822727,2.8000142574310303,2019-08-06 13:49:07:459,177.26294159516198,172.41769300753,0,-43.18241882324219,43.78217315673828,-37.78461456298828
-0.30949026346206665,0.022702226415276527,9.888891220092773,-0.004035674213013915,0.0039842627204077765,-0.005118247115536523,2.8100242614746094,2019-08-06 13:49:07:469,177.2795916233179,172.56897673147182,0,-43.18241882324219,43.78217315673828,-37.78461456298828
-0.3262535035610199,0.034675974398851395,9.814654350280762,-0.002171006319889343,0.00824636128198402,-0.006450152753482647,2.8200244903564453,2019-08-06 13:49:07:479,177.29129147071995,172.71476764543104,0,-43.18241882324219,43.78217315673828,-37.78461456298828
-0.3597800135612488,0.034675974398851395,9.800285339355469,-0.003236530830246241,0.0018532135696568165,-0.002987198094822727,2.8300015926361084,2019-08-06 13:49:07:489,177.3023784197728,172.858230906619,0,-43.18241882324219,43.78217315673828,-37.78461456298828
-0.33583250641822815,0.04664972424507141,9.812259674072266,-0.005101198723370813,0.009045504664751694,-0.0053846282431257485,2.8400254249572754,2019-08-06 13:49:07:499,177.31203512577125,172.99848952748664,0,-43.18241882324219,43.78217315673828,-37.78461456298828
-0.34301677346229553,0.08257097005844116,9.85057544708252,-0.0008391006169246387,0.009578266919930143,-0.0024544358396442778,2.8500044345855713,2019-08-06 13:49:07:509,177.3205405683642,173.1293846613577,0,-43.03247833251953,42.43272399902344,-37.33479690551758
-0.3334377706050873,0.03946547582745552,9.80986499786377,0.0007591862786478714,0.0023859759548724283,-0.0032535792224119516,2.8600270748138428,2019-08-06 13:49:07:519,177.33385226646703,173.26175968197384,0,-43.03247833251953,42.43272399902344,-37.33479690551758
-0.331043004989624,0.07778146862983704,9.843391418457031,-3.9957173202045016e-05,0.009844647527370716,-0.0027208169672335025,2.870016098022461,2019-08-06 13:49:07:529,177.3431297757587,173.3874921806874,0,-43.03247833251953,42.43272399902344,-37.33479690551758
-0.3573852479457855,0.01791272684931755,9.838602066040039,-0.004302055340603139,0.005316168358353898,-0.0024544358396442778,2.880023956298828,2019-08-06 13:49:07:539,177.35167295263508,173.52007351577137,0,-43.03247833251953,42.43272399902344,-37.33479690551758
-0.34301677346229553,0.03228122740983963,9.884101867675781,-0.003236530830246241,0.006115311741121573,-0.000856149009090349,2.890002965927124,2019-08-06 13:49:07:549,177.3614611878903,173.64774302040692,0,-43.03247833251953,42.43272399902344,-37.33479690551758
-0.3597800135612488,0.056228723376989365,9.838602066040039,-0.0008391006169246387,0.006381692868710797,-0.0019216735844658289,2.899988889694214,2019-08-06 13:49:07:559,177.36876828397826,173.76870968476663,0,-43.03247833251953,42.43272399902344,-37.33479690551758
-0.3717537522315979,0.041860222816467285,9.773942947387695,-0.004302055340603139,0.005049787230764674,-0.001122530201698155,2.910026788711548,2019-08-06 13:49:07:569,177.37498260889302,173.89085250234038,0,-43.03247833251953,42.43272399902344,-37.33479690551758
-0.3262535035610199,0.029886476695537567,9.836206436157227,-0.0024373874474785677,0.0031851193376401022,-0.0024544358396442778,2.9200174808502197,2019-08-06 13:49:07:579,177.38770165885344,174.0109210118168,0,-43.03247833251953,42.43272399902344,-37.33479690551758
-0.3406220078468323,0.027491725981235504,9.83381175994873,-0.0024373874474785677,0.005582549485943123,-0.0019216735844658289,2.9300377368927,2019-08-06 13:49:07:589,177.39713050280102,174.1288704027567,0,-43.03247833251953,42.43272399902344,-37.33479690551758
-0.34301677346229553,0.03707072511315346,9.826627731323242,0.0012919485988449018,0.006648073996300022,-0.000856149009090349,2.9400219917297363,2019-08-06 13:49:07:599,177.40547679902505,174.2412457900498,0,-43.03247833251953,42.43272399902344,-37.33479690551758
-0.3142797648906708,0.05143922194838524,9.845786094665527,-0.0008391006169246387,0.005848930613532348,0.003938711482571438,2.950035572052002,2019-08-06 13:49:07:609,177.41751316179725,174.35090589659822,0,-43.03247833251953,42.43272399902344,-37.33479690551758
-0.3669642508029938,0.008333728648722172,9.802680015563965,0.0007591862786478714,0.009311885272192268,0.0012749002066791914,2.96001935005188,2019-08-06 13:49:07:619,177.42106533312474,174.46248799052495,0,-43.03247833251953,42.43272399902344,-37.33479690551758
-0.34301677346229553,0.041860222816467285,9.759574890136719,0.0004928051185493561,0.006115311741121573,0.001541281334268416,2.9700450897216797,2019-08-06 13:49:07:629,177.4289428780588,174.56804584214515,0,-43.03247833251953,43.93211364746094,-35.83540725708008
-0.3597800135612488,0.03707072511315346,9.812259674072266,-0.0011054818095324445,0.005848930613532348,-5.7005565367755386e-05,2.9800214767456055,2019-08-06 13:49:07:639,177.43508984981506,174.67297493666956,0,-43.03247833251953,43.93211364746094,-35.83540725708008
-0.3502010107040405,0.03946547582745552,9.843391418457031,-0.002703768575067792,0.006914455123889247,0.001541281334268416,2.9900453090667725,2019-08-06 13:49:07:649,177.44174498038143,174.7764428810075,0,-43.03247833251953,43.93211364746094,-35.83540725708008
-0.3406220078468323,0.08257097005844116,9.845786094665527,-0.0013718629371216693,0.0013204513144783674,0.0010085190140713856,3.0000340938568115,2019-08-06 13:49:07:659,177.45254151643923,174.87207354606556,0,-43.03247833251953,43.93211364746094,-35.83540725708008
-0.32146400213241577,0.029886476695537567,9.7811279296875,-0.004035674213013915,0.006115311741121573,0.003405949227392988,3.0100162029266357,2019-08-06 13:49:07:669,177.46241527821715,174.97339268424986,0,-43.03247833251953,43.93211364746094,-35.83540725708008
-0.3382272720336914,0.03707072511315346,9.805074691772461,-0.0011054818095324445,0.0031851193376401022,0.001541281334268416,3.0200350284576416,2019-08-06 13:49:07:679,177.47186233203138,175.07021430383705,0,-43.03247833251953,43.93211364746094,-35.83540725708008
-0.3502010107040405,0.06101822108030319,9.85057544708252,-0.0019046251923001184,0.00718083625147847,-0.003786341477590401,3.0300188064575195,2019-08-06 13:49:07:689,177.47767792882934,175.16277957995706,0,-43.03247833251953,43.93211364746094,-35.83540725708008
-0.35499051213264465,0.02509697712957859,9.857759475708008,0.0010255674062370958,0.008512742409573244,0.0012749002066791914,3.0400378704071045,2019-08-06 13:49:07:699,177.48208730444836,175.25602964317952,0,-43.03247833251953,43.93211364746094,-35.83540725708008
-0.33583250641822815,0.0538339726626873,9.766758918762207,-0.0013718629371216693,0.010111029175108591,-0.0003233867214026093,3.0500242710113525,2019-08-06 13:49:07:709,177.48738886721236,175.3453621263836,0,-43.03247833251953,43.93211364746094,-35.83540725708008
-0.3669642508029938,0.07538671791553497,9.812259674072266,0.0007591862786478714,0.006914455123889247,-0.001655292456876604,3.060033082962036,2019-08-06 13:49:07:719,177.49091959715827,175.4292244318653,0,-43.03247833251953,43.93211364746094,-35.83540725708008
-0.36217474937438965,0.06580772250890732,9.82183837890625,-0.002703768575067792,0.006381692868710797,-0.004851865987947299,3.070016622543335,2019-08-06 13:49:07:729,177.49528793679474,175.51447792311257,0,-43.03247833251953,43.93211364746094,-35.83540725708008
-0.3190692663192749,0.029886476695537567,9.843391418457031,0.001824710854023351,0.004517024975586225,-0.004585484860358075,3.080007553100586,2019-08-06 13:49:07:739,177.50571681884165,175.5996855062929,0,-43.03247833251953,43.93211364746094,-35.83540725708008
-0.32146400213241577,0.05143922194838524,9.788311958312988,-0.0019046251923001184,0.008512742409573244,0.0026068058446253144,3.09005069732666,2019-08-06 13:49:07:749,177.51318176611383,175.68274393136454,0,-43.03247833251953,43.93211364746094,-35.83540725708008
-0.3406220078468323,0.027491725981235504,9.843391418457031,-0.0005727194893354142,0.0029187382100508774,0.0012749002066791914,3.100046157836914,2019-08-06 13:49:07:759,177.52164241006398,175.7662100548919,0,-42.882537841796875,42.58266067504883,-37.78461456298828
-0.3502010107040405,0.041860222816467285,9.831417083740234,-0.0013718629371216693,0.005316168358353898,-0.00431910373276885,3.1100449562072754,2019-08-06 13:49:07:769,177.5274239448814,175.8467770087219,0,-42.882537841796875,42.58266067504883,-37.78461456298828
-0.3525957465171814,0.0011494798818603158,9.864943504333496,-0.0013718629371216693,0.005582549485943123,-0.0019216735844658289,3.120044231414795,2019-08-06 13:49:07:779,177.53280087112807,175.93047818786937,0,-42.882537841796875,42.58266067504883,-37.78461456298828
-0.32864826917648315,0.05143922194838524,9.843391418457031,-0.002703768575067792,0.004250643847997001,0.0007421378864821609,3.1300601959228516,2019-08-06 13:49:07:789,177.54150902557413,176.00740098239135,0,-42.882537841796875,42.58266067504883,-37.78461456298828
-0.3262535035610199,0.05143922194838524,9.83381175994873,0.0012919485988449018,0.006914455123889247,0.006602523018538008,3.1400187015533447,2019-08-06 13:49:07:799,177.54880873015063,176.08053648435396,0,-42.882537841796875,42.58266067504883,-37.78461456298828
-0.3262535035610199,0.06341297179460526,9.845786094665527,0.0004928051185493561,0.00718083625147847,-0.001122530201698155,3.1500368118286133,2019-08-06 13:49:07:809,177.55583564180156,176.15126823873692,0,-42.882537841796875,42.58266067504883,-37.78461456298828
-0.33583250641822815,0.008333728648722172,9.812259674072266,-0.0011054818095324445,0.007713599026805571,-0.0019216735844658289,3.160036325454712,2019-08-06 13:49:07:819,177.56118338174764,176.22789032381337,0,-42.882537841796875,42.58266067504883,-37.78461456298828
-0.3573852479457855,0.07538671791553497,9.819443702697754,0.0010255674062370958,0.004517024975586225,-0.0024544358396442778,3.170030117034912,2019-08-06 13:49:07:829,177.5657370186691,176.29395966657177,0,-42.882537841796875,42.58266067504883,-37.78461456298828
-0.3525957465171814,0.04425497353076935,9.876917839050293,0.0002264239747054862,0.0047834061031754496,0.0031395680998037635,3.180070161819458,2019-08-06 13:49:07:839,177.5708350105944,176.36281841949375,0,-42.882537841796875,42.58266067504883,-37.78461456298828
-0.331043004989624,0.09214996546506882,9.829022407531738,-0.002703768575067792,0.009844647527370716,-0.003786341477590401,3.1900174617767334,2019-08-06 13:49:07:849,177.57533965338078,176.42632923303617,0,-42.882537841796875,42.58266067504883,-37.78461456298828
-0.3597800135612488,0.056228723376989365,9.840996742248535,0.0007591862786478714,0.006115311741121573,-0.0032535792224119516,3.2000327110290527,2019-08-06 13:49:07:859,177.57851865583854,176.49082834395463,0,-42.882537841796875,42.58266067504883,-37.78461456298828
-0.3645695149898529,0.08496572077274323,9.824233055114746,-0.002171006319889343,0.008512742409573244,-0.0021880547120550534,3.2100210189819336,2019-08-06 13:49:07:869,177.5796694610345,176.55231906687393,0,-42.882537841796875,42.58266067504883,-37.78461456298828
-0.34301677346229553,0.027491725981235504,9.83381175994873,-0.004568436468192365,0.007713599026805571,-0.003519960350001176,3.2200348377227783,2019-08-06 13:49:07:879,177.58378401105574,176.6206378503599,0,-43.482295989990234,44.981685638427734,-37.78461456298828
-0.3382272720336914,0.027491725981235504,9.795495986938477,-0.002703768575067792,0.011709315940643939,-5.7005565367755386e-05,3.2300233840942383,2019-08-06 13:49:07:889,177.58598965506275,176.68652543525263,0,-43.482295989990234,44.981685638427734,-37.78461456298828
-0.3502010107040405,0.0801762193441391,9.766758918762207,-0.0003063383292368989,0.0074472173790676955,0.0007421378864821609,3.2400460243225098,2019-08-06 13:49:07:899,177.58900795682814,176.74356060969998,0,-43.482295989990234,44.981685638427734,-37.78461456298828
-0.3190692663192749,0.0035442295484244823,9.831417083740234,-0.0005727194893354142,0.007979980154394795,0.0018076624618576407,3.2500219345092773,2019-08-06 13:49:07:909,177.59558129457318,176.80859710105432,0,-43.482295989990234,44.981685638427734,-37.78461456298828
-0.3190692663192749,0.04425497353076935,9.915233612060547,0.0015583297264341264,0.0031851193376401022,-0.0021880547120550534,3.260039806365967,2019-08-06 13:49:07:919,177.6050155302295,176.86643402815054,0,-43.482295989990234,44.981685638427734,-37.78461456298828
-0.3454115092754364,0.05862347409129143,9.800285339355469,-0.003236530830246241,0.0031851193376401022,0.0010085190140713856,3.2700212001800537,2019-08-06 13:49:07:929,177.61075897015607,176.92406470292772,0,-43.482295989990234,44.981685638427734,-37.78461456298828
-0.3406220078468323,0.03707072511315346,9.83381175994873,-0.0011054818095324445,0.0047834061031754496,-0.001655292456876604,3.280038595199585,2019-08-06 13:49:07:939,177.6161770631598,176.9818854537385,0,-43.482295989990234,44.981685638427734,-37.78461456298828
-0.3262535035610199,0.034675974398851395,9.864943504333496,-0.0024373874474785677,0.005316168358353898,-0.005651009370714973,3.290034294128418,2019-08-06 13:49:07:949,177.62298586130944,177.03958778797045,0,-43.482295989990234,44.981685638427734,-37.78461456298828
-0.3525957465171814,0.01791272684931755,9.807470321655273,-0.002171006319889343,0.0026523570824616527,-0.0032535792224119516,3.300032377243042,2019-08-06 13:49:07:959,177.62785719685394,177.09792187530738,0,-43.482295989990234,44.981685638427734,-37.78461456298828
-0.32864826917648315,0.04425497353076935,9.876917839050293,-0.002171006319889343,0.0031851193376401022,-0.0024544358396442778,3.310025453567505,2019-08-06 13:49:07:969,177.63539728862804,177.1520472030112,0,-43.482295989990234,44.981685638427734,-37.78461456298828
-0.30949026346206665,0.02509697712957859,9.840996742248535,-0.002703768575067792,0.008779123017013819,-0.0019216735844658289,3.320033550262451,2019-08-06 13:49:07:979,177.6417297724657,177.207603288527,0,-43.482295989990234,44.981685638427734,-37.78461456298828
-0.3118850290775299,0.020307477563619614,9.766758918762207,0.0012919485988449018,0.009578266919930143,-5.7005565367755386e-05,3.330019950866699,2019-08-06 13:49:07:989,177.64694384974752,177.26034414691696,0,-43.482295989990234,44.981685638427734,-37.78461456298828
-0.3573852479457855,0.020307477563619614,9.85057544708252,-0.0013718629371216693,0.003717881592818551,0.0023404247170360896,3.3400375843048096,2019-08-06 13:49:07:999,177.65035737438077,177.31354655975196,0,-43.482295989990234,44.981685638427734,-37.78461456298828
-0.3525957465171814,0.049044474959373474,9.802680015563965,-0.0019046251923001184,0.0015868324420675922,0.0018076624618576407,3.3500194549560547,2019-08-06 13:49:08:009,177.65526079395676,177.36260997146525,0,-41.53308868408203,44.53186798095703,-37.03491973876953
-0.331043004989624,0.03707072511315346,9.826627731323242,-0.0005727194893354142,0.00718083625147847,0.0012749002066791914,3.3600494861602783,2019-08-06 13:49:08:019,177.6595220129509,177.41135739952819,0,-41.53308868408203,44.53186798095703,-37.03491973876953
-0.3382272720336914,0.0035442295484244823,9.80986499786377,-0.003236530830246241,0.007979980154394795,-0.003786341477590401,3.3700175285339355,2019-08-06 13:49:08:029,177.66237158992502,177.464527740949,0,-41.53308868408203,44.53186798095703,-37.03491973876953
-0.331043004989624,0.03228122740983963,9.829022407531738,-0.0024373874474785677,0.009844647527370716,-0.0013889113292873795,3.3800389766693115,2019-08-06 13:49:08:039,177.66500451381972,177.51284522111078,0,-41.53308868408203,44.53186798095703,-37.03491973876953
-0.331043004989624,0.08496572077274323,9.860154151916504,-0.0019046251923001184,0.006648073996300022,-0.001655292456876604,3.3900363445281982,2019-08-06 13:49:08:049,177.6695142077169,177.55378327963186,0,-41.53308868408203,44.53186798095703,-37.03491973876953
-0.32146400213241577,0.041860222816467285,9.85057544708252,0.0015583297264341264,0.005582549485943123,-5.7005565367755386e-05,3.4000351428985596,2019-08-06 13:49:08:059,177.6756071261399,177.59696315662075,0,-41.53308868408203,44.53186798095703,-37.03491973876953
-0.3334377706050873,0.022702226415276527,9.83381175994873,0.0012919485988449018,0.0034515004652293266,0.0012749002066791914,3.4100325107574463,2019-08-06 13:49:08:069,177.68131748485578,177.64165321400168,0,-41.53308868408203,44.53186798095703,-37.03491973876953
-0.3597800135612488,0.03228122740983963,9.824233055114746,-0.0008391006169246387,0.007713599026805571,0.0010085190140713856,3.420030355453491,2019-08-06 13:49:08:079,177.68141427374886,177.68552587720112,0,-41.53308868408203,44.53186798095703,-37.03491973876953
-0.3573852479457855,0.01072847843170166,9.843391418457031,-0.004568436468192365,0.00824636128198402,-0.007249296656398971,3.4300169944763184,2019-08-06 13:49:08:089,177.68157521985535,177.7331281509518,0,-41.53308868408203,44.53186798095703,-37.03491973876953
-0.3262535035610199,0.04664972424507141,9.7811279296875,0.0012919485988449018,0.004250643847997001,-0.0032535792224119516,3.440040349960327,2019-08-06 13:49:08:099,177.6873430952063,177.77227322327903,0,-41.53308868408203,44.53186798095703,-37.03491973876953
-0.36217474937438965,0.034675974398851395,9.838602066040039,0.0010255674062370958,0.006381692868710797,-0.0019216735844658289,3.4500153064727783,2019-08-06 13:49:08:109,177.68785793982713,177.81221460427633,0,-41.53308868408203,44.53186798095703,-37.03491973876953
-0.3142797648906708,0.027491725981235504,9.79310131072998,-0.0005727194893354142,0.005049787230764674,0.0007421378864821609,3.46004056930542,2019-08-06 13:49:08:119,177.69449611473644,177.8530758377668,0,-41.53308868408203,44.53186798095703,-37.03491973876953
-0.31667450070381165,0.06820247322320938,9.812259674072266,0.002890235364380249,0.0023859759548724283,0.0018076624618576407,3.470015525817871,2019-08-06 13:49:08:129,177.70230012118282,177.88643068807298,0,-42.882537841796875,43.482295989990234,-37.18486022949219
-0.32146400213241577,0.0801762193441391,9.836206436157227,-0.0019046251923001184,-0.0005442166761740764,0.00020937558253977584,3.480034351348877,2019-08-06 13:49:08:139,177.71112312008387,177.92043322940162,0,-42.882537841796875,43.482295989990234,-37.18486022949219
-0.3382272720336914,0.07538671791553497,9.807470321655273,-0.0003063383292368989,0.006914455123889247,-0.0024544358396442778,3.490018367767334,2019-08-06 13:49:08:149,177.7135212164716,177.9533882050959,0,-42.882537841796875,43.482295989990234,-37.18486022949219
-0.3334377706050873,0.03228122740983963,9.814654350280762,-0.003236530830246241,0.008512742409573244,-0.003786341477590401,3.500035285949707,2019-08-06 13:49:08:159,177.71554706178964,177.99237182360014,0,-42.882537841796875,43.482295989990234,-37.18486022949219
-0.2999112606048584,0.049044474959373474,9.845786094665527,0.0002264239747054862,0.009311885272192268,-0.0005897678815011245,3.5100345611572266,2019-08-06 13:49:08:169,177.72111308681224,178.02668919696205,0,-42.882537841796875,43.482295989990234,-37.18486022949219
-0.3406220078468323,0.041860222816467285,9.840996742248535,0.0010255674062370958,0.005582549485943123,0.00020937558253977584,3.5200412273406982,2019-08-06 13:49:08:179,177.72390690681215,178.06070487218724,0,-42.882537841796875,43.482295989990234,-37.18486022949219
-0.32864826917648315,0.06820247322320938,9.80986499786377,0.0010255674062370958,0.00718083625147847,-0.006716534401220521,3.5300261974334717,2019-08-06 13:49:08:189,177.72702690146536,178.09094900739004,0,-42.882537841796875,43.482295989990234,-37.18486022949219
-0.33583250641822815,0.041860222816467285,9.886496543884277,-0.0003063383292368989,0.0031851193376401022,-0.001122530201698155,3.5400407314300537,2019-08-06 13:49:08:199,177.7317848982496,178.12445041586477,0,-42.882537841796875,43.482295989990234,-37.18486022949219
-0.32146400213241577,0.04664972424507141,9.79310131072998,-3.9957173202045016e-05,0.003717881592818551,0.0031395680998037635,3.5500190258026123,2019-08-06 13:49:08:209,177.73746433056337,178.1565252336367,0,-42.882537841796875,43.482295989990234,-37.18486022949219
-0.3454115092754364,0.049044474959373474,9.857759475708008,-0.0037692930854246903,0.005316168358353898,-0.001655292456876604,3.560046911239624,2019-08-06 13:49:08:219,177.73958574651869,178.1898159540798,0,-42.882537841796875,43.482295989990234,-37.18486022949219
-0.376543253660202,0.05862347409129143,9.824233055114746,-0.002171006319889343,0.009844647527370716,0.003405949227392988,3.5700197219848633,2019-08-06 13:49:08:229,177.73538213455384,178.220397475096,0,-42.882537841796875,43.482295989990234,-37.18486022949219
-0.3525957465171814,0.03228122740983963,9.840996742248535,-0.0024373874474785677,0.00824636128198402,-0.000856149009090349,3.580034017562866,2019-08-06 13:49:08:239,177.73499778624355,178.2536011609924,0,-42.882537841796875,43.482295989990234,-37.18486022949219
-0.3454115092754364,0.041860222816467285,9.83381175994873,0.0015583297264341264,0.00718083625147847,0.0010085190140713856,3.5900161266326904,2019-08-06 13:49:08:249,177.73603940157392,178.28277783963068,0,-42.882537841796875,43.482295989990234,-37.18486022949219
-0.33583250641822815,0.04425497353076935,9.790706634521484,-0.002703768575067792,0.0074472173790676955,-0.004851865987947299,3.6000380516052246,2019-08-06 13:49:08:259,177.7378370239215,178.31346415594106,0,-41.38315200805664,42.882537841796875,-38.38437271118164
-0.35499051213264465,0.049044474959373474,9.773942947387695,0.0012919485988449018,0.0018532135696568165,0.0010085190140713856,3.610017776489258,2019-08-06 13:49:08:269,177.74044034248774,178.3407208973434,0,-41.38315200805664,42.882537841796875,-38.38437271118164
-0.3334377706050873,0.06101822108030319,9.812259674072266,-0.0008391006169246387,0.005582549485943123,0.0031395680998037635,3.6200451850891113,2019-08-06 13:49:08:279,177.74356310978948,178.36725306045773,0,-41.38315200805664,42.882537841796875,-38.38437271118164
-0.3406220078468323,0.0538339726626873,9.819443702697754,0.0020910919816125757,0.004517024975586225,-0.0027208169672335025,3.6300148963928223,2019-08-06 13:49:08:289,177.74642903816445,178.39245512256701,0,-41.38315200805664,42.882537841796875,-38.38437271118164
-0.36935901641845703,0.07778146862983704,9.802680015563965,0.0004928051185493561,0.007713599026805571,0.0023404247170360896,3.6400363445281982,2019-08-06 13:49:08:299,177.74400300664362,178.41523639482537,0,-41.38315200805664,42.882537841796875,-38.38437271118164
-0.32864826917648315,0.01072847843170166,9.89128589630127,0.0004928051185493561,0.0047834061031754496,-0.00431910373276885,3.650020122528076,2019-08-06 13:49:08:309,177.74838119097979,178.44541250168882,0,-41.38315200805664,42.882537841796875,-38.38437271118164
-0.3454115092754364,0.01791272684931755,9.845786094665527,-0.004035674213013915,0.005848930613532348,-0.0005897678815011245,3.660036563873291,2019-08-06 13:49:08:319,177.7499392796695,178.47668920740833,0,-41.38315200805664,42.882537841796875,-38.38437271118164
-0.376543253660202,0.07778146862983704,9.826627731323242,0.0002264239747054862,0.00718083625147847,-0.001122530201698155,3.670034885406494,2019-08-06 13:49:08:329,177.7470206580958,178.4979581427195,0,-41.38315200805664,42.882537841796875,-38.38437271118164
-0.34780627489089966,0.022702226415276527,9.82183837890625,-0.003502911957835466,0.005316168358353898,0.00047575672638364575,3.6800336837768555,2019-08-06 13:49:08:339,177.74853391258821,178.52731695583302,0,-41.38315200805664,42.882537841796875,-38.38437271118164
-0.3118850290775299,0.06580772250890732,9.855364799499512,0.0031566164919694735,0.0047834061031754496,-0.001122530201698155,3.690014123916626,2019-08-06 13:49:08:349,177.75463081518328,178.5473500816885,0,-41.38315200805664,42.882537841796875,-38.38437271118164
-0.3597800135612488,0.03228122740983963,9.840996742248535,-0.005633960978549262,0.00718083625147847,-0.004851865987947299,3.7000348567962646,2019-08-06 13:49:08:359,177.75362258047915,178.5758141894293,0,-41.38315200805664,42.882537841796875,-38.38437271118164
-0.3454115092754364,0.0538339726626873,9.836206436157227,-0.0005727194893354142,0.0047834061031754496,0.0031395680998037635,3.7100205421447754,2019-08-06 13:49:08:369,177.75564427179205,178.59834744478792,0,-41.38315200805664,42.882537841796875,-38.38437271118164
-0.30230602622032166,0.029886476695537567,9.840996742248535,0.0010255674062370958,0.007713599026805571,-0.001122530201698155,3.720036268234253,2019-08-06 13:49:08:379,177.76100303311244,178.62232367405298,0,-42.13284683227539,44.231990814208984,-37.03491973876953
-0.3406220078468323,0.013123228214681149,9.807470321655273,-0.0003063383292368989,0.009578266919930143,-0.0024544358396442778,3.7300374507904053,2019-08-06 13:49:08:389,177.7606214941645,178.64851589800347,0,-42.13284683227539,44.231990814208984,-37.03491973876953
-0.3070955276489258,0.013123228214681149,9.812259674072266,0.0023574731092018,0.006648073996300022,-0.0021880547120550534,3.740046739578247,2019-08-06 13:49:08:399,177.76582055053,178.672688049479,0,-42.13284683227539,44.231990814208984,-37.03491973876953
-0.3454115092754364,0.05862347409129143,9.85057544708252,0.0023574731092018,0.005848930613532348,0.00047575672638364575,3.750019073486328,2019-08-06 13:49:08:409,177.7670638594659,178.69109465554493,0,-42.13284683227539,44.231990814208984,-37.03491973876953
-0.34301677346229553,0.034675974398851395,9.764364242553711,0.0020910919816125757,0.008512742409573244,-0.0021880547120550534,3.7600319385528564,2019-08-06 13:49:08:419,177.76669769909716,178.7120276585768,0,-42.13284683227539,44.231990814208984,-37.03491973876953
-0.3573852479457855,0.0035442295484244823,9.812259674072266,-0.0019046251923001184,0.00824636128198402,0.00047575672638364575,3.7700352668762207,2019-08-06 13:49:08:429,177.76501342182726,178.73844299628198,0,-42.13284683227539,44.231990814208984,-37.03491973876953
-0.36217474937438965,0.0538339726626873,9.860154151916504,0.0010255674062370958,0.005848930613532348,-0.001122530201698155,3.7800328731536865,2019-08-06 13:49:08:439,177.76435789553625,178.7568420694786,0,-42.13284683227539,44.231990814208984,-37.03491973876953
-0.3502010107040405,0.04425497353076935,9.845786094665527,0.0012919485988449018,0.005848930613532348,-0.001122530201698155,3.7900164127349854,2019-08-06 13:49:08:449,177.76505051755234,178.77583035246596,0,-42.13284683227539,44.231990814208984,-37.03491973876953
-0.38133275508880615,0.056228723376989365,9.826627731323242,0.0010255674062370958,0.00824636128198402,0.0007421378864821609,3.800035238265991,2019-08-06 13:49:08:459,177.76066429648967,178.7931798606237,0,-42.13284683227539,44.231990814208984,-37.03491973876953
-0.3190692663192749,0.03228122740983963,9.869733810424805,0.0012919485988449018,0.009578266919930143,-0.000856149009090349,3.810025453567505,2019-08-06 13:49:08:469,177.76304576776616,178.81284357952532,0,-42.13284683227539,44.231990814208984,-37.03491973876953
-0.32146400213241577,0.056228723376989365,9.89128589630127,0.0002264239747054862,0.009045504664751694,-0.005917390498304197,3.820035696029663,2019-08-06 13:49:08:479,177.76547178188025,178.8299453560024,0,-42.13284683227539,44.231990814208984,-37.03491973876953
-0.35499051213264465,0.06820247322320938,9.893680572509766,-0.0003063383292368989,0.0074472173790676955,0.00020937558253977584,3.8300161361694336,2019-08-06 13:49:08:489,177.76489049398157,178.84561883226462,0,-42.13284683227539,44.231990814208984,-37.03491973876953
-0.34780627489089966,0.049044474959373474,9.857759475708008,-0.0008391006169246387,0.010111029175108591,-0.003786341477590401,3.8400378227233887,2019-08-06 13:49:08:499,177.76348905466136,178.86347750160024,0,-42.13284683227539,44.231990814208984,-37.03491973876953
-0.3406220078468323,0.10172896832227707,9.817049026489258,-0.0003063383292368989,0.006914455123889247,0.00020937558253977584,3.850018262863159,2019-08-06 13:49:08:509,177.7646005376681,178.87450552198217,0,-42.58266067504883,44.381927490234375,-37.18486022949219
-0.3262535035610199,0.013123228214681149,9.845786094665527,-0.002171006319889343,0.006381692868710797,-0.0024544358396442778,3.860031843185425,2019-08-06 13:49:08:519,177.76776276695458,178.8967087197289,0,-42.58266067504883,44.381927490234375,-37.18486022949219
-0.33583250641822815,0.0538339726626873,9.826627731323242,-3.9957173202045016e-05,0.0074472173790676955,-0.0021880547120550534,3.8700342178344727,2019-08-06 13:49:08:529,177.76907761226073,178.91251929159668,0,-42.58266067504883,44.381927490234375,-37.18486022949219
-0.3717537522315979,0.04425497353076935,9.814654350280762,-0.0019046251923001184,0.006648073996300022,0.00020937558253977584,3.8800442218780518,2019-08-06 13:49:08:539,177.76657585837066,178.93017244033027,0,-42.58266067504883,44.381927490234375,-37.18486022949219
-0.34301677346229553,0.06820247322320938,9.814654350280762,-0.005633960978549262,0.0047834061031754496,-0.0027208169672335025,3.890047550201416,2019-08-06 13:49:08:549,177.76852474562875,178.94677061519522,0,-42.58266067504883,44.381927490234375,-37.18486022949219
-0.3382272720336914,0.029886476695537567,9.83381175994873,0.0002264239747054862,0.010111029175108591,0.0028731869722145387,3.900014638900757,2019-08-06 13:49:08:559,177.76809814893397,178.9642258803607,0,-42.58266067504883,44.381927490234375,-37.18486022949219
-0.32385876774787903,0.034675974398851395,9.869733810424805,-0.0008391006169246387,0.006914455123889247,-5.7005565367755386e-05,3.9100396633148193,2019-08-06 13:49:08:569,177.77125620086966,178.98138769282062,0,-42.58266067504883,44.381927490234375,-37.18486022949219
-0.3525957465171814,0.04664972424507141,9.807470321655273,-3.9957173202045016e-05,0.004250643847997001,0.00020937558253977584,3.920015811920166,2019-08-06 13:49:08:579,177.77227010098395,178.99633175750435,0,-42.58266067504883,44.381927490234375,-37.18486022949219
-0.36217474937438965,0.01791272684931755,9.85057544708252,0.004222141002326372,0.006914455123889247,0.0010085190140713856,3.9300332069396973,2019-08-06 13:49:08:589,177.77082273695873,179.01194649019288,0,-42.58266067504883,44.381927490234375,-37.18486022949219
-0.3406220078468323,0.056228723376989365,9.838602066040039,0.0010255674062370958,0.00718083625147847,0.0018076624618576407,3.940016269683838,2019-08-06 13:49:08:599,177.7717242045661,179.02458371514624,0,-42.58266067504883,44.381927490234375,-37.18486022949219
-0.3406220078468323,0.07299196720123291,9.874523162841797,0.001824710854023351,0.005848930613532348,-0.0019216735844658289,3.9500346183776855,2019-08-06 13:49:08:609,177.77348679833227,179.03459519341035,0,-42.58266067504883,44.381927490234375,-37.18486022949219
-0.3525957465171814,0.06580772250890732,9.776338577270508,0.0026238542367910244,0.006381692868710797,-0.001122530201698155,3.960036039352417,2019-08-06 13:49:08:619,177.7731222836399,179.04471637464627,0,-42.58266067504883,44.381927490234375,-37.18486022949219
-0.36217474937438965,0.0538339726626873,9.824233055114746,-0.0013718629371216693,0.005848930613532348,0.0026068058446253144,3.970034599304199,2019-08-06 13:49:08:629,177.77215057523765,179.05831301026527,0,-43.78217315673828,43.78217315673828,-37.78461456298828
-0.34301677346229553,0.041860222816467285,9.840996742248535,-0.0008391006169246387,0.009844647527370716,-0.000856149009090349,3.980015516281128,2019-08-06 13:49:08:639,177.77126460365847,179.07274270255334,0,-43.78217315673828,43.78217315673828,-37.78461456298828
-0.3118850290775299,0.02509697712957859,9.836206436157227,-0.0024373874474785677,0.00824636128198402,0.0023404247170360896,3.9900362491607666,2019-08-06 13:49:08:649,177.77487703248684,179.08973549050256,0,-43.78217315673828,43.78217315673828,-37.78461456298828
-0.3597800135612488,0.04425497353076935,9.795495986938477,-0.002970149702657017,0.0047834061031754496,-0.001655292456876604,4.00001859664917,2019-08-06 13:49:08:659,177.77462878900477,179.10442848635566,0,-43.78217315673828,43.78217315673828,-37.78461456298828
-0.35499051213264465,0.06101822108030319,9.869733810424805,-0.0013718629371216693,0.006648073996300022,-0.0021880547120550534,4.010034799575806,2019-08-06 13:49:08:669,177.77419922076646,179.1160270945298,0,-43.78217315673828,43.78217315673828,-37.78461456298828
-0.3669642508029938,0.05862347409129143,9.800285339355469,-0.0016382440647108938,0.0029187382100508774,0.0007421378864821609,4.020036697387695,2019-08-06 13:49:08:679,177.77418815419267,179.12777202802624,0,-43.78217315673828,43.78217315673828,-37.78461456298828
-0.3502010107040405,0.041860222816467285,9.829022407531738,0.0004928051185493561,0.008512742409573244,-0.001655292456876604,4.030031442642212,2019-08-06 13:49:08:689,177.77311612310598,179.14005978309822,0,-43.78217315673828,43.78217315673828,-37.78461456298828
-0.3382272720336914,0.056228723376989365,9.838602066040039,-0.002171006319889343,0.006115311741121573,0.0026068058446253144,4.040019273757935,2019-08-06 13:49:08:699,177.7748459494957,179.15192715524324,0,-43.78217315673828,43.78217315673828,-37.78461456298828
-0.3118850290775299,0.05143922194838524,9.85057544708252,0.0004928051185493561,0.009844647527370716,-0.0019216735844658289,4.0500266551971436,2019-08-06 13:49:08:709,177.7775477834975,179.16262783785314,0,-43.78217315673828,43.78217315673828,-37.78461456298828
-0.3573852479457855,0.029886476695537567,9.852970123291016,-0.0008391006169246387,0.01064379143028704,-0.006450152753482647,4.060017347335815,2019-08-06 13:49:08:719,177.77447967550194,179.17637016382844,0,-43.78217315673828,43.78217315673828,-37.78461456298828
-0.30949026346206665,0.03228122740983963,9.874523162841797,0.0012919485988449018,0.005582549485943123,0.0012749002066791914,4.070039987564087,2019-08-06 13:49:08:729,177.7799445150271,179.1883695423029,0,-43.78217315673828,43.78217315673828,-37.78461456298828
-0.3406220078468323,0.05143922194838524,9.80986499786377,-0.0013718629371216693,0.007713599026805571,0.0012749002066791914,4.080015659332275,2019-08-06 13:49:08:739,177.78025203141576,179.19936188372904,0,-43.78217315673828,43.78217315673828,-37.78461456298828
-0.3933064937591553,0.03946547582745552,9.802680015563965,-0.003502911957835466,0.005848930613532348,-0.001122530201698155,4.090037107467651,2019-08-06 13:49:08:749,177.77540360886613,179.21273232701924,0,-43.78217315673828,43.78217315673828,-37.78461456298828
-0.36217474937438965,0.06820247322320938,9.819443702697754,0.0007591862786478714,0.005049787230764674,-5.7005565367755386e-05,4.100015640258789,2019-08-06 13:49:08:759,177.77482002934212,179.22009330658057,0,-43.18241882324219,44.981685638427734,-36.28522491455078
-0.35499051213264465,0.03228122740983963,9.829022407531738,0.0007591862786478714,0.009311885272192268,0.0012749002066791914,4.110038995742798,2019-08-06 13:49:08:769,177.77271425384595,179.23150067266013,0,-43.18241882324219,44.981685638427734,-36.28522491455078
-0.32385876774787903,0.03228122740983963,9.829022407531738,-0.004302055340603139,0.006914455123889247,-0.001122530201698155,4.1200175285339355,2019-08-06 13:49:08:779,177.77564245904162,179.24551758168738,0,-43.18241882324219,44.981685638427734,-36.28522491455078
-0.3406220078468323,0.06101822108030319,9.79310131072998,0.001824710854023351,0.0074472173790676955,-0.0021880547120550534,4.130038499832153,2019-08-06 13:49:08:789,177.7760982551807,179.25244070451566,0,-43.18241882324219,44.981685638427734,-36.28522491455078
-0.3502010107040405,0.020307477563619614,9.812259674072266,0.0010255674062370958,0.007713599026805571,-0.0003233867214026093,4.140016794204712,2019-08-06 13:49:08:799,177.77537396935102,179.26444569921864,0,-43.18241882324219,44.981685638427734,-36.28522491455078
-0.3118850290775299,0.056228723376989365,9.838602066040039,-0.0024373874474785677,0.010377409782549165,-0.002987198094822727,4.150035619735718,2019-08-06 13:49:08:809,177.77771509888527,179.27397898553255,0,-43.18241882324219,44.981685638427734,-36.28522491455078
-0.37414851784706116,0.03228122740983963,9.7715482711792,0.005021284645168371,0.004250643847997001,-0.004052722605179625,4.160021543502808,2019-08-06 13:49:08:819,177.7759222181503,179.2818983040427,0,-43.18241882324219,44.981685638427734,-36.28522491455078
-0.34301677346229553,0.022702226415276527,9.90086555480957,-0.003236530830246241,0.0013204513144783674,-0.0024544358396442778,4.170032024383545,2019-08-06 13:49:08:829,177.7799770430843,179.29545202351707,0,-43.18241882324219,44.981685638427734,-36.28522491455078
-0.38133275508880615,0.034675974398851395,9.814654350280762,-3.9957173202045016e-05,0.005848930613532348,-0.001655292456876604,4.180035591125488,2019-08-06 13:49:08:839,177.77659182340074,179.30551683054063,0,-43.18241882324219,44.981685638427734,-36.28522491455078
-0.36217474937438965,0.056228723376989365,9.840996742248535,-0.002171006319889343,0.006115311741121573,0.00020937558253977584,4.190039157867432,2019-08-06 13:49:08:849,177.775471318295,179.31407857350592,0,-43.18241882324219,44.981685638427734,-36.28522491455078
-0.36935901641845703,0.05862347409129143,9.826627731323242,-0.0016382440647108938,0.0074472173790676955,-0.0019216735844658289,4.200016498565674,2019-08-06 13:49:08:859,177.77273785438337,179.32187859320044,0,-43.18241882324219,44.981685638427734,-36.28522491455078
-0.376543253660202,0.041860222816467285,9.838602066040039,-0.0008391006169246387,0.009311885272192268,0.004205092610160662,4.210033178329468,2019-08-06 13:49:08:869,177.76821064575816,179.331037472436,0,-43.18241882324219,44.981685638427734,-36.28522491455078
-0.3669642508029938,0.041860222816467285,9.807470321655273,-0.003236530830246241,0.0074472173790676955,-0.0019216735844658289,4.2200164794921875,2019-08-06 13:49:08:879,177.76581530011606,179.34134003130143,0,-42.13284683227539,44.231990814208984,-37.93455505371094
-0.3525957465171814,-0.0012452697847038507,9.824233055114746,0.0004928051185493561,0.009311885272192268,0.00047575672638364575,4.2300286293029785,2019-08-06 13:49:08:889,177.76415429623904,172.15438143550293,0,-42.13284683227539,44.231990814208984,-37.93455505371094
-0.2999112606048584,0.056228723376989365,9.829022407531738,-0.0037692930854246903,0.0074472173790676955,-0.0053846282431257485,4.240024566650391,2019-08-06 13:49:08:899,177.76973702769786,172.30685405133192,0,-42.13284683227539,44.231990814208984,-37.93455505371094
-0.331043004989624,0.056228723376989365,9.812259674072266,-0.0011054818095324445,0.006381692868710797,-0.000856149009090349,4.250032901763916,2019-08-06 13:49:08:909,177.77211009832226,172.4547716671039,0,-42.13284683227539,44.231990814208984,-37.93455505371094
-0.32864826917648315,0.04425497353076935,9.85057544708252,0.0007591862786478714,0.0010540701868891429,-0.00431910373276885,4.260019779205322,2019-08-06 13:49:08:919,177.7778593985714,172.60010237297382,0,-42.13284683227539,44.231990814208984,-37.93455505371094
-0.331043004989624,0.022702226415276527,9.766758918762207,-0.0011054818095324445,0.006381692868710797,-0.002987198094822727,4.270033597946167,2019-08-06 13:49:08:929,177.77988815324673,172.7460583047669,0,-42.13284683227539,44.231990814208984,-37.93455505371094
-0.31667450070381165,0.04664972424507141,9.785917282104492,-0.003502911957835466,0.005049787230764674,-0.002987198094822727,4.2800164222717285,2019-08-06 13:49:08:939,177.78439065923598,172.88763807243583,0,-42.13284683227539,44.231990814208984,-37.93455505371094
-0.3502010107040405,0.06101822108030319,9.876917839050293,-0.0013718629371216693,0.01064379143028704,-0.0003233867214026093,4.2900331020355225,2019-08-06 13:49:08:949,177.782103251821,173.02357767834164,0,-42.13284683227539,44.231990814208984,-37.93455505371094
-0.3502010107040405,0.01072847843170166,9.7715482711792,0.0034229976195586987,0.007979980154394795,-0.001122530201698155,4.300016641616821,2019-08-06 13:49:08:959,177.78093709174507,173.1599291450914,0,-42.13284683227539,44.231990814208984,-37.93455505371094
-0.3382272720336914,0.06820247322320938,9.908049583435059,-0.002703768575067792,0.005316168358353898,-0.0005897678815011245,4.310038089752197,2019-08-06 13:49:08:969,177.78322443130648,173.29036414748538,0,-42.13284683227539,44.231990814208984,-37.93455505371094
-0.32864826917648315,0.041860222816467285,9.869733810424805,-0.003502911957835466,0.004250643847997001,-0.002987198094822727,4.320022106170654,2019-08-06 13:49:08:979,177.78703374116628,173.4216604908184,0,-42.13284683227539,44.231990814208984,-37.93455505371094
-0.3190692663192749,0.041860222816467285,9.838602066040039,-0.0016382440647108938,0.00718083625147847,-0.00431910373276885,4.330047845840454,2019-08-06 13:49:08:989,177.79010123953495,173.54927403190626,0,-42.13284683227539,44.231990814208984,-37.93455505371094
-0.34301677346229553,0.01072847843170166,9.7811279296875,-0.002703768575067792,0.0047834061031754496,0.003405949227392988,4.3400163650512695,2019-08-06 13:49:08:999,177.79145186158317,173.67854503168357,0,-42.13284683227539,44.231990814208984,-37.93455505371094
-0.3525957465171814,0.04425497353076935,9.812259674072266,-0.0037692930854246903,0.005316168358353898,0.00047575672638364575,4.350033521652222,2019-08-06 13:49:09:009,177.79147282654446,173.80192597435573,0,-44.231990814208984,44.231990814208984,-37.63467788696289
-0.331043004989624,0.05143922194838524,9.778733253479004,0.0007591862786478714,0.0039842627204077765,0.0010085190140713856,4.360034227371216,2019-08-06 13:49:09:019,177.79462776720047,173.9194333207978,0,-44.231990814208984,44.231990814208984,-37.63467788696289
-0.3573852479457855,0.07538671791553497,9.874523162841797,0.0010255674062370958,0.005848930613532348,0.00047575672638364575,4.370065212249756,2019-08-06 13:49:09:029,177.79398523203176,174.03171873098785,0,-44.231990814208984,44.231990814208984,-37.63467788696289
-0.3454115092754364,0.0538339726626873,9.824233055114746,-0.0037692930854246903,0.008779123017013819,0.0031395680998037635,4.380048751831055,2019-08-06 13:49:09:039,177.7929113672205,174.14691810040256,0,-44.231990814208984,44.231990814208984,-37.63467788696289
-0.31667450070381165,0.08496572077274323,9.80986499786377,0.0007591862786478714,0.003717881592818551,-0.0032535792224119516,4.390040159225464,2019-08-06 13:49:09:049,177.79798862568816,174.25362900616668,0,-44.231990814208984,44.231990814208984,-37.63467788696289
-0.33583250641822815,0.03228122740983963,9.905654907226562,-0.0008391006169246387,0.0047834061031754496,-0.004052722605179625,4.400048732757568,2019-08-06 13:49:09:059,177.8005054470632,174.3652936087659,0,-44.231990814208984,44.231990814208984,-37.63467788696289
-0.32385876774787903,0.03707072511315346,9.805074691772461,-0.0061667232337277115,0.0074472173790676955,-0.0003233867214026093,4.410041093826294,2019-08-06 13:49:09:069,177.8024814260758,174.47711527642315,0,-44.231990814208984,44.231990814208984,-37.63467788696289
-0.3502010107040405,0.0035442295484244823,9.788311958312988,-0.0005727194893354142,0.006381692868710797,-0.0013889113292873795,4.420041084289551,2019-08-06 13:49:09:079,177.8018680109972,174.58747962962386,0,-44.231990814208984,44.231990814208984,-37.63467788696289
-0.3454115092754364,0.04664972424507141,9.836206436157227,-0.0011054818095324445,0.006648073996300022,-0.00431910373276885,4.430049896240234,2019-08-06 13:49:09:089,177.80187065107782,174.690916670081,0,-44.231990814208984,44.231990814208984,-37.63467788696289
-0.3406220078468323,0.049044474959373474,9.819443702697754,-0.0016382440647108938,0.009578266919930143,0.0010085190140713856,4.4400434494018555,2019-08-06 13:49:09:099,177.8007243332584,174.792294240207,0,-44.231990814208984,44.231990814208984,-37.63467788696289
-0.32146400213241577,0.049044474959373474,9.802680015563965,-0.0013718629371216693,0.005582549485943123,-0.0019216735844658289,4.450042247772217,2019-08-06 13:49:09:109,177.8040105301592,174.89148539930164,0,-44.231990814208984,44.231990814208984,-37.63467788696289
-0.3190692663192749,0.0035442295484244823,9.888891220092773,0.0004928051185493561,0.0047834061031754496,-0.004585484860358075,4.460041284561157,2019-08-06 13:49:09:119,177.80828407255288,174.99296830653282,0,-44.231990814208984,44.231990814208984,-37.63467788696289
-0.3525957465171814,0.03707072511315346,9.843391418457031,-0.0013718629371216693,0.006115311741121573,0.00047575672638364575,4.4700446128845215,2019-08-06 13:49:09:129,177.80765371887338,175.0895639385204,0,-44.08205032348633,45.28156280517578,-37.18486022949219
-0.33583250641822815,0.06101822108030319,9.812259674072266,0.0012919485988449018,0.0039842627204077765,0.0028731869722145387,4.480041265487671,2019-08-06 13:49:09:139,177.81005965274778,175.17992161103896,0,-44.08205032348633,45.28156280517578,-37.18486022949219
-0.34780627489089966,0.03946547582745552,9.783522605895996,0.0020910919816125757,0.00824636128198402,-0.0024544358396442778,4.490049600601196,2019-08-06 13:49:09:149,177.80850388932566,175.2705256033538,0,-44.08205032348633,45.28156280517578,-37.18486022949219
-0.331043004989624,0.041860222816467285,9.864943504333496,0.0020910919816125757,0.0031851193376401022,0.004471473997824211,4.500041484832764,2019-08-06 13:49:09:159,177.81210716615175,175.35907942867112,0,-44.08205032348633,45.28156280517578,-37.18486022949219
-0.3382272720336914,0.029886476695537567,9.840996742248535,-0.0008391006169246387,0.0039842627204077765,-0.004851865987947299,4.510038614273071,2019-08-06 13:49:09:169,177.81425979116412,175.44888879716288,0,-44.08205032348633,45.28156280517578,-37.18486022949219
-0.3262535035610199,0.11370271444320679,9.814654350280762,-0.0011054818095324445,0.005582549485943123,0.001541281334268416,4.520049333572388,2019-08-06 13:49:09:179,177.81675874782246,175.52725758143546,0,-44.08205032348633,45.28156280517578,-37.18486022949219
-0.3454115092754364,0.0538339726626873,9.840996742248535,-3.9957173202045016e-05,0.005848930613532348,-0.0003233867214026093,4.530039310455322,2019-08-06 13:49:09:189,177.81693843594735,175.61046631424247,0,-44.08205032348633,45.28156280517578,-37.18486022949219
-0.33583250641822815,0.03707072511315346,9.864943504333496,-0.002171006319889343,0.00718083625147847,-0.000856149009090349,4.540050983428955,2019-08-06 13:49:09:199,177.81756755878135,175.69517129874518,0,-44.08205032348633,45.28156280517578,-37.18486022949219
