ACCELEROMETER X (m/s²),ACCELEROMETER Y (m/s²),ACCELEROMETER Z (m/s²),GYROSCOPE X (rad/s),GYROSCOPE Y (rad/s),GYROSCOPE Z (rad/s),Time since start in ms ,YYYY-MO-DD HH-MI-SS_SSS,Pitch (Deg),Roll (Deg),Heading (Deg),MagX,MagY,MagZ
0.08551890403032303,0.08762867748737335,9.841724395751953,-0.0011267922997395827,-0.0027304066878267143,-0.0012458645987533845,0.0,2019-08-07 14:30:57:030,-3.5900429055829712,3.5897972743167417,0,-36.28522491455078,31.487178802490234,-23.39047622680664
0.07593990862369537,0.11157617717981339,9.846513748168945,-0.0029914601928641544,-0.004062312325772837,-0.003643294877093568,0.009996414184570312,2019-08-07 14:30:57:040,-7.1071243384011,7.106695993244413,0,-36.28522491455078,31.487178802490234,-23.39047622680664
0.07593990862369537,0.13552367687225342,9.848908424377441,-0.0005940299795425521,-0.007258886116917857,-0.007905393438669812,0.020008325576782227,2019-08-07 14:30:57:050,-10.552065746586864,10.549128900486604,0,-36.28522491455078,31.487178802490234,-23.39047622680664
0.05199240893125534,0.10678667575120926,9.829751014709473,-0.0032578413204533796,-0.008857173402601856,-0.006573487280575038,0.03000044822692871,2019-08-07 14:30:57:060,-13.929994034522117,13.92752585359365,0,-36.28522491455078,31.487178802490234,-23.39047622680664
0.061571408063173294,0.10199718177318573,9.832145690917969,-0.0019259356825072562,-0.004595074841025611,-0.010835585842151283,0.04000520706176758,2019-08-07 14:30:57:070,-17.241636875358235,17.238170134029218,0,-36.28522491455078,31.487178802490234,-23.39047622680664
0.054387159645557404,0.07565493136644363,9.841724395751953,-0.0029914601928641544,-0.0075252672445070825,-0.011634728704770307,0.04999947547912598,2019-08-07 14:30:57:080,-20.48624865879001,20.48627680398339,0,-36.28522491455078,31.487178802490234,-23.39047622680664
0.028044912964105606,0.12115518003702164,9.880040168762207,-0.002192316810096481,-0.004328693453362062,-0.014564921628400425,0.060001373291015625,2019-08-07 14:30:57:090,-23.670839947599447,23.663731261049847,0,-36.28522491455078,31.487178802490234,-23.39047622680664
0.028044912964105606,0.10918142646551132,9.834540367126465,-0.002192316810096481,-0.005394218223793286,-0.015097683883578876,0.06999921798706055,2019-08-07 14:30:57:100,-26.791127185273226,26.778966112326334,0,-36.28522491455078,31.487178802490234,-23.39047622680664
0.03283441439270973,0.1307341754436493,9.841724395751953,0.0010042569160299579,-0.005127837096204061,-0.00897091742887806,0.07999825477600098,2019-08-07 14:30:57:110,-29.848602603144,29.827601891276533,0,-36.28522491455078,31.487178802490234,-23.39047622680664
0.04720291122794151,0.09960243105888367,9.836935043334961,0.003668068256940785,-0.0021976444326482656,-0.012167492000246055,0.09000158309936523,2019-08-07 14:30:57:120,-32.84489748817725,32.81738715025518,0,-36.28522491455078,31.487178802490234,-23.39047622680664
0.09988740086555481,0.13312892615795135,9.832145690917969,0.0055327364101396825,-0.006459742734150184,-0.018027875766911696,0.10002422332763672,2019-08-07 14:30:57:130,-35.772722926900634,35.74241080578565,0,-36.28522491455078,31.487178802490234,-23.39047622680664
0.06396616250276566,0.13791842758655548,9.781855583190918,0.00020511348449834825,-0.006726123861739408,-0.019626163572744344,0.10999131202697754,2019-08-07 14:30:57:140,-38.64601084775456,38.611292130409154,0,-37.18486022949219,30.58754539489746,-23.990232467651367
0.10946640372276306,0.13312892615795135,9.796224594116211,0.004200830512119234,-0.006459742734150184,-0.01935978296530377,0.12001371383666992,2019-08-07 14:30:57:150,-41.45665104416139,41.421130415420755,0,-37.18486022949219,30.58754539489746,-23.990232467651367
0.11186115443706512,0.1570764183998108,9.805803298950195,-0.006987177626851173,-0.0037959311981836125,-0.015630446138757324,0.13000893592834473,2019-08-07 14:30:57:160,-44.212315996517205,44.17827469204422,0,-37.18486022949219,30.58754539489746,-23.990232467651367
0.10467690229415894,0.09241817891597748,9.870461463928223,0.00020511348449834825,-0.005127837096204061,-0.0158968277864952,0.14000844955444336,2019-08-07 14:30:57:170,-46.91303848735205,46.88386501701852,0,-37.18486022949219,30.58754539489746,-23.990232467651367
0.1334138959646225,0.12115518003702164,9.784250259399414,0.00020511348449834825,-0.0027304066878267143,-0.011101966449591856,0.150010347366333,2019-08-07 14:30:57:180,-49.55762005524194,49.531883750001704,0,-37.18486022949219,30.58754539489746,-23.990232467651367
0.12862439453601837,0.12594467401504517,9.848908424377441,0.0015370192362269886,-0.004595074841025611,-0.013233016510602954,0.1599874496459961,2019-08-07 14:30:57:190,-52.14892890025682,52.12573221550807,0,-37.18486022949219,30.58754539489746,-23.990232467651367
0.1262296438217163,0.13791842758655548,9.779460906982422,-0.00272507906527493,-0.006193361606560959,-0.012700254255424506,0.16997790336608887,2019-08-07 14:30:57:200,-54.68768584706091,54.66858661584054,0,-37.18486022949219,30.58754539489746,-23.990232467651367
0.13580864667892456,0.09481292963027954,9.812987327575684,-6.126766340918298e-05,-0.005926980478971734,-0.010569204194413408,0.18003153800964355,2019-08-07 14:30:57:210,-57.17472819149412,57.16417799580102,0,-37.18486022949219,30.58754539489746,-23.990232467651367
0.15496665239334106,0.1307341754436493,9.817776679992676,0.00047149462834221814,-0.006193361606560959,-0.00950367968405651,0.1899864673614502,2019-08-07 14:30:57:220,-59.60968577295209,59.60537269814432,0,-37.18486022949219,30.58754539489746,-23.990232467651367
0.14778240025043488,0.1307341754436493,9.820171356201172,-0.0029914601928641544,-0.004595074841025611,-0.011368348097329731,0.20000386238098145,2019-08-07 14:30:57:230,-61.99766401750602,61.99969339979891,0,-37.18486022949219,30.58754539489746,-23.990232467651367
0.16694039106369019,0.11636567860841751,9.767487525939941,-0.0029914601928641544,-0.003263168943005164,-0.007106249535753488,0.20998835563659668,2019-08-07 14:30:57:240,-64.33629787687893,64.34772532441329,0,-37.18486022949219,30.58754539489746,-23.990232467651367
0.21004588901996613,0.10678667575120926,9.836935043334961,0.004733593027372009,-0.004062312325772837,-0.0017786268539318336,0.2199859619140625,2019-08-07 14:30:57:250,-66.62282671914387,66.64567433716724,0,-37.18486022949219,30.58754539489746,-23.990232467651367
0.17651939392089844,0.13312892615795135,9.839329719543457,0.002336162618994662,-0.0048614559686148365,-0.005774343897807364,0.23001408576965332,2019-08-07 14:30:57:260,-68.86707707447215,68.8959417917127,0,-37.18486022949219,31.187301635742188,-24.589988708496094
0.17651939392089844,0.14749743044376373,9.769882202148438,0.00047149462834221814,-0.004062312325772837,-0.0009794834711641602,0.23998355865478516,2019-08-07 14:30:57:270,-71.06675969572623,71.10046026884802,0,-37.18486022949219,31.187301635742188,-24.589988708496094
0.18370364606380463,0.11397092789411545,9.769882202148438,0.0020697814914054373,-0.005394218223793286,-0.0007131023435749355,0.24998760223388672,2019-08-07 14:30:57:280,-73.22085025418592,73.26392129900378,0,-37.18486022949219,31.187301635742188,-24.589988708496094
0.1717298924922943,0.0972076803445816,9.875250816345215,-0.0016595545549180318,-0.003263168943005164,-0.0017786268539318336,0.25998902320861816,2019-08-07 14:30:57:290,-75.334675343542,75.38829531194894,0,-37.18486022949219,31.187301635742188,-24.589988708496094
0.20046688616275787,0.12833942472934723,9.769882202148438,-0.0011267922997395827,-0.0075252672445070825,0.001950709062354473,0.27000999450683594,2019-08-07 14:30:57:300,-77.40023796069669,77.46611127930682,0,-37.18486022949219,31.187301635742188,-24.589988708496094
0.205256387591362,0.1307341754436493,9.832145690917969,-0.0024586979376857053,-0.0005993576020943366,0.00061880342440835,0.2800107002258301,2019-08-07 14:30:57:310,-79.42797791973463,79.50293381550169,0,-37.18486022949219,31.187301635742188,-24.589988708496094
0.1789141446352005,0.14510267972946167,9.839329719543457,0.0010042569160299579,-0.005926980478971734,0.004614520598321043,0.29004549980163574,2019-08-07 14:30:57:320,-81.41524424784743,81.49541145294188,0,-37.18486022949219,31.187301635742188,-24.589988708496094
0.20765113830566406,0.12594467401504517,9.781855583190918,0.0015370192362269886,-0.0013985010498805918,0.00674556961903484,0.3000171184539795,2019-08-07 14:30:57:330,-83.36183426848211,83.44988940641716,0,-37.18486022949219,31.187301635742188,-24.589988708496094
0.16215088963508606,0.10678667575120926,9.810592651367188,-0.0005940299795425521,-0.0021976444326482656,0.004081758343142595,0.3100001811981201,2019-08-07 14:30:57:340,-85.27442756507514,85.3687519915812,0,-37.18486022949219,31.187301635742188,-24.589988708496094
0.14778240025043488,0.11397092789411545,9.848908424377441,-0.0019259356825072562,-0.0016648821774698163,0.006212807363856391,0.32002782821655273,2019-08-07 14:30:57:350,-87.15080848175973,87.24920148294417,0,-37.18486022949219,31.187301635742188,-24.589988708496094
0.15736140310764313,0.10678667575120926,9.810592651367188,0.001803400363816213,-0.001132119922291367,0.00674556961903484,0.33001041412353516,2019-08-07 14:30:57:360,-88.98877888406322,89.09073400100236,0,-37.18486022949219,31.187301635742188,-24.589988708496094
0.13820339739322662,0.1427079290151596,9.848908424377441,0.003668068256940785,-0.0037959311981836125,0.006479188491445616,0.340010404586792,2019-08-07 14:30:57:370,-90.79079305704332,90.89025687300929,0,-37.18486022949219,31.187301635742188,-24.589988708496094
0.11904539912939072,0.1235499233007431,9.822566032409668,-0.0005940299795425521,-0.0048614559686148365,0.003548996087964146,0.35001230239868164,2019-08-07 14:30:57:380,-92.55835963835915,92.65837258273697,0,-37.18486022949219,31.187301635742188,-24.589988708496094
0.12383490055799484,0.14749743044376373,9.784250259399414,-0.00032764881944403687,-0.003529550070594388,0.0008851845519975746,0.36000680923461914,2019-08-07 14:30:57:390,-94.2907091274558,94.38811565192839,0,-37.484737396240234,29.987789154052734,-22.790719985961914
0.11904539912939072,0.11157617717981339,9.772276878356934,-0.0005940299795425521,-0.002996787815415939,-0.0015122457263426093,0.37003540992736816,2019-08-07 14:30:57:400,-95.9892486427848,96.08760477571445,0,-37.484737396240234,29.987789154052734,-22.790719985961914
0.1405981481075287,0.11157617717981339,9.820171356201172,0.0012706381086377639,-0.003263168943005164,-0.0004467211834764202,0.38001084327697754,2019-08-07 14:30:57:410,-97.65123063218694,97.75212170980004,0,-37.484737396240234,29.987789154052734,-22.790719985961914
0.16215088963508606,0.1043919250369072,9.789039611816406,0.0015370192362269886,-0.0008657387296835611,0.00035242226430983473,0.3900125026702881,2019-08-07 14:30:57:420,-99.2787400046063,99.38399632947085,0,-37.484737396240234,29.987789154052734,-22.790719985961914
0.13101914525032043,0.12115518003702164,9.777066230773926,-0.0019259356825072562,-0.0005993576020943366,-0.004442438259861242,0.40001392364501953,2019-08-07 14:30:57:430,-100.87747351152842,100.98319876832272,0,-37.484737396240234,29.987789154052734,-22.790719985961914
0.107071653008461,0.11636567860841751,9.805803298950195,0.001803400363816213,-0.005394218223793286,-0.004442438259861242,0.41001248359680176,2019-08-07 14:30:57:440,-102.44438363232936,102.54892436526805,0,-37.484737396240234,29.987789154052734,-22.790719985961914
0.15017715096473694,0.08762867748737335,9.779460906982422,-0.00272507906527493,-0.004062312325772837,-0.00257777036673667,0.4200284481048584,2019-08-07 14:30:57:450,-103.97561559928091,104.08921076839215,0,-37.484737396240234,29.987789154052734,-22.790719985961914
0.107071653008461,0.0780496820807457,9.796224594116211,0.0034016871293515603,0.00019978586194656375,-0.008438155693848261,0.4300110340118408,2019-08-07 14:30:57:460,-105.48369103928677,105.59639015043588,0,-37.484737396240234,29.987789154052734,-22.790719985961914
0.12144014984369278,0.0780496820807457,9.832145690917969,-0.0037906035756318283,-0.005394218223793286,-0.00604072502539659,0.44001054763793945,2019-08-07 14:30:57:470,-106.95683564908465,107.07749432989874,0,-37.484737396240234,29.987789154052734,-22.790719985961914
0.12862439453601837,0.11876042932271957,9.820171356201172,-0.0005940299795425521,-0.004062312325772837,-0.007372630663342713,0.4500114917755127,2019-08-07 14:30:57:480,-108.40040941821601,108.52242054534285,0,-37.484737396240234,29.987789154052734,-22.790719985961914
0.07833465933799744,0.11157617717981339,9.762697219848633,0.00047149462834221814,-0.005394218223793286,-0.00604072502539659,0.46002769470214844,2019-08-07 14:30:57:490,-109.82017299023404,109.93861106105814,0,-37.484737396240234,29.987789154052734,-22.790719985961914
0.11186115443706512,0.11636567860841751,9.784250259399414,0.0012706381086377639,-0.0019312633050590406,-0.010569204194413408,0.47001171112060547,2019-08-07 14:30:57:500,-111.2095864349642,111.32549860078981,0,-37.484737396240234,29.987789154052734,-22.790719985961914
0.09030840545892715,0.11397092789411545,9.81538200378418,0.004200830512119234,-0.0019312633050590406,-0.007905393438669812,0.4800069332122803,2019-08-07 14:30:57:510,-112.573767892218,112.68332583860689,0,-36.88498306274414,32.086936950683594,-24.290109634399414
0.1262296438217163,0.14031317830085754,9.77467155456543,-0.0008604111071317767,-0.001132119922291367,-0.008704536821437486,0.48999977111816406,2019-08-07 14:30:57:520,-113.9068598289544,114.01369386854499,0,-36.88498306274414,32.086936950683594,-24.290109634399414
0.10467690229415894,0.09002342820167542,9.789039611816406,0.003135306001762336,-0.007258886116917857,-0.007905393438669812,0.5000109672546387,2019-08-07 14:30:57:530,-115.21238908966062,115.32111960703321,0,-36.88498306274414,32.086936950683594,-24.290109634399414
0.09270315617322922,0.12833942472934723,9.75790786743164,0.0020697814914054373,-0.002996787815415939,-0.004975200515039691,0.5100171566009521,2019-08-07 14:30:57:540,-116.49557134751556,116.5984637015188,0,-36.88498306274414,32.086936950683594,-24.290109634399414
0.11425590515136719,0.1427079290151596,9.753118515014648,-0.0032578413204533796,-0.006726123861739408,-0.004442438259861242,0.5200192928314209,2019-08-07 14:30:57:550,-117.74845883796377,117.85155821613189,0,-36.88498306274414,32.086936950683594,-24.290109634399414
0.07833465933799744,0.14031317830085754,9.81538200378418,0.002602543746583887,-0.0075252672445070825,-0.005507962770218141,0.5300118923187256,2019-08-07 14:30:57:560,-118.98012222508855,119.07668679319201,0,-36.88498306274414,32.086936950683594,-24.290109634399414
0.08312415331602097,0.09960243105888367,9.805803298950195,-0.0005940299795425521,-0.0037959311981836125,-0.004708819387450467,0.540001630783081,2019-08-07 14:30:57:570,-120.18867682182832,120.28384702661955,0,-36.88498306274414,32.086936950683594,-24.290109634399414
0.07833465933799744,0.09481292963027954,9.805803298950195,0.001803400363816213,-0.004062312325772837,-0.0023113892391474454,0.5500030517578125,2019-08-07 14:30:57:580,-121.37346790963736,121.46607775061138,0,-36.88498306274414,32.086936950683594,-24.290109634399414
0.05678191035985947,0.07326018065214157,9.822566032409668,-0.00272507906527493,-0.0008657387296835611,-0.005241581642628916,0.560009241104126,2019-08-07 14:30:57:590,-122.53888794865418,122.62974078447945,0,-36.88498306274414,32.086936950683594,-24.290109634399414
0.061571408063173294,0.08762867748737335,9.827356338500977,0.002602543746583887,-0.009389935657780304,-0.007372630663342713,0.5700008869171143,2019-08-07 14:30:57:600,-123.6756627388287,123.76546822307758,0,-36.88498306274414,32.086936950683594,-24.290109634399414
0.06875565648078918,0.1235499233007431,9.805803298950195,0.003135306001762336,-0.004595074841025611,-0.0007131023435749355,0.5800044536590576,2019-08-07 14:30:57:610,-124.79153371514481,124.87396036191862,0,-36.88498306274414,32.086936950683594,-24.290109634399414
0.04720291122794151,0.1427079290151596,9.75790786743164,0.002602543746583887,-0.003529550070594388,-0.004708819387450467,0.5900039672851562,2019-08-07 14:30:57:620,-125.88817808992742,125.95826225319578,0,-36.88498306274414,32.086936950683594,-24.290109634399414
0.11425590515136719,0.10678667575120926,9.750723838806152,-0.00032764881944403687,-0.006193361606560959,-0.0020450079815210586,0.6000027656555176,2019-08-07 14:30:57:630,-126.9535105190889,127.02673177668979,0,-36.88498306274414,32.086936950683594,-24.290109634399414
0.06636090576648712,0.14031317830085754,9.772276878356934,-0.0005940299795425521,-0.003529550070594388,0.00035242226430983473,0.6100084781646729,2019-08-07 14:30:57:640,-128.00467585384584,128.07007862172935,0,-36.735042572021484,31.037363052368164,-24.739927291870117
0.09030840545892715,0.10678667575120926,9.779460906982422,0.002336162618994662,-0.003263168943005164,-0.003643294877093568,0.6200079917907715,2019-08-07 14:30:57:650,-129.03216850730632,129.0948530502599,0,-36.735042572021484,31.037363052368164,-24.739927291870117
0.07115040719509125,0.12594467401504517,9.791434288024902,0.001803400363816213,-0.0027304066878267143,-0.006573487280575038,0.6300063133239746,2019-08-07 14:30:57:660,-130.04166551459736,130.09720475081377,0,-36.735042572021484,31.037363052368164,-24.739927291870117
0.09988740086555481,0.12115518003702164,9.846513748168945,0.002602543746583887,-0.00566059935138251,-0.0009794834711641602,0.6400043964385986,2019-08-07 14:30:57:670,-131.02603011769457,131.07970054954012,0,-36.735042572021484,31.037363052368164,-24.739927291870117
0.13101914525032043,0.10918142646551132,9.78664493560791,-6.126766340918298e-05,-0.005394218223793286,-0.0020450079815210586,0.6500053405761719,2019-08-07 14:30:57:680,-131.98714030355237,132.04535745034306,0,-36.735042572021484,31.037363052368164,-24.739927291870117
0.10946640372276306,0.1043919250369072,9.769882202148438,0.0010042569160299579,-0.008324410627274756,0.0014179468071760237,0.6600074768066406,2019-08-07 14:30:57:690,-132.9298835080668,132.99164256379055,0,-36.735042572021484,31.037363052368164,-24.739927291870117
0.1334138959646225,0.09002342820167542,9.81538200378418,0.00020511348449834825,-0.004328693453362062,-0.0017786268539318336,0.6700115203857422,2019-08-07 14:30:57:700,-133.85327959764152,133.92118483196467,0,-36.735042572021484,31.037363052368164,-24.739927291870117
0.1262296438217163,0.07565493136644363,9.824960708618164,0.001803400363816213,-0.003263168943005164,-0.002844151494325895,0.6800181865692139,2019-08-07 14:30:57:710,-134.75965877511,134.83292415893885,0,-36.735042572021484,31.037363052368164,-24.739927291870117
0.16694039106369019,0.10918142646551132,9.85609245300293,-0.0019259356825072562,0.0012653104860859794,-0.00257777036673667,0.69000244140625,2019-08-07 14:30:57:720,-135.64576753308344,135.72465195719423,0,-36.735042572021484,31.037363052368164,-24.739927291870117
0.13101914525032043,0.13791842758655548,9.851303100585938,0.00020511348449834825,0.00019978586194656375,-0.00257777036673667,0.7000026702880859,2019-08-07 14:30:57:730,-136.51772495620668,136.5940019527961,0,-36.735042572021484,31.037363052368164,-24.739927291870117
0.12144014984369278,0.09481292963027954,9.846513748168945,-0.0013931734273288073,-0.007258886116917857,0.0008851845519975746,0.7100107669830322,2019-08-07 14:30:57:740,-137.36915908157943,137.45187103311207,0,-36.735042572021484,31.037363052368164,-24.739927291870117
0.13820339739322662,0.1235499233007431,9.772276878356934,0.0007378757884407334,-0.00246402556023749,-0.0007131023435749355,0.7200019359588623,2019-08-07 14:30:57:750,-138.2041886644238,138.28793273724705,0,-36.735042572021484,31.037363052368164,-24.739927291870117
0.11425590515136719,0.11397092789411545,9.851303100585938,-0.0032578413204533796,-0.0021976444326482656,-0.005241581642628916,0.7300035953521729,2019-08-07 14:30:57:760,-139.0255809216601,139.11074701362165,0,-36.13528823852539,31.63711929321289,-24.739927291870117
0.15017715096473694,0.10678667575120926,9.779460906982422,-0.0032578413204533796,-0.0019312633050590406,-0.002844151494325895,0.7400059700012207,2019-08-07 14:30:57:770,-139.82638890791983,139.91784947050223,0,-36.13528823852539,31.63711929321289,-24.739927291870117
0.17651939392089844,0.11157617717981339,9.81538200378418,0.00047149462834221814,-0.002996787815415939,-0.0023113892391474454,0.7500100135803223,2019-08-07 14:30:57:780,-140.60757188327887,140.7062020167638,0,-36.13528823852539,31.63711929321289,-24.739927291870117
0.1262296438217163,0.08283918350934982,9.789039611816406,0.0007378757884407334,-0.004595074841025611,-0.005774343897807364,0.7600083351135254,2019-08-07 14:30:57:790,-141.37806499038416,141.4819667165557,0,-36.13528823852539,31.63711929321289,-24.739927291870117
0.15736140310764313,0.13312892615795135,9.719592094421387,-0.00032764881944403687,-0.004062312325772837,0.00061880342440835,0.7700040340423584,2019-08-07 14:30:57:800,-142.1296727938211,142.23681669156815,0,-36.13528823852539,31.63711929321289,-24.739927291870117
0.12862439453601837,0.12594467401504517,9.868066787719727,0.002336162618994662,-0.003263168943005164,-0.0012458645987533845,0.7800037860870361,2019-08-07 14:30:57:810,-142.87031163454807,142.9761442812923,0,-36.13528823852539,31.63711929321289,-24.739927291870117
0.13580864667892456,0.1307341754436493,9.872856140136719,0.002602543746583887,-0.006459742734150184,-0.0023113892391474454,0.7900032997131348,2019-08-07 14:30:57:820,-143.59351649496588,143.69998706819337,0,-36.13528823852539,31.63711929321289,-24.739927291870117
0.1453876495361328,0.13552367687225342,9.810592651367188,0.0034016871293515603,-0.00246402556023749,-0.005774343897807364,0.8000028133392334,2019-08-07 14:30:57:830,-144.30328208229176,144.40824868834784,0,-36.13528823852539,31.63711929321289,-24.739927291870117
0.12144014984369278,0.10199718177318573,9.853697776794434,0.00393444938453001,-0.0027304066878267143,-0.0031105326219151193,0.8100042343139648,2019-08-07 14:30:57:840,-145.0015611847476,145.10601308306272,0,-36.13528823852539,31.63711929321289,-24.739927291870117
0.11186115443706512,0.12115518003702164,9.77467155456543,0.00020511348449834825,-0.0013985010498805918,-0.007639012311080588,0.8200583457946777,2019-08-07 14:30:57:850,-145.68762719180367,145.7895743504871,0,-36.13528823852539,31.63711929321289,-24.739927291870117
0.1453876495361328,0.13312892615795135,9.755513191223145,-0.0013931734273288073,-0.002996787815415939,-0.004442438259861242,0.8300116062164307,2019-08-07 14:30:57:860,-146.3551233594116,146.4589246686589,0,-36.13528823852539,31.63711929321289,-24.739927291870117
0.12862439453601837,0.1307341754436493,9.812987327575684,-0.004856128085988727,-0.004595074841025611,-0.0041760571322720175,0.8400087356567383,2019-08-07 14:30:57:870,-147.01042219866432,147.1172064684445,0,-36.13528823852539,31.63711929321289,-24.739927291870117
0.11186115443706512,0.10918142646551132,9.78664493560791,0.004200830512119234,-0.006992504989328633,-0.005241581642628916,0.850010871887207,2019-08-07 14:30:57:880,-147.65318941214096,147.7597195814099,0,-36.13528823852539,31.63711929321289,-24.739927291870117
0.11425590515136719,0.1235499233007431,9.762697219848633,0.0020697814914054373,-0.001132119922291367,-0.003909676004682793,0.8600423336029053,2019-08-07 14:30:57:890,-148.28607754309485,148.3888582152436,0,-36.28522491455078,30.88742446899414,-24.290109634399414
0.11425590515136719,0.1235499233007431,9.765092849731445,-0.0024586979376857053,-0.0048614559686148365,8.60411123386422e-05,0.870039701461792,2019-08-07 14:30:57:900,-148.90421990239756,149.007963661597,0,-36.28522491455078,30.88742446899414,-24.290109634399414
0.11425590515136719,0.10199718177318573,9.817776679992676,0.006598260920496581,-0.00566059935138251,-0.0041760571322720175,0.8800036907196045,2019-08-07 14:30:57:910,-149.5096333620847,149.61220829172498,0,-36.28522491455078,30.88742446899414,-24.290109634399414
0.11425590515136719,0.12115518003702164,9.762697219848633,-6.126766340918298e-05,-0.005926980478971734,-0.0068398684081642635,0.890012264251709,2019-08-07 14:30:57:920,-150.10269945306797,150.20577846197142,0,-36.28522491455078,30.88742446899414,-24.290109634399414
0.09270315617322922,0.12115518003702164,9.822566032409668,0.0034016871293515603,-0.004062312325772837,-0.0020450079815210586,0.9000146389007568,2019-08-07 14:30:57:930,-150.68754936847864,150.78561896440453,0,-36.28522491455078,30.88742446899414,-24.290109634399414
0.09030840545892715,0.09960243105888367,9.765092849731445,-0.0005940299795425521,-0.004595074841025611,-0.008438155693848261,0.9100120067596436,2019-08-07 14:30:57:940,-151.26062170967404,151.35855228853524,0,-36.28522491455078,30.88742446899414,-24.290109634399414
0.09988740086555481,0.1235499233007431,9.832145690917969,-0.00032764881944403687,-0.005926980478971734,-0.004708819387450467,0.9199986457824707,2019-08-07 14:30:57:950,-151.820444467691,151.91716624935282,0,-36.28522491455078,30.88742446899414,-24.290109634399414
0.09030840545892715,0.11876042932271957,9.791434288024902,-0.0037906035756318283,-0.00033297644199582136,-0.007106249535753488,0.930042028427124,2019-08-07 14:30:57:960,-152.37327908671335,152.46706243369334,0,-36.28522491455078,30.88742446899414,-24.290109634399414
0.09270315617322922,0.08044443279504776,9.772276878356934,0.0010042569160299579,-0.005926980478971734,-0.003643294877093568,0.9400143623352051,2019-08-07 14:30:57:970,-152.9116245001474,153.00772600356856,0,-36.28522491455078,30.88742446899414,-24.290109634399414
0.08312415331602097,0.14510267972946167,9.853697776794434,0.006331879792907356,-0.004062312325772837,-0.003909676004682793,0.9500186443328857,2019-08-07 14:30:57:980,-153.44144352681354,153.5271414199865,0,-36.28522491455078,30.88742446899414,-24.290109634399414
0.10467690229415894,0.10199718177318573,9.781855583190918,-0.0011267922997395827,-0.003263168943005164,-0.005507962770218141,0.9600152969360352,2019-08-07 14:30:57:990,-153.95852088173174,154.04528283552588,0,-36.28522491455078,30.88742446899414,-24.290109634399414
0.06396616250276566,0.17383967339992523,9.827356338500977,0.001803400363816213,-0.0037959311981836125,-0.0015122457263426093,0.9700133800506592,2019-08-07 14:30:58:000,-154.46976081486613,154.54309636316,0,-36.28522491455078,30.88742446899414,-24.290109634399414
0.07354515790939331,0.1235499233007431,9.822566032409668,0.003668068256940785,-0.00566059935138251,-0.0017786268539318336,0.9800198078155518,2019-08-07 14:30:58:010,-154.96860540634032,155.03576073355134,0,-37.03491973876953,31.33724021911621,-23.240537643432617
0.02325541339814663,0.10199718177318573,9.784250259399414,-6.126766340918298e-05,-0.005394218223793286,-0.004708819387450467,0.990013837814331,2019-08-07 14:30:58:020,-155.46348262890842,155.52313458753125,0,-37.03491973876953,31.33724021911621,-23.240537643432617
0.04480816051363945,0.14510267972946167,9.805803298950195,0.0020697814914054373,-0.004328693453362062,-0.0033769137495043436,1.0000207424163818,2019-08-07 14:30:58:030,-155.94654445442256,155.99455331286902,0,-37.03491973876953,31.33724021911621,-23.240537643432617
0.11186115443706512,0.12115518003702164,9.784250259399414,0.0020697814914054373,-0.001132119922291367,-0.004708819387450467,1.0100061893463135,2019-08-07 14:30:58:040,-156.41387837964368,156.45931298457194,0,-37.03491973876953,31.33724021911621,-23.240537643432617
0.10946640372276306,0.07565493136644363,9.791434288024902,0.00047149462834221814,-0.003529550070594388,-0.0023113892391474454,1.0200178623199463,2019-08-07 14:30:58:050,-156.87080607286128,156.9210077661149,0,-37.03491973876953,31.33724021911621,-23.240537643432617
0.12862439453601837,0.1498921662569046,9.78664493560791,0.00047149462834221814,-0.0048614559686148365,-0.0009794834711641602,1.030015468597412,2019-08-07 14:30:58:060,-157.3156011756519,157.36477346980914,0,-37.03491973876953,31.33724021911621,-23.240537643432617
0.12383490055799484,0.09481292963027954,9.877645492553711,-0.0005940299795425521,-0.006459742734150184,-0.007372630663342713,1.0400199890136719,2019-08-07 14:30:58:070,-157.75129491696993,157.80681269266168,0,-37.03491973876953,31.33724021911621,-23.240537643432617
0.09030840545892715,0.15468166768550873,9.86567211151123,-0.0013931734273288073,-0.00246402556023749,0.0014179468071760237,1.0500140190124512,2019-08-07 14:30:58:080,-158.1843971065746,158.23349315438207,0,-37.03491973876953,31.33724021911621,-23.240537643432617
0.11425590515136719,0.09481292963027954,9.793828964233398,0.00047149462834221814,-0.002996787815415939,0.00035242226430983473,1.0600159168243408,2019-08-07 14:30:58:090,-158.60565837967513,158.65746536721585,0,-37.03491973876953,31.33724021911621,-23.240537643432617
0.09749265760183334,0.08044443279504776,9.805803298950195,0.002336162618994662,-0.00566059935138251,-0.010302823586972834,1.070183515548706,2019-08-07 14:30:58:101,-159.01892081314315,159.07358172016063,0,-37.03491973876953,31.33724021911621,-23.240537643432617
0.1334138959646225,0.12833942472934723,9.78664493560791,0.0007378757884407334,-0.006193361606560959,-0.0020450079815210586,1.0800230503082275,2019-08-07 14:30:58:110,-159.41950020641204,159.47667605087335,0,-37.03491973876953,31.33724021911621,-23.240537643432617
0.1405981481075287,0.1235499233007431,9.868066787719727,-0.0013931734273288073,-0.00566059935138251,-0.00257777036673667,1.0899991989135742,2019-08-07 14:30:58:120,-159.81161370381733,159.8735766148656,0,-37.03491973876953,31.33724021911621,-23.240537643432617
0.10946640372276306,0.13552367687225342,9.812987327575684,-0.00032764881944403687,0.0004661670057904337,-0.0004467211834764202,1.1000030040740967,2019-08-07 14:30:58:130,-160.20286082781797,160.26046430045741,0,-37.03491973876953,31.33724021911621,-23.240537643432617
0.11904539912939072,0.09241817891597748,9.784250259399414,0.00047149462834221814,-0.0019312633050590406,0.00035242226430983473,1.1099817752838135,2019-08-07 14:30:58:140,-160.58377979462813,160.64416728688448,0,-36.43516540527344,31.63711929321289,-23.240537643432617
0.15017715096473694,0.09002342820167542,9.736355781555176,0.00393444938453001,-0.00246402556023749,-0.0023113892391474454,1.1199805736541748,2019-08-07 14:30:58:150,-160.9530471937903,161.0184800575811,0,-36.43516540527344,31.63711929321289,-23.240537643432617
0.152571901679039,0.14510267972946167,9.793828964233398,-0.0016595545549180318,-0.003529550070594388,-0.002844151494325895,1.1299796104431152,2019-08-07 14:30:58:160,-161.3141545488704,161.3820658757381,0,-36.43516540527344,31.63711929321289,-23.240537643432617
0.11425590515136719,0.10918142646551132,9.817776679992676,0.0010042569160299579,-0.00566059935138251,-0.002844151494325895,1.1399869918823242,2019-08-07 14:30:58:170,-161.67135552377545,161.74111729249228,0,-36.43516540527344,31.63711929321289,-23.240537643432617
0.1262296438217163,0.11636567860841751,9.817776679992676,0.0020697814914054373,-0.0021976444326482656,0.0016843279347652483,1.1499812602996826,2019-08-07 14:30:58:180,-162.0219626307123,162.09155204860684,0,-36.43516540527344,31.63711929321289,-23.240537643432617
0.12862439453601837,0.13312892615795135,9.824960708618164,-0.0005940299795425521,-0.003263168943005164,-0.00257777036673667,1.1600074768066406,2019-08-07 14:30:58:190,-162.36468530516785,162.43452914039995,0,-36.43516540527344,31.63711929321289,-23.240537643432617
0.09749265760183334,0.10918142646551132,9.801013946533203,0.0034016871293515603,-0.00246402556023749,-0.004442438259861242,1.1699798107147217,2019-08-07 14:30:58:200,-162.70461360280618,162.77116904606999,0,-36.43516540527344,31.63711929321289,-23.240537643432617
0.13580864667892456,0.09002342820167542,9.824960708618164,-0.0037906035756318283,-0.002996787815415939,-0.0009794834711641602,1.1799829006195068,2019-08-07 14:30:58:210,-163.03299934426428,163.10737532419373,0,-36.43516540527344,31.63711929321289,-23.240537643432617
0.0807294100522995,0.14031317830085754,9.810592651367188,0.0028689248741731116,-0.003529550070594388,0.00035242226430983473,1.189978837966919,2019-08-07 14:30:58:220,-163.36092902697283,163.42722956411362,0,-36.43516540527344,31.63711929321289,-23.240537643432617
0.1334138959646225,0.09960243105888367,9.810592651367188,-0.0011267922997395827,-0.002996787815415939,-0.0017786268539318336,1.2004897594451904,2019-08-07 14:30:58:231,-163.67635947747584,163.74771643699373,0,-36.43516540527344,31.63711929321289,-23.240537643432617
0.05678191035985947,0.10918142646551132,9.84411907196045,-6.126766340918298e-05,-0.005394218223793286,-0.002844151494325895,1.21000075340271,2019-08-07 14:30:58:240,-163.99334186624233,164.06008596384441,0,-36.43516540527344,31.63711929321289,-23.240537643432617
0.09749265760183334,0.09241817891597748,9.765092849731445,0.0015370192362269886,-0.004595074841025611,-0.0041760571322720175,1.2200312614440918,2019-08-07 14:30:58:250,-164.29944682617028,164.3671737987758,0,-36.43516540527344,31.63711929321289,-23.240537643432617
0.08312415331602097,0.08762867748737335,9.769882202148438,-0.0029914601928641544,-0.001132119922291367,-0.004975200515039691,1.2299983501434326,2019-08-07 14:30:58:260,-164.6030748493172,164.6712267487595,0,-36.58510208129883,31.787057876586914,-23.990232467651367
0.06875565648078918,0.13791842758655548,9.793828964233398,0.0010042569160299579,-0.00246402556023749,-0.003909676004682793,1.2399964332580566,2019-08-07 14:30:58:270,-164.90158552691585,164.96110251401495,0,-36.58510208129883,31.787057876586914,-23.990232467651367
0.09270315617322922,0.1043919250369072,9.810592651367188,-0.0032578413204533796,-0.003529550070594388,-0.008704536821437486,1.2500081062316895,2019-08-07 14:30:58:280,-165.19074189648472,165.25151894756323,0,-36.58510208129883,31.787057876586914,-23.990232467651367
0.08791365474462509,0.13312892615795135,9.801013946533203,0.003135306001762336,-0.00246402556023749,-0.005774343897807364,1.2600131034851074,2019-08-07 14:30:58:290,-165.4752644013767,165.52916299946926,0,-36.58510208129883,31.787057876586914,-23.990232467651367
0.08551890403032303,0.13791842758655548,9.812987327575684,-0.00032764881944403687,-0.005394218223793286,-0.003909676004682793,1.2700164318084717,2019-08-07 14:30:58:300,-165.7527430070341,165.80265935488268,0,-36.58510208129883,31.787057876586914,-23.990232467651367
0.08791365474462509,0.1498921662569046,9.860882759094238,0.0007378757884407334,-0.003263168943005164,-0.0015122457263426093,1.280012607574463,2019-08-07 14:30:58:310,-166.02564056438845,166.06877465020318,0,-36.58510208129883,31.787057876586914,-23.990232467651367
0.09270315617322922,0.1307341754436493,9.793828964233398,-0.0008604111071317767,-0.0021976444326482656,-0.005774343897807364,1.2900071144104004,2019-08-07 14:30:58:320,-166.29304815531435,166.33258651946176,0,-36.58510208129883,31.787057876586914,-23.990232467651367
0.08312415331602097,0.11636567860841751,9.78664493560791,0.00020511348449834825,-0.005127837096204061,-0.0012458645987533845,1.3000006675720215,2019-08-07 14:30:58:330,-166.5545770244448,166.59219510880953,0,-36.58510208129883,31.787057876586914,-23.990232467651367
0.15017715096473694,0.12833942472934723,9.77467155456543,-0.002192316810096481,-0.005127837096204061,-0.004708819387450467,1.310011863708496,2019-08-07 14:30:58:340,-166.80299863051974,166.84653879651933,0,-36.58510208129883,31.787057876586914,-23.990232467651367
0.1453876495361328,0.08762867748737335,9.750723838806152,-0.0024586979376857053,-0.0013985010498805918,-0.005774343897807364,1.3200154304504395,2019-08-07 14:30:58:350,-167.04906827392446,167.10069112900982,0,-36.58510208129883,31.787057876586914,-23.990232467651367
0.07593990862369537,0.14031317830085754,9.772276878356934,-0.0024586979376857053,-0.0027304066878267143,-0.00604072502539659,1.3300070762634277,2019-08-07 14:30:58:360,-167.29765039214655,167.3436044516431,0,-36.58510208129883,31.787057876586914,-23.990232467651367
0.1262296438217163,0.11636567860841751,9.801013946533203,0.00020511348449834825,-0.0027304066878267143,-0.003909676004682793,1.3400077819824219,2019-08-07 14:30:58:370,-167.5354064466501,167.5830125727389,0,-36.58510208129883,31.787057876586914,-23.990232467651367
0.1262296438217163,0.09481292963027954,9.822566032409668,-0.004056984703221053,-0.0016648821774698163,-0.006573487280575038,1.34999680519104,2019-08-07 14:30:58:380,-167.769039181878,167.82256713416174,0,-36.58510208129883,31.787057876586914,-23.990232467651367
0.10467690229415894,0.09002342820167542,9.851303100585938,-0.0032578413204533796,-0.0075252672445070825,-0.008704536821437486,1.3600120544433594,2019-08-07 14:30:58:390,-167.99725084075382,168.05747651097153,0,-37.33479690551758,32.236873626708984,-23.240537643432617
0.11425590515136719,0.10199718177318573,9.71719741821289,0.001803400363816213,-0.007258886116917857,-0.0015122457263426093,1.3700127601623535,2019-08-07 14:30:58:400,-168.21975649751897,168.28328656815893,0,-37.33479690551758,32.236873626708984,-23.240537643432617
0.14299289882183075,0.15947116911411285,9.767487525939941,-0.003524222448042604,-0.003263168943005164,-0.0009794834711641602,1.3800125122070312,2019-08-07 14:30:58:410,-168.43675450801857,168.50089223710407,0,-37.33479690551758,32.236873626708984,-23.240537643432617
0.10228215157985687,0.13312892615795135,9.836935043334961,0.001803400363816213,-0.005394218223793286,-0.0004467211834764202,1.3900020122528076,2019-08-07 14:30:58:420,-168.65307921880787,168.71435545762046,0,-37.33479690551758,32.236873626708984,-23.240537643432617
0.07593990862369537,0.12594467401504517,9.801013946533203,-0.0011267922997395827,-0.006726123861739408,-0.011101966449591856,1.3999993801116943,2019-08-07 14:30:58:430,-168.86736334958064,168.92597647706415,0,-37.33479690551758,32.236873626708984,-23.240537643432617
0.11665065586566925,0.1690501719713211,9.798619270324707,0.0020697814914054373,-0.004062312325772837,-0.002844151494325895,1.4100115299224854,2019-08-07 14:30:58:440,-169.0740910706659,169.126525467704,0,-37.33479690551758,32.236873626708984,-23.240537643432617
0.107071653008461,0.11636567860841751,9.798619270324707,0.0007378757884407334,-0.0019312633050590406,-0.005241581642628916,1.4200170040130615,2019-08-07 14:30:58:450,-169.2790030823185,169.32997247999057,0,-37.33479690551758,32.236873626708984,-23.240537643432617
0.1405981481075287,0.14510267972946167,9.78664493560791,0.0012706381086377639,-0.001132119922291367,-0.004708819387450467,1.4300141334533691,2019-08-07 14:30:58:460,-169.47632605292029,169.52567098517034,0,-37.33479690551758,32.236873626708984,-23.240537643432617
0.13101914525032043,0.1235499233007431,9.841724395751953,0.002336162618994662,-0.0037959311981836125,0.0016843279347652483,1.4400100708007812,2019-08-07 14:30:58:470,-169.66941474892053,169.71946163672845,0,-37.33479690551758,32.236873626708984,-23.240537643432617
0.11425590515136719,0.13791842758655548,9.801013946533203,-0.00032764881944403687,-0.00912355401004243,-0.0017786268539318336,1.4500117301940918,2019-08-07 14:30:58:480,-169.8575447663859,169.9091323173683,0,-37.33479690551758,32.236873626708984,-23.240537643432617
0.12144014984369278,0.10678667575120926,9.899198532104492,0.003668068256940785,-0.0048614559686148365,-0.00018034003963255039,1.4600143432617188,2019-08-07 14:30:58:490,-170.0436064420238,170.09652853999614,0,-37.33479690551758,32.236873626708984,-23.240537643432617
0.12862439453601837,0.14510267972946167,9.762697219848633,0.0010042569160299579,-0.006459742734150184,-0.003643294877093568,1.470005750656128,2019-08-07 14:30:58:500,-170.2240136278622,170.2770041093217,0,-37.33479690551758,32.236873626708984,-23.240537643432617
0.11186115443706512,0.08523393422365189,9.805803298950195,0.003135306001762336,-0.00246402556023749,0.00035242226430983473,1.4800028800964355,2019-08-07 14:30:58:510,-170.40507857053447,170.4597437938713,0,-36.28522491455078,31.787057876586914,-23.690353393554688
0.11665065586566925,0.11636567860841751,9.81538200378418,0.0020697814914054373,-0.00566059935138251,-0.003909676004682793,1.4900023937225342,2019-08-07 14:30:58:520,-170.58018077152983,170.6358020972067,0,-36.28522491455078,31.787057876586914,-23.690353393554688
0.09988740086555481,0.11636567860841751,9.777066230773926,0.00047149462834221814,-0.0016648821774698163,0.00035242226430983473,1.5000100135803223,2019-08-07 14:30:58:530,-170.75593477492833,170.80918317946782,0,-36.28522491455078,31.787057876586914,-23.690353393554688
0.09988740086555481,0.15468166768550873,9.85609245300293,0.002336162618994662,-0.006193361606560959,-0.007372630663342713,1.5099992752075195,2019-08-07 14:30:58:540,-170.92572926896133,170.97370663160714,0,-36.28522491455078,31.787057876586914,-23.690353393554688
0.09270315617322922,0.1043919250369072,9.839329719543457,0.0055327364101396825,-0.008857173402601856,-0.005774343897807364,1.5200309753417969,2019-08-07 14:30:58:550,-171.09142948049518,171.1389587104034,0,-36.28522491455078,31.787057876586914,-23.690353393554688
0.054387159645557404,0.1307341754436493,9.77467155456543,0.002602543746583887,-0.002996787815415939,-0.003909676004682793,1.5300192832946777,2019-08-07 14:30:58:560,-171.26154425346994,171.29939445388112,0,-36.28522491455078,31.787057876586914,-23.690353393554688
0.10467690229415894,0.1235499233007431,9.805803298950195,0.00020511348449834825,-0.004062312325772837,-0.006307106152985815,1.53999662399292,2019-08-07 14:30:58:570,-171.42180537540685,171.45885425610078,0,-36.28522491455078,31.787057876586914,-23.690353393554688
0.10467690229415894,0.12833942472934723,9.84411907196045,-0.0011267922997395827,-0.0016648821774698163,-0.00257777036673667,1.5500001907348633,2019-08-07 14:30:58:580,-171.58024953379635,171.61537144234396,0,-36.28522491455078,31.787057876586914,-23.690353393554688
0.13820339739322662,0.12833942472934723,9.827356338500977,-0.0011267922997395827,-0.006726123861739408,-0.00950367968405651,1.5600054264068604,2019-08-07 14:30:58:590,-171.72875175780482,171.76873291217703,0,-36.28522491455078,31.787057876586914,-23.690353393554688
0.049597661942243576,0.10678667575120926,9.841724395751953,0.003135306001762336,-0.0027304066878267143,-0.0009794834711641602,1.5700249671936035,2019-08-07 14:30:58:600,-171.88686578046125,171.9191611857514,0,-36.28522491455078,31.787057876586914,-23.690353393554688
0.10946640372276306,0.11636567860841751,9.836935043334961,-0.00272507906527493,-0.0027304066878267143,-0.00257777036673667,1.5799853801727295,2019-08-07 14:30:58:610,-172.03485007663127,172.06874709680832,0,-36.28522491455078,31.787057876586914,-23.690353393554688
0.107071653008461,0.11876042932271957,9.796224594116211,-0.0008604111071317767,-0.0016648821774698163,-0.005507962770218141,1.589982032775879,2019-08-07 14:30:58:620,-172.1806943267982,172.21396376521156,0,-36.28522491455078,31.787057876586914,-23.690353393554688
0.13580864667892456,0.12594467401504517,9.777066230773926,0.003135306001762336,-0.005926980478971734,-0.006573487280575038,1.6000123023986816,2019-08-07 14:30:58:630,-172.31782602207238,172.35315823215652,0,-36.28522491455078,31.787057876586914,-23.690353393554688
0.10946640372276306,0.09960243105888367,9.736355781555176,0.0015370192362269886,-0.001132119922291367,-0.008171774566259036,1.609997272491455,2019-08-07 14:30:58:640,-172.45795172169608,172.49351108035881,0,-37.78461456298828,31.187301635742188,-24.589988708496094
0.11425590515136719,0.14510267972946167,9.84411907196045,0.0010042569160299579,-0.0013985010498805918,-0.007905393438669812,1.6199820041656494,2019-08-07 14:30:58:650,-172.59470914169324,172.62618821570464,0,-37.78461456298828,31.187301635742188,-24.589988708496094
0.07833465933799744,0.12115518003702164,9.791434288024902,0.0015370192362269886,-0.00805802949968553,-0.004975200515039691,1.6299850940704346,2019-08-07 14:30:58:660,-172.7291214863221,172.7586227859526,0,-37.78461456298828,31.187301635742188,-24.589988708496094
0.11425590515136719,0.09481292963027954,9.832145690917969,0.0034016871293515603,-0.00246402556023749,-0.0031105326219151193,1.6399831771850586,2019-08-07 14:30:58:670,-172.85984009233815,172.89049075163766,0,-37.78461456298828,31.187301635742188,-24.589988708496094
0.09749265760183334,0.12594467401504517,9.8034086227417,0.00047149462834221814,-0.005127837096204061,-0.004708819387450467,1.6499886512756348,2019-08-07 14:30:58:680,-172.9883669478769,173.0176952472054,0,-37.78461456298828,31.187301635742188,-24.589988708496094
0.12144014984369278,0.1570764183998108,9.77467155456543,0.00020511348449834825,-0.002996787815415939,-0.006573487280575038,1.6600003242492676,2019-08-07 14:30:58:690,-173.1126788729059,173.13881305755604,0,-37.78461456298828,31.187301635742188,-24.589988708496094
0.09988740086555481,0.0972076803445816,9.753118515014648,0.0007378757884407334,-0.004328693453362062,-0.004975200515039691,1.6699872016906738,2019-08-07 14:30:58:700,-173.23626234685022,173.26420225540033,0,-37.78461456298828,31.187301635742188,-24.589988708496094
0.11425590515136719,0.11636567860841751,9.851303100585938,0.00020511348449834825,-0.004062312325772837,-0.0033769137495043436,1.6800029277801514,2019-08-07 14:30:58:710,-173.3559627396242,173.38526769007788,0,-37.78461456298828,31.187301635742188,-24.589988708496094
0.09749265760183334,0.11397092789411545,9.791434288024902,0.00047149462834221814,-0.006459742734150184,0.00061880342440835,1.6900053024291992,2019-08-07 14:30:58:720,-173.4738060587553,173.50395983469184,0,-37.78461456298828,31.187301635742188,-24.589988708496094
0.10467690229415894,0.1498921662569046,9.808197975158691,-0.0029914601928641544,-0.0013985010498805918,-0.0068398684081642635,1.700087308883667,2019-08-07 14:30:58:730,-173.59130904910106,173.61806321077242,0,-37.78461456298828,31.187301635742188,-24.589988708496094
0.09030840545892715,0.13552367687225342,9.767487525939941,-0.00272507906527493,-0.0021976444326482656,-0.003909676004682793,1.7099847793579102,2019-08-07 14:30:58:740,-173.70766692130297,173.7313178527167,0,-37.78461456298828,31.187301635742188,-24.589988708496094
0.09988740086555481,0.1043919250369072,9.839329719543457,0.0015370192362269886,-0.00246402556023749,-0.0017786268539318336,1.7200453281402588,2019-08-07 14:30:58:750,-173.82048889492853,173.84366591931925,0,-37.78461456298828,31.187301635742188,-24.589988708496094
0.12383490055799484,0.11636567860841751,9.784250259399414,-0.00032764881944403687,-0.002996787815415939,-0.0023113892391474454,1.7300162315368652,2019-08-07 14:30:58:760,-173.92789875158223,173.95334812215089,0,-37.03491973876953,32.236873626708984,-24.440048217773438
0.09988740086555481,0.09241817891597748,9.8034086227417,-0.0011267922997395827,-0.0016648821774698163,0.0016843279347652483,1.740098476409912,2019-08-07 14:30:58:770,-174.03672287407073,174.0641166603487,0,-37.03491973876953,32.236873626708984,-24.440048217773438
0.08551890403032303,0.12594467401504517,9.772276878356934,-0.002192316810096481,-0.0027304066878267143,-0.00018034003963255039,1.7500226497650146,2019-08-07 14:30:58:780,-174.14443907032518,174.16928828385718,0,-37.03491973876953,32.236873626708984,-24.440048217773438
0.09270315617322922,0.1427079290151596,9.829751014709473,0.0020697814914054373,0.0004661670057904337,0.001950709062354473,1.760010004043579,2019-08-07 14:30:58:790,-174.25100504338226,174.26810662067248,0,-37.03491973876953,32.236873626708984,-24.440048217773438
0.0807294100522995,0.14510267972946167,9.875250816345215,0.006598260920496581,-0.005926980478971734,0.00035242226430983473,1.7700605392456055,2019-08-07 14:30:58:800,-174.35327257050378,174.3621844726163,0,-37.03491973876953,32.236873626708984,-24.440048217773438
0.11186115443706512,0.09481292963027954,9.820171356201172,0.004200830512119234,-0.0048614559686148365,-0.004975200515039691,1.780015230178833,2019-08-07 14:30:58:810,-174.45043727494857,174.46152933485337,0,-37.03491973876953,32.236873626708984,-24.440048217773438
0.11186115443706512,0.1307341754436493,9.820171356201172,0.002602543746583887,-0.005127837096204061,-0.0023113892391474454,1.7901184558868408,2019-08-07 14:30:58:820,-174.54546702313863,174.55556787170264,0,-37.03491973876953,32.236873626708984,-24.440048217773438
0.10228215157985687,0.1427079290151596,9.779460906982422,0.004467211899782784,-0.001132119922291367,-0.0041760571322720175,1.800002098083496,2019-08-07 14:30:58:830,-174.6419448455062,174.6452566465738,0,-37.03491973876953,32.236873626708984,-24.440048217773438
0.10228215157985687,0.1043919250369072,9.81538200378418,0.0020697814914054373,-0.0027304066878267143,-0.003643294877093568,1.8101229667663574,2019-08-07 14:30:58:840,-174.73561360465405,174.73898831110566,0,-37.03491973876953,32.236873626708984,-24.440048217773438
0.12383490055799484,0.12833942472934723,9.793828964233398,0.0020697814914054373,-0.002996787815415939,-0.0015122457263426093,1.8199901580810547,2019-08-07 14:30:58:850,-174.8247526011692,174.82804645414646,0,-37.03491973876953,32.236873626708984,-24.440048217773438
0.09509790688753128,0.10918142646551132,9.829751014709473,-0.0019259356825072562,0.0009989292934781736,0.00061880342440835,1.830026626586914,2019-08-07 14:30:58:860,-174.91773467981997,174.9198434403119,0,-37.03491973876953,32.236873626708984,-24.440048217773438
0.09509790688753128,0.10678667575120926,9.810592651367188,0.003135306001762336,-0.004062312325772837,-0.00257777036673667,1.8399896621704102,2019-08-07 14:30:58:870,-175.00599997533806,175.00722000013127,0,-37.03491973876953,32.236873626708984,-24.440048217773438
0.11665065586566925,0.11157617717981339,9.820171356201172,0.00047149462834221814,-0.0019312633050590406,-0.010569204194413408,1.8500025272369385,2019-08-07 14:30:58:880,-175.09118285660452,175.0937912543748,0,-37.03491973876953,32.236873626708984,-24.440048217773438
0.12383490055799484,0.16665542125701904,9.721986770629883,-0.0005940299795425521,-0.0027304066878267143,-0.0031105326219151193,1.859994888305664,2019-08-07 14:30:58:890,-175.17323181150545,175.17260722772917,0,-36.735042572021484,31.936996459960938,-23.240537643432617
0.10228215157985687,0.1235499233007431,9.767487525939941,0.00047149462834221814,-0.003263168943005164,0.0008851845519975746,1.8700008392333984,2019-08-07 14:30:58:900,-175.25593457986312,175.25439615449423,0,-36.735042572021484,31.936996459960938,-23.240537643432617
0.09988740086555481,0.11876042932271957,9.77467155456543,-0.0005940299795425521,-0.0019312633050590406,0.00035242226430983473,1.8799965381622314,2019-08-07 14:30:58:910,-175.33802224535526,175.33571966010874,0,-36.735042572021484,31.936996459960938,-23.240537643432617
0.13820339739322662,0.12115518003702164,9.81538200378418,0.0015370192362269886,-0.0037959311981836125,-0.005507962770218141,1.8900089263916016,2019-08-07 14:30:58:920,-175.41299399535123,175.41399738805976,0,-36.735042572021484,31.936996459960938,-23.240537643432617
0.13101914525032043,0.11636567860841751,9.805803298950195,0.0034016871293515603,-0.003529550070594388,0.0008851845519975746,1.899993658065796,2019-08-07 14:30:58:930,-175.4874451917264,175.49021234726155,0,-36.735042572021484,31.936996459960938,-23.240537643432617
0.14299289882183075,0.08283918350934982,9.810592651367188,0.0020697814914054373,-0.00566059935138251,-0.006573487280575038,1.910027027130127,2019-08-07 14:30:58:940,-175.55780631574302,175.56956633207926,0,-36.735042572021484,31.936996459960938,-23.240537643432617
0.09270315617322922,0.1570764183998108,9.822566032409668,-6.126766340918298e-05,-0.003263168943005164,-0.003909676004682793,1.9200282096862793,2019-08-07 14:30:58:950,-175.63400313679992,175.63988619757455,0,-36.735042572021484,31.936996459960938,-23.240537643432617
0.15736140310764313,0.08762867748737335,9.851303100585938,-0.0037906035756318283,-0.0021976444326482656,-0.0031105326219151193,1.930025339126587,2019-08-07 14:30:58:960,-175.70178654021976,175.71902347559364,0,-36.735042572021484,31.936996459960938,-23.240537643432617
0.11904539912939072,0.07086542993783951,9.846513748168945,0.002336162618994662,-0.007791648372096307,-0.010302823586972834,1.9400384426116943,2019-08-07 14:30:58:970,-175.76951651021093,175.79508251477898,0,-36.735042572021484,31.936996459960938,-23.240537643432617
0.13580864667892456,0.15468166768550873,9.772276878356934,0.002336162618994662,-0.002996787815415939,-0.0020450079815210586,1.9500136375427246,2019-08-07 14:30:58:980,-175.8365235091099,175.859735617098,0,-36.735042572021484,31.936996459960938,-23.240537643432617
0.13820339739322662,0.10678667575120926,9.796224594116211,0.00020511348449834825,-6.659528596096748e-05,-0.0068398684081642635,1.9600276947021484,2019-08-07 14:30:58:990,-175.9035902919013,175.9299346710762,0,-36.735042572021484,31.936996459960938,-23.240537643432617
0.1717298924922943,0.1307341754436493,9.781855583190918,0.003668068256940785,-0.0016648821774698163,-0.0004467211834764202,1.9700050354003906,2019-08-07 14:30:59:000,-175.96447019024785,175.99396681718272,0,-36.735042572021484,31.936996459960938,-23.240537643432617
0.09749265760183334,0.12594467401504517,9.748329162597656,0.002602543746583887,-0.00246402556023749,8.60411123386422e-05,1.9800348281860352,2019-08-07 14:30:59:010,-176.03233324265832,176.05781783607753,0,-38.08449172973633,32.68669128417969,-23.090599060058594
0.1453876495361328,0.13312892615795135,9.772276878356934,-0.0032578413204533796,-0.0013985010498805918,-0.003643294877093568,1.9900126457214355,2019-08-07 14:30:59:020,-176.09385589135366,176.1228767120854,0,-38.08449172973633,32.68669128417969,-23.090599060058594
0.08791365474462509,0.12115518003702164,9.798619270324707,-0.00032764881944403687,-0.00566059935138251,-0.005241581642628916,2.000040292739868,2019-08-07 14:30:59:030,-176.15851063672824,176.18643569172062,0,-38.08449172973633,32.68669128417969,-23.090599060058594
0.12862439453601837,0.1307341754436493,9.805803298950195,0.0028689248741731116,-0.0075252672445070825,-0.00257777036673667,2.0100247859954834,2019-08-07 14:30:59:040,-176.2160912406712,176.24582176227452,0,-38.08449172973633,32.68669128417969,-23.090599060058594
0.1334138959646225,0.10918142646551132,9.767487525939941,0.0055327364101396825,-0.007258886116917857,0.0022170901899436976,2.0200254917144775,2019-08-07 14:30:59:050,-176.2720422111305,176.30498991990927,0,-38.08449172973633,32.68669128417969,-23.090599060058594
0.15017715096473694,0.12115518003702164,9.822566032409668,0.007663785430853478,-0.0037959311981836125,-0.0041760571322720175,2.030027151107788,2019-08-07 14:30:59:060,-176.32695107160973,176.3604527702842,0,-38.08449172973633,32.68669128417969,-23.090599060058594
0.1334138959646225,0.11876042932271957,9.836935043334961,-0.0013931734273288073,-6.659528596096748e-05,8.60411123386422e-05,2.0400278568267822,2019-08-07 14:30:59:070,-176.38483407289223,176.42019217162039,0,-38.08449172973633,32.68669128417969,-23.090599060058594
0.13580864667892456,0.12115518003702164,9.834540367126465,0.0012706381086377639,0.0009989292934781736,0.00061880342440835,2.05002760887146,2019-08-07 14:30:59:080,-176.4418749270147,176.4769586590797,0,-38.08449172973633,32.68669128417969,-23.090599060058594
0.12144014984369278,0.12594467401504517,9.882434844970703,0.0012706381086377639,-0.005394218223793286,-0.004975200515039691,2.06003999710083,2019-08-07 14:30:59:090,-176.49592397256717,176.53210204366508,0,-38.08449172973633,32.68669128417969,-23.090599060058594
0.11425590515136719,0.07326018065214157,9.829751014709473,-0.0037906035756318283,-0.002996787815415939,-0.004708819387450467,2.070002794265747,2019-08-07 14:30:59:100,-176.55101013484943,176.59504026362248,0,-38.08449172973633,32.68669128417969,-23.090599060058594
0.13820339739322662,0.13312892615795135,9.81538200378418,0.0007378757884407334,0.00019978586194656375,0.0008851845519975746,2.0800328254699707,2019-08-07 14:30:59:110,-176.6039686940759,176.64718245910555,0,-38.08449172973633,32.68669128417969,-23.090599060058594
0.11186115443706512,0.12115518003702164,9.75790786743164,0.0020697814914054373,-0.0008657387296835611,0.0008851845519975746,2.090013027191162,2019-08-07 14:30:59:120,-176.65826838173882,176.69885185746955,0,-38.08449172973633,32.68669128417969,-23.090599060058594
0.08312415331602097,0.1043919250369072,9.781855583190918,0.003135306001762336,-0.004595074841025611,-0.0012458645987533845,2.1000401973724365,2019-08-07 14:30:59:130,-176.7127783600653,176.75088082451606,0,-38.08449172973633,32.68669128417969,-23.090599060058594
0.10228215157985687,0.1427079290151596,9.738750457763672,0.004999974154961233,-0.005926980478971734,-0.004708819387450467,2.1100144386291504,2019-08-07 14:30:59:140,-176.76316872904164,176.79627235347138,0,-36.735042572021484,30.13772964477539,-23.540414810180664
0.107071653008461,0.1498921662569046,9.753118515014648,-0.0013931734273288073,-0.002996787815415939,-0.005507962770218141,2.1200156211853027,2019-08-07 14:30:59:150,-176.8136428818492,176.8435194862027,0,-36.735042572021484,30.13772964477539,-23.540414810180664
0.10228215157985687,0.0972076803445816,9.851303100585938,0.00047149462834221814,-0.005127837096204061,-0.007106249535753488,2.1300292015075684,2019-08-07 14:30:59:160,-176.86258968339595,176.895077044401,0,-36.735042572021484,30.13772964477539,-23.540414810180664
0.06636090576648712,0.1690501719713211,9.827356338500977,0.0010042569160299579,-0.001132119922291367,-0.0023113892391474454,2.140026807785034,2019-08-07 14:30:59:170,-176.91696448454496,176.93690165496508,0,-36.735042572021484,30.13772964477539,-23.540414810180664
0.1405981481075287,0.11636567860841751,9.824960708618164,0.0028689248741731116,-0.007258886116917857,-0.006573487280575038,2.150036334991455,2019-08-07 14:30:59:180,-176.9581481788957,176.98297973486373,0,-36.735042572021484,30.13772964477539,-23.540414810180664
0.054387159645557404,0.15468166768550873,9.846513748168945,0.002336162618994662,-0.005926980478971734,-0.009770061331794384,2.160026788711548,2019-08-07 14:30:59:190,-177.0093310073136,177.02400960895278,0,-36.735042572021484,30.13772964477539,-23.540414810180664
0.08791365474462509,0.12594467401504517,9.81538200378418,0.002336162618994662,-0.0037959311981836125,-0.007106249535753488,2.1700263023376465,2019-08-07 14:30:59:200,-177.05674970690492,177.06751488288603,0,-36.735042572021484,30.13772964477539,-23.540414810180664
0.08791365474462509,0.1307341754436493,9.860882759094238,-0.0008604111071317767,-0.003263168943005164,-0.008171774566259036,2.180030584335327,2019-08-07 14:30:59:210,-177.10356564498545,177.11145641654377,0,-36.735042572021484,30.13772964477539,-23.540414810180664
0.12862439453601837,0.13791842758655548,9.829751014709473,0.004467211899782784,-0.0021976444326482656,-0.0004467211834764202,2.190028667449951,2019-08-07 14:30:59:220,-177.1452668993801,177.15064247635271,0,-36.735042572021484,30.13772964477539,-23.540414810180664
0.107071653008461,0.08762867748737335,9.810592651367188,0.0028689248741731116,-0.006193361606560959,-0.0041760571322720175,2.2000555992126465,2019-08-07 14:30:59:230,-177.18636874028502,177.1957792909262,0,-36.735042572021484,30.13772964477539,-23.540414810180664
0.042413413524627686,0.08523393422365189,9.848908424377441,-0.00032764881944403687,-0.004328693453362062,-0.0017786268539318336,2.2100629806518555,2019-08-07 14:30:59:240,-177.2352742668599,177.2421311370371,0,-36.735042572021484,30.13772964477539,-23.540414810180664
0.09030840545892715,0.11876042932271957,9.812987327575684,-0.0013931734273288073,-0.004328693453362062,-0.0009794834711641602,2.2200260162353516,2019-08-07 14:30:59:250,-177.27760170733927,177.28420026722407,0,-36.735042572021484,30.13772964477539,-23.540414810180664
0.06396616250276566,0.14031317830085754,9.839329719543457,0.002602543746583887,-0.006726123861739408,-0.003643294877093568,2.230031728744507,2019-08-07 14:30:59:260,-177.32082123484975,177.32071394855168,0,-36.58510208129883,30.287668228149414,-24.290109634399414
0.09030840545892715,0.15468166768550873,9.810592651367188,0.0015370192362269886,-0.006193361606560959,-0.006307106152985815,2.240025043487549,2019-08-07 14:30:59:270,-177.36038149385735,177.35537128551204,0,-36.58510208129883,30.287668228149414,-24.290109634399414
-0.00787633191794157,0.09960243105888367,9.827356338500977,0.002602543746583887,-0.006726123861739408,-0.0031105326219151193,2.2500381469726562,2019-08-07 14:30:59:280,-170.21031062262432,177.39518690976575,0,-36.58510208129883,30.287668228149414,-24.290109634399414
-0.012665831483900547,0.1043919250369072,9.829751014709473,-0.0008604111071317767,-0.003263168943005164,-0.003909676004682793,2.2600245475769043,2019-08-07 14:30:59:290,-163.2057511714419,177.43559647172083,0,-36.58510208129883,30.287668228149414,-24.290109634399414
0.07593990862369537,0.16665542125701904,9.824960708618164,0.00020511348449834825,-0.00246402556023749,-0.00257777036673667,2.2700557708740234,2019-08-07 14:30:59:300,-163.53139135080832,177.46733333781418,0,-36.58510208129883,30.287668228149414,-24.290109634399414
-0.029429078102111816,0.1427079290151596,9.832145690917969,0.00020511348449834825,-0.0037959311981836125,-0.0033769137495043436,2.2801899909973145,2019-08-07 14:30:59:311,-156.6620333917596,177.50123881764083,0,-36.58510208129883,30.287668228149414,-24.290109634399414
0.11425590515136719,0.09002342820167542,9.817776679992676,-0.0019259356825072562,-0.00566059935138251,-0.0068398684081642635,2.290022611618042,2019-08-07 14:30:59:320,-157.11233233611455,177.54177025122982,0,-36.58510208129883,30.287668228149414,-24.290109634399414
-0.0030868323519825935,0.13552367687225342,9.827356338500977,0.004200830512119234,-0.009389935657780304,-0.004975200515039691,2.3001959323883057,2019-08-07 14:30:59:331,-150.36508181006886,177.57273351212723,0,-36.58510208129883,30.287668228149414,-24.290109634399414
0.025650164112448692,0.11397092789411545,9.789039611816406,-0.0016595545549180318,-0.0048614559686148365,-0.007639012311080588,2.3101162910461426,2019-08-07 14:30:59:340,-150.95206958351181,177.60886230062115,0,-36.58510208129883,30.287668228149414,-24.290109634399414
0.061571408063173294,0.08044443279504776,9.834540367126465,-0.0024586979376857053,-0.005926980478971734,-0.005507962770218141,2.3199987411499023,2019-08-07 14:30:59:350,-151.5225651457769,177.64867624680963,0,-36.58510208129883,30.287668228149414,-24.290109634399414
0.09749265760183334,0.11876042932271957,9.820171356201172,0.00020511348449834825,-0.0037959311981836125,-0.003643294877093568,2.3301427364349365,2019-08-07 14:30:59:360,-152.07857569891496,177.68172841604922,0,-36.58510208129883,30.287668228149414,-24.290109634399414
0.13101914525032043,0.09002342820167542,9.829751014709473,0.004467211899782784,-0.004595074841025611,-0.006573487280575038,2.340007781982422,2019-08-07 14:30:59:370,-152.61918605937046,177.7151250644026,0,-36.58510208129883,30.287668228149414,-24.290109634399414
0.12144014984369278,0.1043919250369072,9.829751014709473,0.0055327364101396825,-0.005127837096204061,-0.004708819387450467,2.350400447845459,2019-08-07 14:30:59:381,-153.1496536873459,177.7454247901291,0,-36.58510208129883,30.287668228149414,-24.290109634399414
0.07115040719509125,0.10678667575120926,9.702829360961914,0.0020697814914054373,-0.003529550070594388,-0.007106249535753488,2.3600399494171143,2019-08-07 14:30:59:390,-153.6763474245813,177.77678488804364,0,-37.63467788696289,32.236873626708984,-25.039804458618164
0.09030840545892715,0.1235499233007431,9.829751014709473,-0.004056984703221053,-0.0016648821774698163,-0.0031105326219151193,2.3700199127197266,2019-08-07 14:30:59:400,-154.19136000031514,177.80912038798294,0,-37.63467788696289,32.236873626708984,-25.039804458618164
0.1262296438217163,0.17862917482852936,9.81538200378418,-0.0005940299795425521,-0.006992504989328633,-0.0023113892391474454,2.38018536567688,2019-08-07 14:30:59:411,-154.68880544736152,177.83242494226533,0,-37.63467788696289,32.236873626708984,-25.039804458618164
0.0352291613817215,0.10918142646551132,9.77467155456543,0.003668068256940785,0.00019978586194656375,-0.004442438259861242,2.3900833129882812,2019-08-07 14:30:59:420,-155.19101036521036,177.86093869614564,0,-37.63467788696289,32.236873626708984,-25.039804458618164
0.11665065586566925,0.09002342820167542,9.834540367126465,-0.0016595545549180318,-0.0075252672445070825,-0.004442438259861242,2.400028944015503,2019-08-07 14:30:59:430,-155.66939626669395,177.89415750290837,0,-37.63467788696289,32.236873626708984,-25.039804458618164
0.13820339739322662,0.16186591982841492,9.824960708618164,-0.00032764881944403687,-0.005394218223793286,-0.004442438259861242,2.410011053085327,2019-08-07 14:30:59:440,-156.13686688689805,177.9175807824146,0,-37.63467788696289,32.236873626708984,-25.039804458618164
0.09988740086555481,0.10918142646551132,9.851303100585938,0.003668068256940785,-0.006992504989328633,-0.005507962770218141,2.420182466506958,2019-08-07 14:30:59:451,-156.59851733925746,177.94443465014137,0,-37.63467788696289,32.236873626708984,-25.039804458618164
0.12383490055799484,0.06847068667411804,9.887224197387695,0.001803400363816213,-0.008324410627274756,0.0011515656795867992,2.4301071166992188,2019-08-07 14:30:59:460,-157.04755652377543,177.97660544936628,0,-37.63467788696289,32.236873626708984,-25.039804458618164
0.09749265760183334,0.12115518003702164,9.834540367126465,0.0055327364101396825,-0.0019312633050590406,-0.004442438259861242,2.44000244140625,2019-08-07 14:30:59:470,-157.49417292031978,177.99988300986084,0,-37.63467788696289,32.236873626708984,-25.039804458618164
0.13820339739322662,0.1043919250369072,9.827356338500977,0.00020511348449834825,-0.004062312325772837,-0.00018034003963255039,2.4500157833099365,2019-08-07 14:30:59:480,-157.9258913372462,178.02759789746767,0,-37.63467788696289,32.236873626708984,-25.039804458618164
0.10946640372276306,0.10678667575120926,9.796224594116211,-0.0011267922997395827,-0.004595074841025611,0.0008851845519975746,2.4601857662200928,2019-08-07 14:30:59:491,-158.35194520001934,178.05519848571012,0,-37.63467788696289,32.236873626708984,-25.039804458618164
0.1405981481075287,0.13312892615795135,9.824960708618164,0.0028689248741731116,-0.004328693453362062,0.00061880342440835,2.470045328140259,2019-08-07 14:30:59:500,-158.76611259665924,178.07697995301322,0,-37.63467788696289,32.236873626708984,-25.039804458618164
0.10228215157985687,0.15468166768550873,9.791434288024902,0.00047149462834221814,-0.006193361606560959,-0.007106249535753488,2.48004412651062,2019-08-07 14:30:59:510,-159.1753433025846,178.09707437261795,0,-36.735042572021484,31.037363052368164,-24.14017105102539
0.11904539912939072,0.1235499233007431,9.798619270324707,0.0010042569160299579,-0.006459742734150184,-0.003909676004682793,2.490013360977173,2019-08-07 14:30:59:520,-159.57429918445808,178.1201227484691,0,-36.735042572021484,31.037363052368164,-24.14017105102539
0.10467690229415894,0.1043919250369072,9.777066230773926,-0.0008604111071317767,-0.0021976444326482656,-0.0023113892391474454,2.5001959800720215,2019-08-07 14:30:59:531,-159.96928856251324,178.14597750346655,0,-36.735042572021484,31.037363052368164,-24.14017105102539
0.1262296438217163,0.10678667575120926,9.817776679992676,-0.004323365830810277,-0.0019312633050590406,-0.009237299076615935,2.5100858211517334,2019-08-07 14:30:59:540,-160.3540978197056,178.1729952927962,0,-36.735042572021484,31.037363052368164,-24.14017105102539
0.11904539912939072,0.14031317830085754,9.84411907196045,0.004200830512119234,-0.0037959311981836125,-0.004442438259861242,2.520034074783325,2019-08-07 14:30:59:550,-160.73103854622724,178.19085662700203,0,-36.735042572021484,31.037363052368164,-24.14017105102539
0.10946640372276306,0.12833942472934723,9.822566032409668,0.0034016871293515603,-0.005127837096204061,-0.002844151494325895,2.5300188064575195,2019-08-07 14:30:59:560,-161.10077290833232,178.21016094623246,0,-36.735042572021484,31.037363052368164,-24.14017105102539
0.09509790688753128,0.10918142646551132,9.810592651367188,0.0028689248741731116,-0.0075252672445070825,-0.007372630663342713,2.540018320083618,2019-08-07 14:30:59:570,-161.46342476879934,178.23159461708528,0,-36.735042572021484,31.037363052368164,-24.14017105102539
0.107071653008461,0.11876042932271957,9.836935043334961,-0.0019259356825072562,-0.006193361606560959,-0.0041760571322720175,2.5501821041107178,2019-08-07 14:30:59:580,-161.81814934802227,178.25422798333364,0,-36.735042572021484,31.037363052368164,-24.14017105102539
0.10228215157985687,0.13552367687225342,9.86567211151123,0.0020697814914054373,-0.0037959311981836125,-0.008171774566259036,2.5600390434265137,2019-08-07 14:30:59:590,-162.16780561239761,178.27225754118862,0,-36.735042572021484,31.037363052368164,-24.14017105102539
0.12383490055799484,0.12833942472934723,9.798619270324707,-0.0008604111071317767,-0.006193361606560959,-0.006573487280575038,2.57004714012146,2019-08-07 14:30:59:600,-162.50648781589624,178.29228789499578,0,-36.735042572021484,31.037363052368164,-24.14017105102539
0.11904539912939072,0.11876042932271957,9.829751014709473,0.0015370192362269886,-0.00246402556023749,-0.006573487280575038,2.580017328262329,2019-08-07 14:30:59:610,-162.84110144845621,178.31173770287143,0,-36.735042572021484,31.037363052368164,-24.14017105102539
0.10228215157985687,0.11876042932271957,9.829751014709473,0.00020511348449834825,-0.003263168943005164,-0.004442438259861242,2.590012311935425,2019-08-07 14:30:59:620,-163.17052483350352,178.33154386276482,0,-36.735042572021484,31.037363052368164,-24.14017105102539
0.18130889534950256,0.13312892615795135,9.820171356201172,0.00020511348449834825,-0.0005993576020943366,-0.0009794834711641602,2.600179433822632,2019-08-07 14:30:59:630,-163.485617646345,178.3492620297745,0,-36.735042572021484,31.037363052368164,-24.14017105102539
0.12862439453601837,0.12833942472934723,9.724381446838379,0.0010042569160299579,-0.004328693453362062,-0.0068398684081642635,2.610029697418213,2019-08-07 14:30:59:640,-163.79835499038398,178.3665987767617,0,-35.53553009033203,31.33724021911621,-23.240537643432617
0.12144014984369278,0.12833942472934723,9.78664493560791,-0.0032578413204533796,-0.00566059935138251,-0.0041760571322720175,2.620009660720825,2019-08-07 14:30:59:650,-164.1049971759264,178.3860660424662,0,-35.53553009033203,31.33724021911621,-23.240537643432617
0.1262296438217163,0.10918142646551132,9.75790786743164,-0.0013931734273288073,-0.006992504989328633,-0.0007131023435749355,2.630009174346924,2019-08-07 14:30:59:660,-164.40414824580185,178.4063058111005,0,-35.53553009033203,31.33724021911621,-23.240537643432617
0.1597561538219452,0.10199718177318573,9.772276878356934,0.0012706381086377639,-0.0027304066878267143,-0.0017786268539318336,2.6400039196014404,2019-08-07 14:30:59:670,-164.6958013279865,178.42550666088633,0,-35.53553009033203,31.33724021911621,-23.240537643432617
0.11665065586566925,0.1307341754436493,9.805803298950195,0.0020697814914054373,-0.006992504989328633,0.002483471317532922,2.6499972343444824,2019-08-07 14:30:59:680,-164.9843303795374,178.44055830894828,0,-35.53553009033203,31.33724021911621,-23.240537643432617
0.09509790688753128,0.10918142646551132,9.793828964233398,0.0015370192362269886,-0.004595074841025611,-0.0020450079815210586,2.6600184440612793,2019-08-07 14:30:59:690,-165.27093170075506,178.4581081611728,0,-35.53553009033203,31.33724021911621,-23.240537643432617
0.12383490055799484,0.10678667575120926,9.760302543640137,0.00393444938453001,-0.0027304066878267143,-0.00257777036673667,2.669989824295044,2019-08-07 14:30:59:700,-165.5494461861736,178.47420626363032,0,-35.53553009033203,31.33724021911621,-23.240537643432617
0.09509790688753128,0.1235499233007431,9.77467155456543,0.00020511348449834825,-0.004595074841025611,-0.00257777036673667,2.6800053119659424,2019-08-07 14:30:59:710,-165.82472486218964,178.4901234129502,0,-35.53553009033203,31.33724021911621,-23.240537643432617
0.10467690229415894,0.1498921662569046,9.820171356201172,-0.0011267922997395827,-0.0016648821774698163,8.60411123386422e-05,2.690011978149414,2019-08-07 14:30:59:720,-166.09508062974507,178.5034645032095,0,-35.53553009033203,31.33724021911621,-23.240537643432617
0.12144014984369278,0.11157617717981339,9.868066787719727,-6.126766340918298e-05,-0.00566059935138251,-0.0023113892391474454,2.7000339031219482,2019-08-07 14:30:59:730,-166.3558922722546,178.52047361331626,0,-35.53553009033203,31.33724021911621,-23.240537643432617
0.2124406397342682,0.12594467401504517,9.762697219848633,-0.0005940299795425521,-0.004595074841025611,-0.0017786268539318336,2.7100234031677246,2019-08-07 14:30:59:740,-166.6012653087334,178.53561515658342,0,-35.53553009033203,31.33724021911621,-23.240537643432617
0.05678191035985947,0.14510267972946167,9.817776679992676,0.00393444938453001,-0.0021976444326482656,-0.00897091742887806,2.7200326919555664,2019-08-07 14:30:59:750,-166.86137745981608,178.54575668780956,0,-35.53553009033203,31.33724021911621,-23.240537643432617
0.13101914525032043,0.13791842758655548,9.769882202148438,-0.0037906035756318283,-0.004328693453362062,0.00035242226430983473,2.730015516281128,2019-08-07 14:30:59:760,-167.10635713346744,178.5607908529517,0,-38.68424987792969,32.086936950683594,-23.690353393554688
0.09509790688753128,0.11636567860841751,9.839329719543457,0.0007378757884407334,-0.0027304066878267143,-0.005507962770218141,2.7400357723236084,2019-08-07 14:30:59:770,-167.35161874488884,178.5756082429728,0,-38.68424987792969,32.086936950683594,-23.690353393554688
0.1453876495361328,0.14749743044376373,9.78664493560791,0.004200830512119234,-0.007258886116917857,-0.006573487280575038,2.750016689300537,2019-08-07 14:30:59:780,-167.58349614513287,178.58447269221048,0,-38.68424987792969,32.086936950683594,-23.690353393554688
0.07593990862369537,0.12115518003702164,9.712408065795898,-0.00272507906527493,-0.005127837096204061,-0.004708819387450467,2.7600440979003906,2019-08-07 14:30:59:790,-167.81997949193257,178.60002384374368,0,-38.68424987792969,32.086936950683594,-23.690353393554688
-0.043797578662633896,0.08044443279504776,9.841724395751953,-6.126766340918298e-05,-0.0005993576020943366,-0.007639012311080588,2.770010471343994,2019-08-07 14:30:59:800,-160.86834400781126,178.61869135964204,0,-38.68424987792969,32.086936950683594,-23.690353393554688
0.04720291122794151,0.06368118524551392,9.956672668457031,-0.011782037923457216,-0.006459742734150184,-0.0023113892391474454,2.780026912689209,2019-08-07 14:30:59:810,-161.2419114749341,178.64561502632637,0,-38.68424987792969,32.086936950683594,-23.690353393554688
0.1717298924922943,0.1762344241142273,9.801013946533203,0.002336162618994662,-0.001132119922291367,-0.006307106152985815,2.7900447845458984,2019-08-07 14:30:59:820,-161.59636015309894,178.65078586166004,0,-38.68424987792969,32.086936950683594,-23.690353393554688
0.0807294100522995,0.15947116911411285,9.769882202148438,0.00393444938453001,-0.0016648821774698163,-0.00257777036673667,2.800025224685669,2019-08-07 14:30:59:830,-161.95403136200346,178.65686246537615,0,-38.68424987792969,32.086936950683594,-23.690353393554688
0.05678191035985947,0.11397092789411545,9.827356338500977,-0.0019259356825072562,-0.004328693453362062,-0.011368348097329731,2.8100407123565674,2019-08-07 14:30:59:840,-162.30589545297838,178.67151935511518,0,-38.68424987792969,32.086936950683594,-23.690353393554688
0.08312415331602097,0.08762867748737335,9.793828964233398,-0.0013931734273288073,-0.00246402556023749,-0.0041760571322720175,2.820018768310547,2019-08-07 14:30:59:850,-162.6486714214319,178.68861689827654,0,-38.68424987792969,32.086936950683594,-23.690353393554688
0.10467690229415894,0.10918142646551132,9.824960708618164,0.0028689248741731116,-0.005127837096204061,0.0008851845519975746,2.8300325870513916,2019-08-07 14:30:59:860,-162.98060641132818,178.7004977931406,0,-38.68424987792969,32.086936950683594,-23.690353393554688
0.13820339739322662,0.15228691697120667,9.769882202148438,0.004467211899782784,-0.004328693453362062,-0.0031105326219151193,2.8400161266326904,2019-08-07 14:30:59:870,-163.30235884665206,178.70612325141474,0,-38.68424987792969,32.086936950683594,-23.690353393554688
0.07354515790939331,0.10199718177318573,9.834540367126465,-0.0032578413204533796,-0.005926980478971734,-0.00604072502539659,2.850046157836914,2019-08-07 14:30:59:880,-163.62440439961767,178.72195132026678,0,-38.68424987792969,32.086936950683594,-23.690353393554688
0.1334138959646225,0.15947116911411285,9.736355781555176,0.0020697814914054373,-0.003263168943005164,-0.0041760571322720175,2.860013961791992,2019-08-07 14:30:59:890,-163.93438884585134,178.72758665365868,0,-36.735042572021484,31.63711929321289,-23.840293884277344
0.10467690229415894,0.13312892615795135,9.748329162597656,0.002602543746583887,-0.0021976444326482656,-0.0017786268539318336,2.870025157928467,2019-08-07 14:30:59:900,-164.24216142142924,178.73592363405933,0,-36.735042572021484,31.63711929321289,-23.840293884277344
0.13580864667892456,0.13312892615795135,9.781855583190918,0.0028689248741731116,-0.005127837096204061,-0.0004467211834764202,2.880035400390625,2019-08-07 14:30:59:910,-164.53852740925106,178.743997914955,0,-36.735042572021484,31.63711929321289,-23.840293884277344
0.13580864667892456,0.16186591982841492,9.784250259399414,0.0007378757884407334,-0.003529550070594388,-0.005774343897807364,2.8900158405303955,2019-08-07 14:30:59:920,-164.8298742319273,178.7497487048546,0,-36.735042572021484,31.63711929321289,-23.840293884277344
0.1262296438217163,0.1307341754436493,9.824960708618164,0.003668068256940785,0.0004661670057904337,-0.007106249535753488,2.9000470638275146,2019-08-07 14:30:59:930,-165.11881757246846,178.7574406527558,0,-36.735042572021484,31.63711929321289,-23.840293884277344
0.1334138959646225,0.1307341754436493,9.841724395751953,-0.0029914601928641544,-0.0048614559686148365,-0.002844151494325895,2.910013198852539,2019-08-07 14:30:59:940,-165.39818774445297,178.76874478799976,0,-36.735042572021484,31.63711929321289,-23.840293884277344
0.10946640372276306,0.11876042932271957,9.858488082885742,-6.126766340918298e-05,-0.004328693453362062,-0.008171774566259036,2.920027017593384,2019-08-07 14:30:59:950,-165.6750666128286,178.77960071928334,0,-36.735042572021484,31.63711929321289,-23.840293884277344
0.0807294100522995,0.11876042932271957,9.836935043334961,-0.0016595545549180318,-0.00246402556023749,-0.003909676004682793,2.9300339221954346,2019-08-07 14:30:59:960,-165.95077672993546,178.79110732247108,0,-36.735042572021484,31.63711929321289,-23.840293884277344
0.09270315617322922,0.10199718177318573,9.820171356201172,-0.0005940299795425521,0.0009989292934781736,-0.007106249535753488,2.940012216567993,2019-08-07 14:30:59:970,-166.22150366727436,178.80371637802057,0,-36.735042572021484,31.63711929321289,-23.840293884277344
0.09509790688753128,0.13312892615795135,9.798619270324707,0.00020511348449834825,-0.00246402556023749,-0.005507962770218141,2.950045585632324,2019-08-07 14:30:59:980,-166.48456439873928,178.81195847260705,0,-36.735042572021484,31.63711929321289,-23.840293884277344
0.11186115443706512,0.10678667575120926,9.784250259399414,-0.0013931734273288073,-0.004328693453362062,0.0008851845519975746,2.9600133895874023,2019-08-07 14:30:59:990,-166.73934995369845,178.82399286309217,0,-36.735042572021484,31.63711929321289,-23.840293884277344
0.08791365474462509,0.1427079290151596,9.772276878356934,0.0012706381086377639,-0.0013985010498805918,-0.0020450079815210586,2.970029592514038,2019-08-07 14:31:00:000,-166.9934677832195,178.83006537714917,0,-36.735042572021484,31.63711929321289,-23.840293884277344
0.15017715096473694,0.12594467401504517,9.772276878356934,-0.0029914601928641544,-0.003263168943005164,-0.0015122457263426093,2.9800331592559814,2019-08-07 14:31:00:010,-167.2341568396699,178.84037667747992,0,-38.68424987792969,32.086936950683594,-23.990232467651367
0.11425590515136719,0.12115518003702164,9.820171356201172,0.0028689248741731116,-0.004328693453362062,-0.004975200515039691,2.9900150299072266,2019-08-07 14:31:00:020,-167.47371563620237,178.84782428877713,0,-38.68424987792969,32.086936950683594,-23.990232467651367
0.12144014984369278,0.11397092789411545,9.801013946533203,0.00020511348449834825,-0.0027304066878267143,-0.005241581642628916,3.0000534057617188,2019-08-07 14:31:00:030,-167.70850449952053,178.85742753024417,0,-38.68424987792969,32.086936950683594,-23.990232467651367
0.08551890403032303,0.12594467401504517,9.832145690917969,-0.006454414851524075,-0.002996787815415939,-0.003909676004682793,3.010012626647949,2019-08-07 14:31:00:040,-167.94269178475886,178.86921056572257,0,-38.68424987792969,32.086936950683594,-23.990232467651367
0.07354515790939331,0.12115518003702164,9.769882202148438,-0.0008604111071317767,-0.008857173402601856,-0.0009794834711641602,3.0200254917144775,2019-08-07 14:31:00:050,-168.1702322654713,178.87810045718007,0,-38.68424987792969,32.086936950683594,-23.990232467651367
0.11425590515136719,0.09481292963027954,9.827356338500977,0.0012706381086377639,-0.00566059935138251,-0.0041760571322720175,3.0300371646881104,2019-08-07 14:31:00:060,-168.39032331990026,178.88876886678597,0,-38.68424987792969,32.086936950683594,-23.990232467651367
0.14299289882183075,0.11397092789411545,9.808197975158691,-0.0032578413204533796,-0.004062312325772837,-0.003643294877093568,3.0400149822235107,2019-08-07 14:31:00:070,-168.60353590624516,178.89950380408985,0,-38.68424987792969,32.086936950683594,-23.990232467651367
0.11904539912939072,0.11876042932271957,9.853697776794434,0.004467211899782784,-0.001132119922291367,-0.0033769137495043436,3.0500433444976807,2019-08-07 14:31:00:080,-168.81698423413627,178.9051879483118,0,-38.68424987792969,32.086936950683594,-23.990232467651367
0.08791365474462509,0.14510267972946167,9.834540367126465,0.00393444938453001,-0.005394218223793286,0.0011515656795867992,3.060007333755493,2019-08-07 14:31:00:090,-169.0273832293291,178.9079768938375,0,-38.68424987792969,32.086936950683594,-23.990232467651367
0.11186115443706512,0.11876042932271957,9.848908424377441,0.0020697814914054373,-0.0037959311981836125,-0.003643294877093568,3.070016622543335,2019-08-07 14:31:00:100,-169.23168774470014,178.9148370497836,0,-38.68424987792969,32.086936950683594,-23.990232467651367
0.06396616250276566,0.1498921662569046,9.789039611816406,0.00020511348449834825,-0.002996787815415939,-0.007639012311080588,3.0800352096557617,2019-08-07 14:31:00:110,-169.43788032812571,178.91887975543636,0,-38.68424987792969,32.086936950683594,-23.990232467651367
0.08312415331602097,0.1498921662569046,9.796224594116211,-0.0013931734273288073,-0.0037959311981836125,-0.0009794834711641602,3.090023994445801,2019-08-07 14:31:00:120,-169.63727046847995,178.92375124603495,0,-38.68424987792969,32.086936950683594,-23.990232467651367
0.107071653008461,0.08762867748737335,9.74593448638916,0.00047149462834221814,-0.0013985010498805918,-0.003909676004682793,3.100033760070801,2019-08-07 14:31:00:130,-169.8311501824273,178.93470821910304,0,-38.68424987792969,32.086936950683594,-23.990232467651367
0.08791365474462509,0.13791842758655548,9.760302543640137,0.0007378757884407334,-0.003529550070594388,-0.0012458645987533845,3.110013008117676,2019-08-07 14:31:00:140,-170.0222281649168,178.93940926013238,0,-37.484737396240234,30.88742446899414,-23.690353393554688
0.10228215157985687,0.14031317830085754,9.769882202148438,0.00393444938453001,-0.0075252672445070825,-0.0041760571322720175,3.120032787322998,2019-08-07 14:31:00:150,-170.20555351751264,178.94195122833975,0,-37.484737396240234,30.88742446899414,-23.690353393554688
0.12862439453601837,0.11876042932271957,9.805803298950195,0.0020697814914054373,0.002330834996442878,-0.005241581642628916,3.1300129890441895,2019-08-07 14:31:00:160,-170.3877183084533,178.94807454589238,0,-37.484737396240234,30.88742446899414,-23.690353393554688
0.12144014984369278,0.13552367687225342,9.801013946533203,0.003135306001762336,-0.004328693453362062,-0.004975200515039691,3.140040874481201,2019-08-07 14:31:00:170,-170.5633287882499,178.95150351939867,0,-37.484737396240234,30.88742446899414,-23.690353393554688
0.10946640372276306,0.1498921662569046,9.793828964233398,-0.0016595545549180318,-0.00566059935138251,-0.009237299076615935,3.1500136852264404,2019-08-07 14:31:00:180,-170.73608497934094,178.95586616325045,0,-37.484737396240234,30.88742446899414,-23.690353393554688
0.13101914525032043,0.12115518003702164,9.846513748168945,0.003668068256940785,-0.0021976444326482656,-0.002844151494325895,3.160001277923584,2019-08-07 14:31:00:190,-170.90488401656654,178.96059271847335,0,-37.484737396240234,30.88742446899414,-23.690353393554688
0.09509790688753128,0.13312892615795135,9.796224594116211,0.0007378757884407334,-0.001132119922291367,-0.005241581642628916,3.1700334548950195,2019-08-07 14:31:00:200,-171.07502485722486,178.96539338699515,0,-37.484737396240234,30.88742446899414,-23.690353393554688
0.10946640372276306,0.10199718177318573,9.832145690917969,-0.00032764881944403687,-0.0016648821774698163,-0.007905393438669812,3.1800286769866943,2019-08-07 14:31:00:210,-171.23983242909938,178.9743822783374,0,-37.484737396240234,30.88742446899414,-23.690353393554688
0.08791365474462509,0.11876042932271957,9.812987327575684,0.0012706381086377639,-0.00566059935138251,-0.005241581642628916,3.1900436878204346,2019-08-07 14:31:00:220,-171.4015867124359,178.98031247977733,0,-37.484737396240234,30.88742446899414,-23.690353393554688
0.11425590515136719,0.08283918350934982,9.738750457763672,-0.00272507906527493,-0.005926980478971734,-0.004708819387450467,3.2000279426574707,2019-08-07 14:31:00:230,-171.55678885764502,178.9924868647725,0,-37.484737396240234,30.88742446899414,-23.690353393554688
0.107071653008461,0.10918142646551132,9.860882759094238,-0.0019259356825072562,-0.0019312633050590406,-0.0020450079815210586,3.210026741027832,2019-08-07 14:31:00:240,-171.7121266922993,179.00103114748364,0,-37.484737396240234,30.88742446899414,-23.690353393554688
0.1405981481075287,0.11397092789411545,9.851303100585938,0.003135306001762336,-0.0027304066878267143,-0.007639012311080588,3.22001576423645,2019-08-07 14:31:00:250,-171.85999928392968,179.0059953410145,0,-37.484737396240234,30.88742446899414,-23.690353393554688
0.1334138959646225,0.10199718177318573,9.8034086227417,0.002336162618994662,-0.002996787815415939,-0.0015122457263426093,3.2300353050231934,2019-08-07 14:31:00:260,-172.00551959609544,179.01263914877916,0,-37.78461456298828,30.88742446899414,-23.690353393554688
0.152571901679039,0.1307341754436493,9.81538200378418,0.0015370192362269886,-0.0005993576020943366,-0.0068398684081642635,3.2400448322296143,2019-08-07 14:31:00:270,-172.1472614802939,179.0162605998715,0,-37.78461456298828,30.88742446899414,-23.690353393554688
0.10228215157985687,0.13312892615795135,9.793828964233398,-0.0005940299795425521,-0.001132119922291367,-0.0041760571322720175,3.2500410079956055,2019-08-07 14:31:00:280,-172.2917138406217,179.02069317113535,0,-37.78461456298828,30.88742446899414,-23.690353393554688
0.13580864667892456,0.12594467401504517,9.801013946533203,0.00047149462834221814,-0.004595074841025611,-0.0017786268539318336,3.2600257396698,2019-08-07 14:31:00:290,-172.42742590685222,179.0252905711262,0,-37.78461456298828,30.88742446899414,-23.690353393554688
0.14778240025043488,0.11636567860841751,9.762697219848633,0.002336162618994662,-0.005127837096204061,-0.006307106152985815,3.270026683807373,2019-08-07 14:31:00:300,-172.5586529211567,179.02981488246488,0,-37.78461456298828,30.88742446899414,-23.690353393554688
0.09509790688753128,0.11157617717981339,9.810592651367188,-0.0013931734273288073,-0.00246402556023749,-0.003909676004682793,3.2800285816192627,2019-08-07 14:31:00:310,-172.6949885936008,179.03696902625447,0,-37.78461456298828,30.88742446899414,-23.690353393554688
0.07833465933799744,0.12115518003702164,9.822566032409668,0.00047149462834221814,-0.003263168943005164,0.0032826149603749208,3.2900261878967285,2019-08-07 14:31:00:320,-172.830118547856,179.04183153344428,0,-37.78461456298828,30.88742446899414,-23.690353393554688
0.12862439453601837,0.11157617717981339,9.820171356201172,-0.0013931734273288073,-0.006726123861739408,-0.004442438259861242,3.300045967102051,2019-08-07 14:31:00:330,-172.95472367778441,179.04875945344978,0,-37.78461456298828,30.88742446899414,-23.690353393554688
0.08551890403032303,0.14749743044376373,9.77467155456543,-0.0008604111071317767,-0.004328693453362062,-0.005241581642628916,3.3100180625915527,2019-08-07 14:31:00:340,-173.0831800359118,179.0509757589836,0,-37.78461456298828,30.88742446899414,-23.690353393554688
0.07833465933799744,0.08762867748737335,9.827356338500977,0.002336162618994662,-0.006193361606560959,-0.004708819387450467,3.320030689239502,2019-08-07 14:31:00:350,-173.2089004868478,179.05842519361101,0,-37.78461456298828,30.88742446899414,-23.690353393554688
0.11186115443706512,0.14510267972946167,9.772276878356934,-0.0024586979376857053,-6.659528596096748e-05,-0.00257777036673667,3.3300139904022217,2019-08-07 14:31:00:360,-173.3315686696195,179.0616211767264,0,-37.78461456298828,30.88742446899414,-23.690353393554688
0.07593990862369537,0.11636567860841751,9.824960708618164,-0.00272507906527493,-0.00246402556023749,-0.004975200515039691,3.340043306350708,2019-08-07 14:31:00:370,-173.454692762913,179.06835191224076,0,-37.78461456298828,30.88742446899414,-23.690353393554688
0.107071653008461,0.13552367687225342,9.810592651367188,-0.0032578413204533796,-0.003529550070594388,-0.0023113892391474454,3.350015878677368,2019-08-07 14:31:00:380,-173.57111661451236,179.07298044150576,0,-37.78461456298828,30.88742446899414,-23.690353393554688
0.08791365474462509,0.13552367687225342,9.789039611816406,-6.126766340918298e-05,-0.00566059935138251,-0.004708819387450467,3.360032796859741,2019-08-07 14:31:00:390,-173.68621949500965,179.07569175749714,0,-35.985347747802734,31.187301635742188,-24.290109634399414
0.1262296438217163,0.08044443279504776,9.77467155456543,0.00020511348449834825,-0.0037959311981836125,-0.005507962770218141,3.3700144290924072,2019-08-07 14:31:00:400,-173.7955701329256,179.0846324211591,0,-35.985347747802734,31.187301635742188,-24.290109634399414
0.12383490055799484,0.07326018065214157,9.793828964233398,0.0015370192362269886,-0.0037959311981836125,-0.0033769137495043436,3.3800172805786133,2019-08-07 14:31:00:410,-173.90303832556972,179.09350492989782,0,-35.985347747802734,31.187301635742188,-24.290109634399414
0.1405981481075287,0.11157617717981339,9.793828964233398,0.002602543746583887,-0.004595074841025611,-0.0012458645987533845,3.3900389671325684,2019-08-07 14:31:00:420,-174.00594244220102,179.09711606106097,0,-35.985347747802734,31.187301635742188,-24.290109634399414
0.10228215157985687,0.09481292963027954,9.81538200378418,0.004733593027372009,-0.0019312633050590406,0.00035242226430983473,3.400027275085449,2019-08-07 14:31:00:430,-174.1127997658397,179.10145016844697,0,-35.985347747802734,31.187301635742188,-24.290109634399414
0.09988740086555481,0.11397092789411545,9.81538200378418,0.00020511348449834825,-0.005127837096204061,-0.0007131023435749355,3.4100260734558105,2019-08-07 14:31:00:440,-174.21600369937872,179.1060008514297,0,-35.985347747802734,31.187301635742188,-24.290109634399414
0.12383490055799484,0.11876042932271957,9.851303100585938,0.004467211899782784,-0.003263168943005164,-0.004442438259861242,3.4200377464294434,2019-08-07 14:31:00:450,-174.31544535366783,179.10755588421742,0,-35.985347747802734,31.187301635742188,-24.290109634399414
0.11904539912939072,0.1427079290151596,9.846513748168945,-0.0019259356825072562,-0.003529550070594388,0.0038153772155533703,3.430027723312378,2019-08-07 14:31:00:460,-174.41330302898027,179.10987822103453,0,-35.985347747802734,31.187301635742188,-24.290109634399414
0.10467690229415894,0.12833942472934723,9.805803298950195,0.0012706381086377639,-0.00859079175486398,-0.0009794834711641602,3.440042734146118,2019-08-07 14:31:00:470,-174.5079738310192,179.11196911194162,0,-35.985347747802734,31.187301635742188,-24.290109634399414
0.09270315617322922,0.10918142646551132,9.801013946533203,0.004467211899782784,-0.00566059935138251,-0.0012458645987533845,3.450028896331787,2019-08-07 14:31:00:480,-174.60380198332552,179.11446011411567,0,-35.985347747802734,31.187301635742188,-24.290109634399414
0.08791365474462509,0.08762867748737335,9.851303100585938,0.00393444938453001,-0.00246402556023749,-0.0015122457263426093,3.4600296020507812,2019-08-07 14:31:00:490,-174.7001163469458,179.11976876214757,0,-35.985347747802734,31.187301635742188,-24.290109634399414
0.1334138959646225,0.13552367687225342,9.767487525939941,-0.0016595545549180318,-0.006193361606560959,-0.0007131023435749355,3.470026969909668,2019-08-07 14:31:00:500,-174.78698630882698,179.12240644556064,0,-35.985347747802734,31.187301635742188,-24.290109634399414
0.13101914525032043,0.11636567860841751,9.796224594116211,-0.0024586979376857053,-0.004062312325772837,0.0022170901899436976,3.4800312519073486,2019-08-07 14:31:00:510,-174.8736395426254,179.12772820190972,0,-36.735042572021484,32.236873626708984,-24.739927291870117
0.09270315617322922,0.1690501719713211,9.777066230773926,0.0012706381086377639,-0.0019312633050590406,0.0011515656795867992,3.490022897720337,2019-08-07 14:31:00:520,-174.964218359896,179.12464931542047,0,-36.735042572021484,32.236873626708984,-24.739927291870117
0.09749265760183334,0.14031317830085754,9.808197975158691,-6.126766340918298e-05,-0.005394218223793286,-0.007106249535753488,3.500035524368286,2019-08-07 14:31:00:530,-175.05051139322939,179.12579876302965,0,-36.735042572021484,32.236873626708984,-24.739927291870117
0.10228215157985687,0.11397092789411545,9.777066230773926,0.00047149462834221814,-0.003263168943005164,-0.0033769137495043436,3.510030508041382,2019-08-07 14:31:00:540,-175.1356823343804,179.12966088298884,0,-36.735042572021484,32.236873626708984,-24.739927291870117
0.10467690229415894,0.15468166768550873,9.829751014709473,0.0034016871293515603,-0.00859079175486398,-0.003909676004682793,3.520000696182251,2019-08-07 14:31:00:550,-175.21595696988484,179.1271325950102,0,-36.735042572021484,32.236873626708984,-24.739927291870117
0.11665065586566925,0.17383967339992523,9.817776679992676,-0.0011267922997395827,-0.005394218223793286,-0.003643294877093568,3.5300025939941406,2019-08-07 14:31:00:560,-175.2949937674016,179.12493457992883,0,-36.735042572021484,32.236873626708984,-24.739927291870117
0.09749265760183334,0.1307341754436493,9.829751014709473,-0.0016595545549180318,-0.0037959311981836125,-0.00257777036673667,3.5400028228759766,2019-08-07 14:31:00:570,-175.37559747650621,179.1281281448327,0,-36.735042572021484,32.236873626708984,-24.739927291870117
0.1262296438217163,0.16665542125701904,9.870461463928223,0.00020511348449834825,-0.006459742734150184,-0.00018034003963255039,3.550008773803711,2019-08-07 14:31:00:580,-175.44980234423704,179.12610424584204,0,-36.735042572021484,32.236873626708984,-24.739927291870117
0.12383490055799484,0.13791842758655548,9.839329719543457,0.0015370192362269886,-0.0048614559686148365,-0.0041760571322720175,3.560018301010132,2019-08-07 14:31:00:590,-175.52365260172257,179.1266569942699,0,-36.735042572021484,32.236873626708984,-24.739927291870117
0.09030840545892715,0.10199718177318573,9.824960708618164,0.00020511348449834825,-0.007791648372096307,0.00035242226430983473,3.5700020790100098,2019-08-07 14:31:00:600,-175.59827899450843,179.13211305047147,0,-36.735042572021484,32.236873626708984,-24.739927291870117
0.08791365474462509,0.11397092789411545,9.805803298950195,0.004200830512119234,-0.0075252672445070825,-0.005241581642628916,3.5800020694732666,2019-08-07 14:31:00:610,-175.67181459246294,179.13379387870552,0,-36.735042572021484,32.236873626708984,-24.739927291870117
0.14299289882183075,0.12594467401504517,9.767487525939941,0.0010042569160299579,-0.0048614559686148365,-0.007106249535753488,3.5900087356567383,2019-08-07 14:31:00:620,-175.738872139973,179.13577880394988,0,-36.735042572021484,32.236873626708984,-24.739927291870117
0.11425590515136719,0.11397092789411545,9.832145690917969,0.004999974154961233,-0.0016648821774698163,-0.002844151494325895,3.6000044345855713,2019-08-07 14:31:00:630,-175.80984458770453,179.13697448325232,0,-36.735042572021484,32.236873626708984,-24.739927291870117
0.12144014984369278,0.10199718177318573,9.73396110534668,0.00393444938453001,-0.0027304066878267143,-0.0033769137495043436,3.6099977493286133,2019-08-07 14:31:00:640,-175.8778199881672,179.14002026070207,0,-35.68547058105469,30.58754539489746,-23.990232467651367
0.11425590515136719,0.07565493136644363,9.731565475463867,0.0020697814914054373,-0.010189078520399329,-0.00257777036673667,3.6200051307678223,2019-08-07 14:31:00:650,-175.94108491804042,179.14714844475805,0,-35.68547058105469,30.58754539489746,-23.990232467651367
0.12383490055799484,0.11397092789411545,9.834540367126465,0.002336162618994662,-0.005394218223793286,-0.0023113892391474454,3.630002737045288,2019-08-07 14:31:00:660,-176.00480668205665,179.1496147982237,0,-35.68547058105469,30.58754539489746,-23.990232467651367
0.1334138959646225,0.13312892615795135,9.750723838806152,0.004200830512119234,-0.003529550070594388,-0.004442438259861242,3.640010118484497,2019-08-07 14:31:00:670,-176.06704928122167,179.14861751749166,0,-35.68547058105469,30.58754539489746,-23.990232467651367
0.1262296438217163,0.09481292963027954,9.848908424377441,-6.126766340918298e-05,-0.0027304066878267143,-0.0068398684081642635,3.65000581741333,2019-08-07 14:31:00:680,-176.1294898832657,179.15464845766857,0,-35.68547058105469,30.58754539489746,-23.990232467651367
0.15736140310764313,0.08523393422365189,9.753118515014648,-0.0011267922997395827,-0.005394218223793286,-0.003643294877093568,3.659999132156372,2019-08-07 14:31:00:690,-176.18538612705223,179.16217368827986,0,-35.68547058105469,30.58754539489746,-23.990232467651367
0.12144014984369278,0.0972076803445816,9.808197975158691,0.0012706381086377639,-0.004328693453362062,-0.006307106152985815,3.6700050830841064,2019-08-07 14:31:00:700,-176.24505897993217,179.16685969081604,0,-35.68547058105469,30.58754539489746,-23.990232467651367
0.10946640372276306,0.11397092789411545,9.834540367126465,0.003135306001762336,-0.0019312633050590406,-0.0007131023435749355,3.6799979209899902,2019-08-07 14:31:00:710,-176.30631973287973,179.16848404830674,0,-35.68547058105469,30.58754539489746,-23.990232467651367
0.12862439453601837,0.1235499233007431,9.820171356201172,0.00047149462834221814,-0.00246402556023749,-0.0033769137495043436,3.6900103092193604,2019-08-07 14:31:00:720,-176.36379975756552,179.1704330184179,0,-35.68547058105469,30.58754539489746,-23.990232467651367
0.10946640372276306,0.1427079290151596,9.796224594116211,0.0012706381086377639,-0.003529550070594388,0.0022170901899436976,3.700042963027954,2019-08-07 14:31:00:730,-176.4217311289577,179.1696164551565,0,-35.68547058105469,30.58754539489746,-23.990232467651367
0.10228215157985687,0.13552367687225342,9.853697776794434,0.0020697814914054373,-0.0016648821774698163,-0.0007131023435749355,3.7100014686584473,2019-08-07 14:31:00:740,-176.4804712902738,179.16930731431492,0,-35.68547058105469,30.58754539489746,-23.990232467651367
0.05917666107416153,0.14031317830085754,9.781855583190918,-0.00032764881944403687,0.0012653104860859794,-0.005774343897807364,3.720034122467041,2019-08-07 14:31:00:750,-176.54464236744076,179.16966959451432,0,-35.68547058105469,30.58754539489746,-23.990232467651367
0.07354515790939331,0.09960243105888367,9.812987327575684,-0.0029914601928641544,-0.005926980478971734,-0.0033769137495043436,3.7300028800964355,2019-08-07 14:31:00:760,-176.60184382109188,179.17631994063316,0,-37.33479690551758,31.63711929321289,-24.14017105102539
0.10467690229415894,0.1235499233007431,9.736355781555176,0.0015370192362269886,-0.005394218223793286,-0.0012458645987533845,3.7400052547454834,2019-08-07 14:31:00:770,-176.65445795750026,179.17738993581975,0,-37.33479690551758,31.63711929321289,-24.14017105102539
0.09988740086555481,0.10199718177318573,9.848908424377441,-0.00032764881944403687,-0.002996787815415939,-0.003643294877093568,3.750037431716919,2019-08-07 14:31:00:780,-176.70805924077922,179.18215980637254,0,-37.33479690551758,31.63711929321289,-24.14017105102539
0.07593990862369537,0.11397092789411545,9.805803298950195,-0.0016595545549180318,-0.006193361606560959,-0.0012458645987533845,3.7599990367889404,2019-08-07 14:31:00:790,-176.76155961069233,179.18612671769574,0,-37.33479690551758,31.63711929321289,-24.14017105102539
0.10467690229415894,0.13552367687225342,9.834540367126465,-0.0013931734273288073,-0.0037959311981836125,-0.003643294877093568,3.7700040340423584,2019-08-07 14:31:00:800,-176.81199950485396,179.1873966895101,0,-37.33479690551758,31.63711929321289,-24.14017105102539
0.08551890403032303,0.1307341754436493,9.777066230773926,0.0010042569160299579,-0.0048614559686148365,0.00061880342440835,3.7800090312957764,2019-08-07 14:31:00:810,-176.86300550993943,179.18776287209542,0,-37.33479690551758,31.63711929321289,-24.14017105102539
0.107071653008461,0.11876042932271957,9.808197975158691,-0.00032764881944403687,-0.0013985010498805918,-0.002844151494325895,3.7900333404541016,2019-08-07 14:31:00:820,-176.91244929003508,179.19031764487627,0,-37.33479690551758,31.63711929321289,-24.14017105102539
0.09988740086555481,0.1427079290151596,9.810592651367188,-0.0008604111071317767,-0.004062312325772837,-0.005507962770218141,3.799996852874756,2019-08-07 14:31:00:830,-176.9602608082067,179.19032498016057,0,-37.33479690551758,31.63711929321289,-24.14017105102539
0.11665065586566925,0.1235499233007431,9.810592651367188,-0.0016595545549180318,-0.003263168943005164,-0.0004467211834764202,3.8100013732910156,2019-08-07 14:31:00:840,-177.00559788809556,179.19302038801092,0,-37.33479690551758,31.63711929321289,-24.14017105102539
0.11665065586566925,0.1570764183998108,9.801013946533203,0.004200830512119234,-0.002996787815415939,0.00035242226430983473,3.820028066635132,2019-08-07 14:31:00:850,-177.0501608213018,179.18843142445888,0,-37.33479690551758,31.63711929321289,-24.14017105102539
0.14778240025043488,0.1427079290151596,9.796224594116211,0.0055327364101396825,-0.0016648821774698163,-0.0007131023435749355,3.830007553100586,2019-08-07 14:31:00:860,-177.09093912491392,179.18487043318768,0,-37.33479690551758,31.63711929321289,-24.14017105102539
0.08791365474462509,0.10678667575120926,9.810592651367188,-0.0005940299795425521,-0.001132119922291367,-0.004708819387450467,3.840005874633789,2019-08-07 14:31:00:870,-177.13821638146726,179.18903390676869,0,-37.33479690551758,31.63711929321289,-24.14017105102539
0.1262296438217163,0.10918142646551132,9.846513748168945,-0.0024586979376857053,-0.0021976444326482656,-0.005774343897807364,3.849998950958252,2019-08-07 14:31:00:880,-177.17952941050746,179.19392705502065,0,-37.33479690551758,31.63711929321289,-24.14017105102539
0.10467690229415894,0.12833942472934723,9.748329162597656,-6.126766340918298e-05,-0.004595074841025611,-0.005774343897807364,3.860008478164673,2019-08-07 14:31:00:890,-177.22105194431336,179.1949975271648,0,-36.58510208129883,31.187301635742188,-23.090599060058594
0.09988740086555481,0.18820816278457642,9.765092849731445,0.0007378757884407334,-0.005926980478971734,-0.0041760571322720175,3.8700039386749268,2019-08-07 14:31:00:900,-177.2615832316884,179.18860030268337,0,-36.58510208129883,31.187301635742188,-23.090599060058594
0.15017715096473694,0.11397092789411545,9.810592651367188,-0.0019259356825072562,-0.0005993576020943366,0.0022170901899436976,3.8800084590911865,2019-08-07 14:31:00:910,-177.29847496780465,179.19259854444138,0,-36.58510208129883,31.187301635742188,-23.090599060058594
0.09988740086555481,0.12594467401504517,9.8034086227417,0.0015370192362269886,-0.003529550070594388,-0.0041760571322720175,3.890003204345703,2019-08-07 14:31:00:920,-177.33884928737916,179.19316319196125,0,-36.58510208129883,31.187301635742188,-23.090599060058594
0.1262296438217163,0.0780496820807457,9.8034086227417,0.00047149462834221814,-0.007791648372096307,-0.003643294877093568,3.900002956390381,2019-08-07 14:31:00:930,-177.3729433047988,179.19991219506966,0,-36.58510208129883,31.187301635742188,-23.090599060058594
0.14778240025043488,0.13552367687225342,9.755513191223145,-0.0019259356825072562,-0.00566059935138251,-0.007372630663342713,3.910005807876587,2019-08-07 14:31:00:940,-177.40494742041446,179.20107762406795,0,-36.58510208129883,31.187301635742188,-23.090599060058594
0.10946640372276306,0.10199718177318573,9.853697776794434,-0.00032764881944403687,-0.005926980478971734,-0.0020450079815210586,3.920008420944214,2019-08-07 14:31:00:950,-177.44078996346246,179.20537896440396,0,-36.58510208129883,31.187301635742188,-23.090599060058594
0.09270315617322922,0.13791842758655548,9.877645492553711,-0.0032578413204533796,-0.002996787815415939,-0.0015122457263426093,3.930007219314575,2019-08-07 14:31:00:960,-177.47953740344684,179.20710142289633,0,-36.58510208129883,31.187301635742188,-23.090599060058594
0.09270315617322922,0.13312892615795135,9.832145690917969,0.00020511348449834825,-0.006193361606560959,-0.0031105326219151193,3.940001964569092,2019-08-07 14:31:00:970,-177.51566688383411,179.207329339984,0,-36.58510208129883,31.187301635742188,-23.090599060058594
0.0807294100522995,0.10678667575120926,9.796224594116211,0.0028689248741731116,-0.007791648372096307,-0.004442438259861242,3.9499995708465576,2019-08-07 14:31:00:980,-177.55153646619377,179.2090813405358,0,-36.58510208129883,31.187301635742188,-23.090599060058594
0.07115040719509125,0.11157617717981339,9.829751014709473,0.00393444938453001,-0.0019312633050590406,-0.0012458645987533845,3.960005044937134,2019-08-07 14:31:00:990,-177.59112643816684,179.20968274178276,0,-36.58510208129883,31.187301635742188,-23.090599060058594
0.1453876495361328,0.09481292963027954,9.846513748168945,0.00047149462834221814,-0.005926980478971734,-0.00257777036673667,3.9700021743774414,2019-08-07 14:31:01:000,-177.6190582081532,179.21419064036326,0,-36.58510208129883,31.187301635742188,-23.090599060058594
0.11904539912939072,0.13552367687225342,9.812987327575684,-0.0011267922997395827,-0.005926980478971734,-0.0009794834711641602,3.9801695346832275,2019-08-07 14:31:01:010,-177.64939246211017,179.21472528217504,0,-38.08449172973633,31.187301635742188,-24.290109634399414
0.10228215157985687,0.15228691697120667,9.762697219848633,0.002336162618994662,-0.004328693453362062,-0.0009794834711641602,3.990032196044922,2019-08-07 14:31:01:020,-177.68200231088895,179.21126351609738,0,-38.08449172973633,31.187301635742188,-24.290109634399414
0.107071653008461,0.13552367687225342,9.798619270324707,-0.00032764881944403687,-0.0048614559686148365,-0.005774343897807364,3.9999988079071045,2019-08-07 14:31:01:030,-177.71312050611817,179.2113735778647,0,-38.08449172973633,31.187301635742188,-24.290109634399414
0.06396616250276566,0.13312892615795135,9.85609245300293,-0.00032764881944403687,0.0012653104860859794,-0.007372630663342713,4.010004997253418,2019-08-07 14:31:01:040,-177.75213210383885,179.21185294165807,0,-38.08449172973633,31.187301635742188,-24.290109634399414
0.11425590515136719,0.10678667575120926,9.772276878356934,0.00047149462834221814,-0.006193361606560959,-0.005774343897807364,4.0200111865997314,2019-08-07 14:31:01:050,-177.780212493096,179.21482946705467,0,-38.08449172973633,31.187301635742188,-24.290109634399414
0.09749265760183334,0.10199718177318573,9.772276878356934,-0.0013931734273288073,-0.006726123861739408,-0.0031105326219151193,4.030038356781006,2019-08-07 14:31:01:060,-177.8093894790757,179.21935732079623,0,-38.08449172973633,31.187301635742188,-24.290109634399414
0.10467690229415894,0.11397092789411545,9.832145690917969,-0.0016595545549180318,-0.006459742734150184,-0.005241581642628916,4.040003538131714,2019-08-07 14:31:01:070,-177.837387773348,179.22261629402095,0,-38.08449172973633,31.187301635742188,-24.290109634399414
0.09988740086555481,0.11397092789411545,9.848908424377441,0.001803400363816213,-0.0005993576020943366,-0.0012458645987533845,4.049999713897705,2019-08-07 14:31:01:080,-177.8686821572068,179.2238918796875,0,-38.08449172973633,31.187301635742188,-24.290109634399414
0.14778240025043488,0.13312892615795135,9.834540367126465,0.0015370192362269886,-0.006193361606560959,-0.003909676004682793,4.060021162033081,2019-08-07 14:31:01:090,-177.89060525780096,179.22303799017848,0,-38.08449172973633,31.187301635742188,-24.290109634399414
0.1405981481075287,0.11876042932271957,9.808197975158691,0.0010042569160299579,-0.004328693453362062,-0.005241581642628916,4.070003271102905,2019-08-07 14:31:01:100,-177.91394164753268,179.2241399589631,0,-38.08449172973633,31.187301635742188,-24.290109634399414
0.11186115443706512,0.10918142646551132,9.8034086227417,-0.0008604111071317767,-0.005394218223793286,-0.002844151494325895,4.080029726028442,2019-08-07 14:31:01:110,-177.93955112794484,179.227379922155,0,-38.08449172973633,31.187301635742188,-24.290109634399414
0.10946640372276306,0.12833942472934723,9.805803298950195,-0.0029914601928641544,-0.002996787815415939,-0.0033769137495043436,4.0900185108184814,2019-08-07 14:31:01:120,-177.96628748258175,179.22951312858177,0,-38.08449172973633,31.187301635742188,-24.290109634399414
0.10467690229415894,0.1307341754436493,9.834540367126465,-0.0019259356825072562,-0.005127837096204061,8.60411123386422e-05,4.100003004074097,2019-08-07 14:31:01:130,-177.99189048589187,179.23077041761536,0,-38.08449172973633,31.187301635742188,-24.290109634399414
0.11665065586566925,0.12833942472934723,9.765092849731445,-0.0019259356825072562,-0.006193361606560959,-0.004442438259861242,4.11000919342041,2019-08-07 14:31:01:140,-178.01488487196443,179.2321775616946,0,-36.28522491455078,31.187301635742188,-24.589988708496094
0.11425590515136719,0.14749743044376373,9.827356338500977,0.0010042569160299579,-0.00246402556023749,-0.0015122457263426093,4.12000036239624,2019-08-07 14:31:01:150,-178.03988267807108,179.22977302239337,0,-36.28522491455078,31.187301635742188,-24.589988708496094
0.1405981481075287,0.13312892615795135,9.810592651367188,-0.00032764881944403687,-0.006726123861739408,-0.004708819387450467,4.130000352859497,2019-08-07 14:31:01:160,-178.05888702931395,179.22981251126856,0,-36.28522491455078,31.187301635742188,-24.589988708496094
0.1262296438217163,0.11636567860841751,9.805803298950195,0.00047149462834221814,-0.005394218223793286,-0.004442438259861242,4.140004873275757,2019-08-07 14:31:01:170,-178.07992857071935,179.2313534311176,0,-36.28522491455078,31.187301635742188,-24.589988708496094
0.15496665239334106,0.14749743044376373,9.801013946533203,0.0034016871293515603,-0.008857173402601856,-0.0017786268539318336,4.150002717971802,2019-08-07 14:31:01:180,-178.09524088879846,179.2275729189496,0,-36.28522491455078,31.187301635742188,-24.589988708496094
0.07354515790939331,0.09241817891597748,9.767487525939941,-0.004589746958399502,-0.0016648821774698163,-0.006307106152985815,4.160011053085327,2019-08-07 14:31:01:190,-178.12377235340836,179.23475862531598,0,-36.28522491455078,31.187301635742188,-24.589988708496094
0.10946640372276306,0.15228691697120667,9.781855583190918,0.0010042569160299579,-0.0027304066878267143,0.00061880342440835,4.1700193881988525,2019-08-07 14:31:01:200,-178.14693937710405,179.23166057091265,0,-36.28522491455078,31.187301635742188,-24.589988708496094
0.15736140310764313,0.1498921662569046,9.784250259399414,0.004999974154961233,-0.003263168943005164,0.00061880342440835,4.180004835128784,2019-08-07 14:31:01:210,-178.16374266655703,179.2266702112655,0,-36.28522491455078,31.187301635742188,-24.589988708496094
0.12144014984369278,0.11876042932271957,9.755513191223145,0.0015370192362269886,-0.005926980478971734,-0.004442438259861242,4.190003871917725,2019-08-07 14:31:01:220,-178.18287610813928,179.22732454312884,0,-36.28522491455078,31.187301635742188,-24.589988708496094
0.13580864667892456,0.1235499233007431,9.779460906982422,0.0015370192362269886,-0.0037959311981836125,-0.003643294877093568,4.200010299682617,2019-08-07 14:31:01:230,-178.20117334964536,179.22743817949987,0,-36.28522491455078,31.187301635742188,-24.589988708496094
0.17412464320659637,0.0972076803445816,9.781855583190918,0.00020511348449834825,-0.002996787815415939,-0.003643294877093568,4.209998846054077,2019-08-07 14:31:01:240,-178.21507308232103,179.23138715808068,0,-36.28522491455078,31.187301635742188,-24.589988708496094
0.152571901679039,0.10918142646551132,9.798619270324707,-0.0013931734273288073,-0.0048614559686148365,-0.003643294877093568,4.2200047969818115,2019-08-07 14:31:01:250,-178.230198966009,179.23477427294455,0,-36.28522491455078,31.187301635742188,-24.589988708496094
0.11665065586566925,0.09241817891597748,9.839329719543457,0.0034016871293515603,-0.006193361606560959,-0.003909676004682793,4.230000019073486,2019-08-07 14:31:01:260,-178.24853426210694,179.23740669682087,0,-36.58510208129883,30.88742446899414,-23.690353393554688
0.14299289882183075,0.0972076803445816,9.791434288024902,-0.0011267922997395827,-0.002996787815415939,-0.0012458645987533845,4.2400054931640625,2019-08-07 14:31:01:270,-178.26514634304564,179.24191552185667,0,-36.58510208129883,30.88742446899414,-23.690353393554688
0.11425590515136719,0.13312892615795135,9.793828964233398,0.0015370192362269886,-0.0013985010498805918,-0.005507962770218141,4.250006914138794,2019-08-07 14:31:01:280,-178.28569027502104,179.24063841836727,0,-36.58510208129883,30.88742446899414,-23.690353393554688
0.17651939392089844,0.1235499233007431,9.812987327575684,0.0020697814914054373,-0.00246402556023749,-0.006573487280575038,4.259999513626099,2019-08-07 14:31:01:290,-178.2979830452308,179.24023750026677,0,-36.58510208129883,30.88742446899414,-23.690353393554688
0.1262296438217163,0.13552367687225342,9.853697776794434,0.004200830512119234,-0.00246402556023749,0.003016233572711371,4.26999831199646,2019-08-07 14:31:01:300,-178.31596118875103,179.23731481844285,0,-36.58510208129883,30.88742446899414,-23.690353393554688
0.13820339739322662,0.13552367687225342,9.808197975158691,0.004999974154961233,-0.004328693453362062,-0.0017786268539318336,4.280015230178833,2019-08-07 14:31:01:310,-178.3310617273513,179.2339237408691,0,-36.58510208129883,30.88742446899414,-23.690353393554688
0.1717298924922943,0.13791842758655548,9.841724395751953,0.00020511348449834825,-0.005926980478971734,-0.0068398684081642635,4.289995193481445,2019-08-07 14:31:01:320,-178.34112592600312,179.23307292316514,0,-36.58510208129883,30.88742446899414,-23.690353393554688
0.11186115443706512,0.11876042932271957,9.772276878356934,0.0007378757884407334,-0.0005993576020943366,-0.005241581642628916,4.300017356872559,2019-08-07 14:31:01:330,-178.36084964635054,179.23407084411025,0,-36.58510208129883,30.88742446899414,-23.690353393554688
0.12383490055799484,0.11876042932271957,9.846513748168945,0.0020697814914054373,-0.0008657387296835611,-0.0023113892391474454,4.310000658035278,2019-08-07 14:31:01:340,-178.3787364807349,179.23440878129364,0,-36.58510208129883,30.88742446899414,-23.690353393554688
0.11904539912939072,0.0972076803445816,9.851303100585938,-0.004856128085988727,-0.00246402556023749,-0.0020450079815210586,4.320009708404541,2019-08-07 14:31:01:350,-178.39593011994296,179.2411428337975,0,-36.58510208129883,30.88742446899414,-23.690353393554688
0.09749265760183334,0.13312892615795135,9.729170799255371,0.0020697814914054373,-0.001132119922291367,-0.005774343897807364,4.330003976821899,2019-08-07 14:31:01:360,-178.4158937583824,179.23947932778213,0,-36.58510208129883,30.88742446899414,-23.690353393554688
0.07354515790939331,0.11397092789411545,9.810592651367188,-6.126766340918298e-05,-0.00033297644199582136,-0.004708819387450467,4.340019702911377,2019-08-07 14:31:01:370,-178.43879842221125,179.24141254574081,0,-36.58510208129883,30.88742446899414,-23.690353393554688
0.13580864667892456,0.09960243105888367,9.877645492553711,-0.004589746958399502,-0.007791648372096307,-0.005774343897807364,4.350005388259888,2019-08-07 14:31:01:380,-178.44989941141543,179.247603155802,0,-36.58510208129883,30.88742446899414,-23.690353393554688
0.12862439453601837,0.1307341754436493,9.767487525939941,-6.126766340918298e-05,-0.004595074841025611,-0.010302823586972834,4.360061168670654,2019-08-07 14:31:01:390,-178.46321764069253,179.24734894955995,0,-36.28522491455078,31.487178802490234,-23.090599060058594
0.09988740086555481,0.15947116911411285,9.789039611816406,0.00393444938453001,-0.00805802949968553,0.00061880342440835,4.370014667510986,2019-08-07 14:31:01:400,-178.47775723342735,179.24153683877543,0,-36.28522491455078,31.487178802490234,-23.090599060058594
0.16215088963508606,0.13312892615795135,9.791434288024902,0.00047149462834221814,-0.00246402556023749,-0.002844151494325895,4.380000114440918,2019-08-07 14:31:01:410,-178.48784537311,179.24086229864284,0,-36.28522491455078,31.487178802490234,-23.090599060058594
0.08551890403032303,0.13312892615795135,9.791434288024902,0.001803400363816213,-0.003263168943005164,-0.002844151494325895,4.390009641647339,2019-08-07 14:31:01:420,-178.5062462223069,179.23945203604023,0,-36.28522491455078,31.487178802490234,-23.090599060058594
0.09749265760183334,0.18581341207027435,9.801013946533203,-0.0008604111071317767,-0.0005993576020943366,-0.0041760571322720175,4.400007247924805,2019-08-07 14:31:01:430,-178.52438656294768,179.23342365695353,0,-36.28522491455078,31.487178802490234,-23.090599060058594
0.12144014984369278,0.1427079290151596,9.829751014709473,-0.00032764881944403687,-0.005394218223793286,-0.003909676004682793,4.4099977016448975,2019-08-07 14:31:01:440,-178.53671655887567,179.2323037948772,0,-36.28522491455078,31.487178802490234,-23.090599060058594
0.11904539912939072,0.1307341754436493,9.750723838806152,0.0010042569160299579,-0.00805802949968553,-0.004975200515039691,4.420011281967163,2019-08-07 14:31:01:450,-178.54746186183908,179.23172996343598,0,-36.28522491455078,31.487178802490234,-23.090599060058594
0.09270315617322922,0.14510267972946167,9.789039611816406,0.004733593027372009,0.001531691613675204,-0.002844151494325895,4.430004119873047,2019-08-07 14:31:01:460,-178.56652044381062,179.22745472861604,0,-36.28522491455078,31.487178802490234,-23.090599060058594
0.15736140310764313,0.13312892615795135,9.81538200378418,-0.0008604111071317767,-0.005926980478971734,0.0014179468071760237,4.4400060176849365,2019-08-07 14:31:01:470,-178.57349152692473,179.2278474066448,0,-36.28522491455078,31.487178802490234,-23.090599060058594
0.09509790688753128,0.14510267972946167,9.846513748168945,0.00393444938453001,-0.005394218223793286,-0.0009794834711641602,4.4500017166137695,2019-08-07 14:31:01:480,-178.58792721199256,179.22419671257146,0,-36.28522491455078,31.487178802490234,-23.090599060058594
0.1334138959646225,0.1235499233007431,9.714802742004395,-0.0008604111071317767,-0.005394218223793286,-0.005774343897807364,4.460006952285767,2019-08-07 14:31:01:490,-178.59740230600673,179.2256235286288,0,-36.28522491455078,31.487178802490234,-23.090599060058594
0.06636090576648712,0.11876042932271957,9.839329719543457,0.0034016871293515603,-0.0019312633050590406,-0.0033769137495043436,4.470004320144653,2019-08-07 14:31:01:500,-178.61664168590087,179.22537102119526,0,-36.28522491455078,31.487178802490234,-23.090599060058594
0.018465915694832802,0.06368118524551392,9.863277435302734,-0.00272507906527493,-0.0016648821774698163,-0.004708819387450467,4.480010747909546,2019-08-07 14:31:01:510,-178.64122805460732,179.23499633507112,0,-36.13528823852539,31.037363052368164,-23.240537643432617
0.04480816051363945,0.0972076803445816,9.767487525939941,-0.00032764881944403687,-0.004328693453362062,-0.003643294877093568,4.489999771118164,2019-08-07 14:31:01:520,-178.66071877722368,179.2390762124013,0,-36.13528823852539,31.037363052368164,-23.240537643432617
0.1262296438217163,0.1498921662569046,9.772276878356934,0.004200830512119234,-0.005394218223793286,-0.0015122457263426093,4.499999046325684,2019-08-07 14:31:01:530,-178.66967467242137,179.23436083902396,0,-36.13528823852539,31.037363052368164,-23.240537643432617
0.06636090576648712,0.13552367687225342,9.824960708618164,-0.0019259356825072562,-0.00566059935138251,-0.004975200515039691,4.510004281997681,2019-08-07 14:31:01:540,-178.68536133579576,179.23495005500482,0,-36.13528823852539,31.037363052368164,-23.240537643432617
