ACCELEROMETER X (m/s²),ACCELEROMETER Y (m/s²),ACCELEROMETER Z (m/s²),GYROSCOPE X (rad/s),GYROSCOPE Y (rad/s),GYROSCOPE Z (rad/s),Pitch (Deg),Roll (Deg),Heading (Deg),Time since start in ms ,YYYY-MO-DD HH-MI-SS_SSS
0.297669768,-0.122613579,9.906636238,0.004339882,-0.005483456,0.004629438,-3.565578445,-3.585817826,0,0,2019-07-25 11:50:21:495
0.240195796,-0.038797341,9.801267624,-0.00072136,-0.00415155,0.006227725,-7.065416078,-7.109431027,0,0.003319979,2019-07-25 11:50:21:498
0.28569603,-0.062744834,9.813241005,0.003540738,-0.005483456,0.005428581,-10.48972483,-10.56058133,0,0.006668329,2019-07-25 11:50:21:502
0.175537542,-0.105850331,9.841978073,0.00167607,-0.002553263,0.006227725,-13.85901687,-13.93735936,0,0.009999275,2019-07-25 11:50:21:505
0.228222042,-0.060350087,9.774925232,0.002741595,-0.006016218,0.009157917,-17.15397327,-17.25204489,0,0.013295889,2019-07-25 11:50:21:508
0.240195796,-0.069929086,9.834794044,0.0040735,-0.00415155,0.008092393,-20.3821205,-20.49963344,0,0.01669383,2019-07-25 11:50:21:512
0.209064037,-0.105850331,9.820425034,0.002741595,-0.003885169,0.011821728,-23.54936398,-23.67779991,0,0.020006895,2019-07-25 11:50:21:515
0.295275033,-0.10106083,9.753372192,0.004606263,-0.003885169,0.012620872,-26.64297797,-26.7932217,0,0.023296833,2019-07-25 11:50:21:518
0.240195796,-0.096271336,9.839583397,0.00167607,-0.005749837,0.016083827,-29.68107295,-29.84646008,0,0.026635408,2019-07-25 11:50:21:522
0.240195796,-0.081902832,9.844372749,0.001143308,-0.002020501,0.015018303,-32.65912066,-32.84021059,0,0.029957056,2019-07-25 11:50:21:525
0.233011544,-0.098666079,9.719845772,0.006737312,-0.002020501,0.017682114,-35.57810217,-35.77301025,0,0.033223391,2019-07-25 11:50:21:528
0.261748523,-0.038797341,9.679135323,-0.000454979,0.001176073,0.017948495,-38.43578134,-38.65287091,0,0.036587238,2019-07-25 11:50:21:531
0.266538024,-0.043586839,9.82521534,0.003540738,-0.005217075,0.0192804,-41.23498685,-41.47540876,0,0.040001392,2019-07-25 11:50:21:535
0.300064534,-0.041192088,9.863531113,0.000610546,-0.007614505,0.020345924,-43.97404337,-44.2412268,0,0.043261528,2019-07-25 11:50:21:538
0.256959051,-0.019639343,9.779714584,0.004872644,-0.004684313,0.020079544,-46.66358322,-46.95501398,0,0.046598196,2019-07-25 11:50:21:541
0.295275033,-0.019639343,9.810846329,0.001942451,-0.002819644,0.020878688,-49.29529557,-49.61399045,0,0.049996376,2019-07-25 11:50:21:545
0.216248289,0.023466153,9.734214783,0.003540738,-0.00415155,0.020878688,-51.8831691,-45.02512801,0,0.053290606,2019-07-25 11:50:21:548
0.309643537,0.006702905,9.834794044,0.002475214,-0.007880886,0.023009737,-54.40793712,-40.52587817,0,0.056684732,2019-07-25 11:50:21:552
0.261748523,0.0450189,9.782109261,0.006470931,-0.004417931,0.025140786,-56.88829907,-36.12184168,0,0.060007811,2019-07-25 11:50:21:555
0.194695547,0.023466153,9.779714584,0.002208833,-0.002819644,0.024341642,-59.32720102,-31.80256342,0,0.063305378,2019-07-25 11:50:21:558
0.218643039,-0.031613089,9.810846329,0.003274357,-0.000688595,0.025407166,-61.71499326,-34.76343915,0,0.066674471,2019-07-25 11:50:21:562
0.228222042,0.013887154,9.822820663,-0.001520504,-0.005217075,0.029402884,-64.05306514,-30.46949635,0,0.070118904,2019-07-25 11:50:21:565
0.283301294,0.025860902,9.815635681,0.007003693,-0.005749837,0.030734789,-66.33792795,-26.26435742,0,0.073251486,2019-07-25 11:50:21:568
0.185116544,0.076150648,9.87789917,0.003807119,-0.004417931,0.030468408,-68.5888612,-22.14862434,0,0.07662034,2019-07-25 11:50:21:571
0.206669301,0.066571645,9.856347084,0.002741595,-0.004950694,0.02620631,-70.79213033,-18.11390618,0,0.079963923,2019-07-25 11:50:21:575
0.189906046,0.037834652,9.863531113,0.002208833,-0.00654898,0.029136503,-72.95307317,-14.15641296,0,0.083103657,2019-07-25 11:50:21:578
0.197090298,-0.019639343,9.808451653,0.007270074,-0.010278316,0.025407166,-75.06918234,-17.47226804,0,0.086233854,2019-07-25 11:50:21:581
0.206669301,0.073755898,9.736609459,0.003007976,-0.005217075,0.030734789,-77.14237166,-13.53214149,0,0.090014458,2019-07-25 11:50:21:585
0.209064037,0.059387397,9.837188721,0.000344164,-0.008147267,0.02860374,-79.17373689,-9.668477226,0,0.093156815,2019-07-25 11:50:21:588
0.211458787,0.083334893,9.849162102,0.003540738,-0.006815362,0.024341642,-81.16436293,-5.88547882,0,0.096555233,2019-07-25 11:50:21:591
0.194695547,0.035439901,9.815635681,0.003540738,-0.002286882,0.031001172,-83.11790745,-2.172590464,0,0.099994898,2019-07-25 11:50:21:595
0.283301294,0.052203149,9.87789917,0.003007976,-0.000155833,0.028070979,-85.02266545,1.464271983,0,0.103153229,2019-07-25 11:50:21:598
0.237801045,-0.007665594,9.746188164,0.004339882,-0.003352407,0.027538215,-86.89361591,-2.164943445,0,0.106564522,2019-07-25 11:50:21:601
0.218643039,0.025860902,9.777319908,-0.002852409,-0.00415155,0.028070979,-88.72932028,1.475875745,0,0.110006332,2019-07-25 11:50:21:605
0.206669301,0.107282393,9.885084152,0.000876927,-0.003618788,0.02620631,-90.53013371,5.033765658,0,0.113184452,2019-07-25 11:50:21:608
0.252169549,-0.057955336,9.918610573,0.000344164,-0.007348124,0.028870123,-92.28898411,1.339719467,0,0.116625071,2019-07-25 11:50:21:611
0.254564285,0.052203149,9.810846329,-0.000454979,-0.003618788,0.02620631,-94.01278858,4.90691441,0,0.120016813,2019-07-25 11:50:21:615
0.199485049,0.095308647,9.856347084,0.001942451,-0.004684313,0.025407166,-95.7085121,8.397350963,0,0.123177767,2019-07-25 11:50:21:618
0.192300797,0.076150648,9.839583397,0.002475214,-0.00654898,0.022743356,-97.37070735,11.82006619,0,0.126555443,2019-07-25 11:50:21:621
0.194695547,0.028255651,9.885084152,0.000610546,-0.006815362,0.02593993,-98.99942258,15.18027259,0,0.129962206,2019-07-25 11:50:21:625
0.218643039,0.107282393,9.772530556,-0.003118791,-0.004684313,0.024075261,-100.5929687,18.46464167,0,0.133124828,2019-07-25 11:50:21:628
0.168353304,0.025860902,9.853952408,-0.000188598,-0.00175412,0.022476973,-102.1611983,21.69237751,0,0.1365273,2019-07-25 11:50:21:631
0.161169052,0.092913896,9.813241005,0.000610546,-0.002020501,0.022210593,-103.6987623,24.84756155,0,0.139997244,2019-07-25 11:50:21:635
0.264143288,0.021071402,9.8036623,-0.002053266,-0.000422214,0.021411449,-105.1938452,27.94851009,0,0.143143415,2019-07-25 11:50:21:638
0.249774784,0.083334893,9.873109818,-0.000188598,-0.002819644,0.020612307,-106.6604359,30.97990461,0,0.146608829,2019-07-25 11:50:21:641
0.266538024,0.0450189,9.810846329,0.001942451,-0.003352407,0.022743356,-108.0954615,33.95467663,0,0.150016546,2019-07-25 11:50:21:645
0.266538024,0.064176895,9.837188721,0.000610546,-0.004684313,0.022476973,-109.501684,36.86799953,0,0.153161764,2019-07-25 11:50:21:648
0.168353304,0.047413651,9.8036623,-0.001254122,-0.00415155,0.0192804,-110.8911821,39.72533682,0,0.156559229,2019-07-25 11:50:21:651
0.187511295,0.143203631,9.830004692,7.78E-05,-0.004950694,0.021411449,-112.2505379,42.5141224,0,0.160028696,2019-07-25 11:50:21:655
0.201879799,0.107282393,9.772530556,0.000344164,-0.002553263,0.020345924,-113.581408,45.25119996,0,0.163169146,2019-07-25 11:50:21:658
0.180327043,-0.022034092,9.853952408,-0.000188598,-0.001487739,0.019813163,-114.8885281,40.74877429,0,0.166568041,2019-07-25 11:50:21:661
0.216248289,0.009097654,9.904241562,-0.003118791,-0.001487739,0.021145068,-116.1654537,43.53334981,0,0.170014858,2019-07-25 11:50:21:665
0.199485049,0.09770339,9.85874176,-0.003917934,-0.000155833,0.019546783,-117.4189334,46.2520195,0,0.173163652,2019-07-25 11:50:21:668
0.216248289,0.085729644,9.746188164,-0.004184315,-0.000954976,0.015551065,-118.6449531,48.91768958,0,0.176525831,2019-07-25 11:50:21:671
0.264143288,0.102492891,9.786898613,-0.000987741,-0.000422214,0.015817446,-119.8410519,51.52752751,0,0.179984808,2019-07-25 11:50:21:675
0.182721794,0.114466637,9.815635681,-0.000188598,-0.003885169,0.01208811,-121.0222146,54.08364763,0,0.183134079,2019-07-25 11:50:21:678
0.213853538,0.042624149,9.887478828,-0.002053266,-0.004950694,0.014751921,-122.1761237,56.59739383,0,0.186248541,2019-07-25 11:50:21:681
0.233011544,0.078545392,9.820425034,-0.005516221,-0.005749837,0.015817446,-123.3041935,59.05745464,0,0.190037966,2019-07-25 11:50:21:685
0.213853538,0.073755898,9.796478271,-0.001520504,-0.000954976,0.013952777,-124.4129301,61.46794677,0,0.19318223,2019-07-25 11:50:21:688
0.180327043,0.018676654,9.904241562,-0.004983458,-0.000422214,0.011288966,-125.503728,63.83739611,0,0.196645737,2019-07-25 11:50:21:692
0.266538024,0.109677143,9.743793488,-0.004983458,-0.003086026,0.008625155,-126.5617314,66.14869273,0,0.200014114,2019-07-25 11:50:21:695
0.26893279,0.049808398,9.856347084,-0.004184315,-0.00175412,0.009157917,-127.5989269,68.42067005,0,0.203171968,2019-07-25 11:50:21:698
0.309643537,0.035439901,9.810846329,-0.003385172,0.00064331,0.007293249,-128.6109165,70.64876304,0,0.206569433,2019-07-25 11:50:21:701
0.331196278,0.083334893,9.822820663,-0.00524984,-0.00175412,0.008891537,-129.5997369,72.827081,0,0.210011721,2019-07-25 11:50:21:705
0.242590532,-0.000481345,9.736609459,-0.006848126,0.00277436,0.010756204,-130.5796874,67.77180598,0,0.213158369,2019-07-25 11:50:21:708
0.288090795,0.001913405,9.834794044,-0.006048983,-0.002286882,0.005428581,-131.5340979,70.01730564,0,0.216569901,2019-07-25 11:50:21:711
0.288090795,0.025860902,9.794083595,-0.003118791,-0.003618788,0.004363057,-132.4690188,72.21453702,0,0.220014572,2019-07-25 11:50:21:715
0.345564783,0.030650401,9.837188721,-0.004184315,0.003307122,0.006760487,-133.3799871,74.36741765,0,0.223171711,2019-07-25 11:50:21:718
0.316827774,0.025860902,9.741398811,-0.001254122,-0.005749837,0.003830295,-134.2740484,76.4772633,0,0.226524591,2019-07-25 11:50:21:721
0.324012041,-0.005270844,9.746188164,-0.002053266,-0.003618788,0.0051622,-135.1497851,71.34873514,0,0.229971409,2019-07-25 11:50:21:725
0.292880297,-0.002876094,9.841978073,-0.003651553,-0.00175412,0.0051622,-136.012387,66.32274473,0,0.2331388,2019-07-25 11:50:21:728
0.307248771,-0.007665594,9.830004692,-0.003385172,-0.004684313,0.001965626,-136.8554237,61.39784123,0,0.236599445,2019-07-25 11:50:21:731
0.26893279,-0.022034092,9.762951851,-0.006848126,-0.002819644,0.004096676,-137.6862166,56.57378445,0,0.240016222,2019-07-25 11:50:21:735
0.288090795,-0.036402591,9.753372192,-0.003917934,-0.002819644,0.001166483,-138.498157,51.84727694,0,0.243158579,2019-07-25 11:50:21:738
0.331196278,-0.057955336,9.822820663,-0.004184315,-0.00415155,0.007026868,-139.2887624,47.21790796,0,0.246630192,2019-07-25 11:50:21:742
0.395854533,-0.031613089,9.830004692,-0.003385172,-0.001221358,0.000900102,-140.0566339,42.67787836,0,0.250014782,2019-07-25 11:50:21:745
0.297669768,-0.062744834,9.818030357,-0.002053266,-0.004950694,0.000900102,-140.8198894,38.23200888,0,0.253179789,2019-07-25 11:50:21:748
0.350354284,-0.005270844,9.818030357,-0.003385172,-0.000688595,0.00276477,-141.562485,33.86863407,0,0.25660038,2019-07-25 11:50:21:751
0.340775281,-0.089087084,9.815635681,-0.004717077,-0.004950694,-0.00416114,-142.2905185,29.60256601,0,0.260015488,2019-07-25 11:50:21:755
0.343170017,0.013887154,9.774925232,-0.002586028,-0.003885169,0.001699245,-143.0038066,32.60934475,0,0.263170004,2019-07-25 11:50:21:758
0.280906528,-0.153745323,9.827610016,-0.003651553,-0.002819644,-0.000698185,-143.7104469,28.37578053,0,0.26657033,2019-07-25 11:50:21:761
0.304854035,-0.079508081,9.671951294,0.000876927,0.000909692,0.001166483,-144.4003073,24.21751506,0,0.27001524,2019-07-25 11:50:21:765
0.295275033,-0.091481835,9.830004692,-0.00524984,-0.000954976,-0.000165423,-145.0777207,20.14476134,0,0.273178816,2019-07-25 11:50:21:768
0.357538521,-0.089087084,9.839583397,0.002208833,-0.003352407,-0.000431804,-145.733901,16.15181609,0,0.276603937,2019-07-25 11:50:21:771
0.362328023,-0.072323836,9.856347084,-0.005516221,-0.002020501,0.002498389,-146.3767353,12.2382303,0,0.279968739,2019-07-25 11:50:21:775
0.328801543,-0.105850331,9.856347084,-0.000454979,-0.002020501,0.001432864,-147.0106305,8.405852017,0,0.28311801,2019-07-25 11:50:21:778
0.340775281,-0.108245082,9.820425034,-0.001520504,-0.000688595,0.003563913,-147.630538,4.650656234,0,0.286526203,2019-07-25 11:50:21:781
0.340775281,-0.081902832,9.882688522,-0.004983458,-0.000688595,-0.000165423,-148.2382931,0.968126112,0,0.29005146,2019-07-25 11:50:21:785
0.364722759,-0.072323836,9.856347084,-0.000987741,-0.001487739,0.00276477,-148.8308812,-2.64265408,0,0.293188572,2019-07-25 11:50:21:788
0.359933287,-0.081902832,9.760557175,0.000610546,-0.003086026,-0.003894759,-149.411435,-6.180302452,0,0.296596766,2019-07-25 11:50:21:791
0.338380516,-0.12740308,9.95453167,7.78E-05,-0.003885169,0.002232008,-149.9835231,-9.642046128,0,0.300014257,2019-07-25 11:50:21:795
0.376696527,-0.04598159,9.813241005,0.001942451,-0.002819644,-0.002829234,-150.5393865,-13.04418029,0,0.303172112,2019-07-25 11:50:21:798
0.331196278,-0.108245082,9.815635681,-0.004184315,-0.004417931,0.000100958,-151.0891015,-16.3698582,0,0.306585789,2019-07-25 11:50:21:801
0.304854035,-0.062744834,9.834794044,0.003540738,0.001708835,0.00276477,-151.6321391,-19.63583162,0,0.310012579,2019-07-25 11:50:21:805
0.381486028,-0.120218828,9.810846329,-0.001520504,-0.003086026,0.004096676,-152.1544154,-22.82880525,0,0.313160658,2019-07-25 11:50:21:808
0.300064534,-0.110639833,9.755766869,0.003274357,-0.000688595,0.003297532,-152.6759612,-25.95985829,0,0.316556692,2019-07-25 11:50:21:811
0.331196278,-0.012455093,9.789293289,-0.002586028,-0.003086026,-0.001230947,-153.1830879,-29.03870068,0,0.320017099,2019-07-25 11:50:21:815
0.345564783,-0.065139584,9.837188721,0.001143308,-0.002286882,0.00276477,-153.678785,-32.05054055,0,0.323159933,2019-07-25 11:50:21:818
0.292880297,-0.019639343,9.762951851,-0.000188598,0.001442454,0.001432864,-154.1711197,-35.00718843,0,0.326575279,2019-07-25 11:50:21:821
0.367117524,-0.069929086,9.875504494,-0.00072136,-0.002020501,0.003297532,-154.644732,-37.89879267,0,0.329977989,2019-07-25 11:50:21:825
0.331196278,-0.03400784,9.777319908,7.78E-05,0.001975216,0.00276477,-155.1133856,-40.73684485,0,0.333134413,2019-07-25 11:50:21:828
0.307248771,-0.055560589,9.767741203,0.003007976,-0.004684313,-0.00176371,-155.5741768,-43.51617271,0,0.336585283,2019-07-25 11:50:21:831
0.33598578,-0.043586839,9.746188164,-0.000987741,-0.00654898,0.001166483,-156.0219452,-46.24053451,0,0.340011358,2019-07-25 11:50:21:835
0.333591014,-0.105850331,9.741398811,0.002741595,-0.002020501,0.002232008,-156.461924,-48.90375606,0,0.343150854,2019-07-25 11:50:21:838
0.367117524,-0.036402591,9.719845772,0.001143308,-0.003086026,-0.00176371,-156.888835,-51.52160787,0,0.34655571,2019-07-25 11:50:21:841
0.410223007,-0.012455093,9.808451653,0.001409689,-0.000422214,-0.001230947,-157.3030781,-54.08999437,0,0.350014448,2019-07-25 11:50:21:845
0.355143785,0.009097654,9.719845772,-0.001786885,-0.00175412,-0.002829234,-157.7148556,-49.40895121,0,0.353162289,2019-07-25 11:50:21:848
0.340775281,-0.060350087,9.813241005,0.00167607,-0.004950694,0.000900102,-158.1198382,-52.01404436,0,0.356555223,2019-07-25 11:50:21:851
0.347959518,-0.043586839,9.808451653,0.001942451,0.000909692,-0.000964566,-158.5169832,-54.5690485,0,0.360013723,2019-07-25 11:50:21:855
0.350354284,-0.019639343,9.806056976,-0.000188598,-0.002286882,-0.001230947,-158.9053157,-57.07533923,0,0.363156796,2019-07-25 11:50:21:858
0.381486028,-0.031613089,9.801267624,0.001409689,-0.003086026,-0.001230947,-159.282027,-59.53041206,0,0.366639137,2019-07-25 11:50:21:862
0.292880297,-0.017244592,9.808451653,0.000610546,-0.001221358,-0.001497328,-159.6619475,-61.93790515,0,0.370023012,2019-07-25 11:50:21:865
0.359933287,-0.005270844,9.767741203,-0.000454979,-0.002020501,-0.005493045,-160.0261444,-64.29844825,0,0.373171806,2019-07-25 11:50:21:868
0.316827774,-0.005270844,9.798872948,0.002208833,-0.001221358,-0.002296472,-160.3883534,-66.61227879,0,0.376525164,2019-07-25 11:50:21:871
0.405433506,-0.031613089,9.794083595,0.002475214,-0.000688595,-0.005226664,-160.7330434,-68.87681601,0,0.379989862,2019-07-25 11:50:21:875
0.295275033,0.013887154,9.784503937,7.78E-05,-0.003352407,-0.002296472,-161.0832194,-63.90091983,0,0.383137226,2019-07-25 11:50:21:878
0.326406777,0.016281903,9.834794044,-0.001786885,0.00064331,-0.003361996,-161.4236492,-59.0244874,0,0.386238337,2019-07-25 11:50:21:881
0.297669768,-0.057955336,9.844372749,0.00167607,-0.004950694,-0.006824951,-161.7594831,-61.43760835,0,0.390029669,2019-07-25 11:50:21:885
0.350354284,0.009097654,9.906636238,0.00167607,-0.002286882,-0.00655857,-162.0833813,-56.61020392,0,0.393168449,2019-07-25 11:50:21:888
0.244985282,0.047413651,9.85874176,0.001409689,-0.001221358,-0.008956001,-162.4130107,-51.88378019,0,0.396571159,2019-07-25 11:50:21:891
0.31922254,0.037834652,9.822820663,-0.000188598,-0.001487739,-0.006292189,-162.7272359,-47.25048183,0,0.4000144,2019-07-25 11:50:21:895
0.278511792,0.040229399,9.827610016,0.001143308,-0.002286882,-0.00655857,-163.0398195,-42.71036569,0,0.403172016,2019-07-25 11:50:21:898
0.225827292,0.054597899,9.8036623,-0.000188598,0.00064331,-0.016947434,-163.3527544,-38.26250409,0,0.406569958,2019-07-25 11:50:21:901
0.379091263,0.064176895,9.808451653,0.00167607,-0.000954976,-0.008689619,-163.6412477,-33.90507572,0,0.410013437,2019-07-25 11:50:21:905
0.28569603,0.030650401,9.746188164,-0.000188598,-0.002286882,-0.012685336,-163.9344376,-29.63054464,0,0.413157701,2019-07-25 11:50:21:908
0.28569603,0.018676654,9.779714584,-0.001786885,-0.005217075,-0.014816385,-164.2212691,-25.43977499,0,0.416617632,2019-07-25 11:50:21:911
0.271327525,0.023466153,9.830004692,-0.001254122,-0.004950694,-0.010287906,-164.504278,-21.33347583,0,0.420014143,2019-07-25 11:50:21:915
0.324012041,-0.014849843,9.808451653,-0.000188598,-0.002553263,-0.012418956,-164.7758988,-24.50503794,0,0.423175812,2019-07-25 11:50:21:918
0.273722291,0.030650401,9.743793488,0.000876927,-0.002819644,-0.012152574,-165.0476664,-20.41870722,0,0.426535368,2019-07-25 11:50:21:921
0.22103779,0.009097654,9.832399368,-0.000188598,-0.00415155,-0.017480197,-165.320156,-16.41135699,0,0.429969788,2019-07-25 11:50:21:925
0.280906528,0.021071402,9.875504494,-0.001520504,-0.002819644,-0.016414672,-165.5806665,-12.48530533,0,0.433127165,2019-07-25 11:50:21:928
0.237801045,0.037834652,9.870715141,-0.004450696,-0.001221358,-0.016414672,-165.8412364,-8.639207295,0,0.43626523,2019-07-25 11:50:21:931
0.20427455,-0.000481345,9.782109261,-0.001786885,-0.002819644,-0.021742295,-166.0998966,-12.06599354,0,0.439985037,2019-07-25 11:50:21:935
0.194695547,0.066571645,9.655187607,-0.003917934,-0.001221358,-0.018279341,-166.3545802,-8.231886752,0,0.44311142,2019-07-25 11:50:21:938
0.271327525,0.021071402,9.669556618,-0.006581745,-0.000155833,-0.019877626,-166.5953146,-4.468560249,0,0.446320295,2019-07-25 11:50:21:941
0.189906046,0.006702905,9.782109261,0.00167607,-0.002286882,-0.024139726,-166.8406883,-0.780323449,0,0.450030804,2019-07-25 11:50:21:945
0.297669768,0.023466153,9.712661743,-0.005782602,-0.005749837,-0.021742295,-167.0677443,2.833541949,0,0.453195333,2019-07-25 11:50:21:948
0.254564285,-0.005270844,9.705477715,-0.003385172,-0.006282599,-0.018812102,-167.2951149,-0.821846376,0,0.456668615,2019-07-25 11:50:21:952
0.290485531,-0.050771087,9.887478828,-0.005516221,-0.00175412,-0.024406107,-167.5152253,-4.398484559,0,0.460028887,2019-07-25 11:50:21:955
0.22103779,0.028255651,9.743793488,-0.001786885,0.000110548,-0.021742295,-167.7389497,-0.713522046,0,0.463176489,2019-07-25 11:50:21:958
0.276117027,0.025860902,9.87789917,-0.004717077,-0.00415155,-0.023606963,-167.9513363,2.89866979,0,0.466655493,2019-07-25 11:50:21:962
0.254564285,0.035439901,9.810846329,-0.005516221,-0.003618788,-0.020144009,-168.161901,6.437596465,0,0.470011473,2019-07-25 11:50:21:965
0.276117027,0.030650401,9.789293289,-0.005782602,-0.001487739,-0.023606963,-168.3660861,9.906281615,0,0.473168135,2019-07-25 11:50:21:968
0.300064534,0.009097654,9.832399368,-0.005782602,-0.003885169,-0.024672488,-168.5630708,13.30818737,0,0.476530313,2019-07-25 11:50:21:971
0.233011544,-0.036402591,9.760557175,-0.003651553,-0.002020501,-0.022008677,-168.764068,9.447002811,0,0.479970932,2019-07-25 11:50:21:975
0.273722291,0.006702905,9.806056976,-0.006581745,-0.002020501,-0.023074202,-168.9564511,12.85844324,0,0.483119965,2019-07-25 11:50:21:978
0.237801045,0.004308155,9.827610016,-0.006848126,-0.005483456,-0.025205251,-169.1485467,16.20208677,0,0.486539125,2019-07-25 11:50:21:981
0.309643537,0.049808398,9.82521534,-0.005782602,-0.005483456,-0.024139726,-169.3283945,19.47337428,0,0.490045071,2019-07-25 11:50:21:985
0.30245927,0.049808398,9.928189278,-0.002852409,-0.005217075,-0.023074202,-169.5060056,22.67866199,0,0.493192196,2019-07-25 11:50:21:988
0.261748523,-0.019639343,9.818030357,-0.006048983,-0.003885169,-0.022008677,-169.6845865,18.62855815,0,0.496658087,2019-07-25 11:50:21:992
0.256959051,0.066571645,9.882688522,-0.005516221,-0.003086026,-0.024672488,-169.8605251,21.84930754,0,0.500014305,2019-07-25 11:50:21:995
0.242590532,0.025860902,9.774925232,-0.006581745,-0.003885169,-0.021475914,-170.0341946,25.01045332,0,0.503162861,2019-07-25 11:50:21:998
0.249774784,-0.026823591,9.853952408,-0.006048983,-0.003352407,-0.024938868,-170.2038307,20.91451823,0,0.506562471,2019-07-25 11:50:22:001
0.192300797,0.052203149,9.808451653,-0.004717077,0.001176073,-0.024139726,-170.3775205,24.09105115,0,0.510043859,2019-07-25 11:50:22:005
0.247380033,0.011492404,9.832399368,-0.002586028,-0.004417931,-0.023340583,-170.5403693,27.20834499,0,0.51317215,2019-07-25 11:50:22:008
0.244985282,-0.007665594,9.806056976,-0.00072136,-0.006016218,-0.021209534,-170.6997884,23.06521189,0,0.51657939,2019-07-25 11:50:22:011
0.187511295,0.001913405,9.899452209,-0.005782602,-0.003352407,-0.023606963,-170.8634437,26.20480052,0,0.520011425,2019-07-25 11:50:22:015
0.194695547,0.073755898,9.87789917,-0.00524984,-0.005217075,-0.025471632,-171.022666,29.27307968,0,0.52317071,2019-07-25 11:50:22:018
0.225827292,0.056992646,9.851556778,-0.001254122,-0.002819644,-0.022275058,-171.1754157,32.28122631,0,0.526542425,2019-07-25 11:50:22:021
0.228222042,-0.022034092,9.844372749,-0.004983458,-0.003885169,-0.023606963,-171.3245989,28.0391253,0,0.5299685,2019-07-25 11:50:22:025
0.230616793,-0.014849843,9.846767426,-0.003651553,-0.001221358,-0.022807819,-171.4710582,23.88071572,0,0.533113241,2019-07-25 11:50:22:028
0.228222042,-0.017244592,9.85874176,-0.004450696,-0.002286882,-0.027869061,-171.6146752,19.80596128,0,0.536536455,2019-07-25 11:50:22:031
0.165958554,0.021071402,9.880293846,-0.00524984,-0.003885169,-0.021475914,-171.7623733,23.00842837,0,0.540031195,2019-07-25 11:50:22:035
0.177932292,-0.022034092,9.844372749,-0.006848126,-0.004684313,-0.027869061,-171.9055858,18.95203853,0,0.543188095,2019-07-25 11:50:22:038
0.20427455,0.013887154,9.794083595,7.78E-05,-0.002020501,-0.022275058,-172.0431828,22.17135777,0,0.546665192,2019-07-25 11:50:22:042
0.206669301,-0.069929086,9.844372749,-0.007913651,-0.002020501,-0.026004393,-172.1778848,18.13756262,0,0.550023317,2019-07-25 11:50:22:045
0.192300797,-0.026823591,9.758161545,-0.002852409,-0.003618788,-0.019611246,-172.3111032,14.1784694,0,0.553195715,2019-07-25 11:50:22:048
0.189906046,0.011492404,9.760557175,-0.006848126,-0.002286882,-0.022807819,-172.4421457,17.4948767,0,0.556643963,2019-07-25 11:50:22:052
0.235406294,-0.041192088,9.839583397,-0.004450696,-0.003352407,-0.02067677,-172.565258,13.55061897,0,0.560015678,2019-07-25 11:50:22:055
0.165958554,-0.074718587,9.741398811,-0.00072136,-0.003352407,-0.022008677,-172.6938383,9.688523669,0,0.563171864,2019-07-25 11:50:22:058
0.237801045,-0.005270844,9.808451653,-0.004450696,-0.00175412,-0.021209534,-172.8118499,5.896218687,0,0.566571951,2019-07-25 11:50:22:061
0.201879799,-0.036402591,9.758161545,-0.00524984,-0.003885169,-0.022807819,-172.9311593,2.183582409,0,0.57000947,2019-07-25 11:50:22:065
0.158774301,-0.077113338,9.779714584,-0.004717077,-0.004417931,-0.022008677,-173.0531519,-1.450219028,0,0.573161364,2019-07-25 11:50:22:068
0.223432541,-0.108245082,9.796478271,-0.004184315,-0.003885169,-0.022008677,-173.1652269,-5.007766134,0,0.576512575,2019-07-25 11:50:22:071
0.192300797,0.018676654,9.880293846,-0.003651553,-0.004417931,-0.021742295,-173.2787636,-1.309067277,0,0.579973698,2019-07-25 11:50:22:075
0.216248289,-0.022034092,9.765346527,-0.001786885,-0.00175412,-0.015082767,-173.3875062,-4.87998396,0,0.583127022,2019-07-25 11:50:22:078
0.247380033,-0.031613089,9.82521534,-0.004450696,0.000909692,-0.020144009,-173.4910871,-8.377831765,0,0.58659029,2019-07-25 11:50:22:081
0.199485049,-0.065139584,9.796478271,0.002208833,-0.005749837,-0.017746577,-173.5968265,-11.80308132,0,0.590021849,2019-07-25 11:50:22:085
0.228222042,-0.089087084,9.851556778,-0.002053266,-0.000688595,-0.017480197,-173.6982269,-15.15629544,0,0.593162537,2019-07-25 11:50:22:088
0.242590532,-0.024428841,9.777319908,-0.006048983,-0.004684313,-0.015349148,-173.7948969,-18.44909338,0,0.596734047,2019-07-25 11:50:22:092
0.254564285,-0.031613089,9.894662857,0.001143308,-0.004684313,-0.01588191,-173.888636,-21.67666709,0,0.600110054,2019-07-25 11:50:22:095
0.218643039,-0.053165838,9.813241005,-0.003385172,-0.006282599,-0.013750861,-173.9842193,-24.83632382,0,0.603275537,2019-07-25 11:50:22:098
0.244985282,-0.081902832,9.810846329,-0.002319647,-0.00175412,-0.014550005,-174.0755884,-27.92958423,0,0.606707573,2019-07-25 11:50:22:102
0.209064037,-0.026823591,9.710267067,-0.002852409,-0.002286882,-0.014816385,-174.168984,-30.96729741,0,0.610014677,2019-07-25 11:50:22:105
0.235406294,-0.060350087,9.798872948,-0.001520504,-0.004684313,-0.01348448,-174.2572534,-33.94062557,0,0.613158703,2019-07-25 11:50:22:108
0.259353787,-0.04837634,9.873109818,-0.003651553,-0.003618788,-0.012685336,-174.3413188,-36.85549734,0,0.616577625,2019-07-25 11:50:22:111
0.175537542,-0.103455581,9.779714584,-0.001520504,-0.003885169,-0.007357713,-174.4331766,-39.70597223,0,0.620014668,2019-07-25 11:50:22:115
0.240195796,0.009097654,9.849162102,-0.001254122,-0.006815362,-0.012685336,-174.515368,-35.31268958,0,0.623162746,2019-07-25 11:50:22:118
0.182721794,-0.053165838,9.822820663,-0.00524984,-0.004417931,-0.007624094,-174.6029203,-38.19925115,0,0.6264956,2019-07-25 11:50:22:121
0.185116544,-0.007665594,9.818030357,-0.000188598,-0.00415155,-0.008423238,-174.6884425,-41.03433437,0,0.629996061,2019-07-25 11:50:22:125
0.199485049,-0.036402591,9.760557175,-0.000454979,-0.000688595,-0.009488763,-174.7711348,-43.80929333,0,0.633151293,2019-07-25 11:50:22:128
0.235406294,-0.041192088,9.7270298,7.78E-05,-0.004684313,-0.003894759,-174.8470736,-46.5282699,0,0.63661623,2019-07-25 11:50:22:131
0.244985282,-0.04598159,9.853952408,-0.002319647,-0.002553263,-0.007890476,-174.9211604,-49.19191381,0,0.640021563,2019-07-25 11:50:22:135
0.247380033,-0.012455093,9.762951851,-0.000188598,-0.002020501,-0.008423238,-174.9933517,-51.80658042,0,0.643157244,2019-07-25 11:50:22:138
0.197090298,-0.02921834,9.739004135,0.000344164,-0.001487739,-0.008689619,-175.0700147,-54.36707639,0,0.646545172,2019-07-25 11:50:22:141
0.175537542,-0.053165838,9.889873505,-0.003385172,-0.003885169,-0.004693902,-175.1475076,-56.87290393,0,0.650074244,2019-07-25 11:50:22:145
0.28569603,-0.017244592,9.746188164,-0.002852409,-0.004417931,-0.00416114,-175.2102017,-59.33291834,0,0.653195858,2019-07-25 11:50:22:148
0.228222042,-0.04837634,9.8036623,0.001143308,-0.005483456,-0.000964566,-175.2782826,-61.74082313,0,0.65658617,2019-07-25 11:50:22:151
0.223432541,-0.055560589,9.695898056,-0.002586028,-0.004684313,-0.004693902,-175.3454152,-64.09894348,0,0.660007477,2019-07-25 11:50:22:155
0.185116544,-0.031613089,9.832399368,0.002208833,-0.006282599,-0.006025808,-175.4158227,-66.41367138,0,0.663160801,2019-07-25 11:50:22:158
0.156379551,-0.007665594,9.753372192,0.001143308,-0.003086026,0.001166483,-175.4885434,-68.68471647,0,0.666574478,2019-07-25 11:50:22:161
0.247380033,-0.065139584,9.794083595,0.001409689,-0.005483456,0.000633721,-175.5487765,-70.90367298,0,0.670012236,2019-07-25 11:50:22:165
0.240195796,-0.038797341,9.731820107,0.000610546,-0.005217075,-0.002562853,-175.6086014,-73.08113914,0,0.673161268,2019-07-25 11:50:22:168
0.134826809,-0.007665594,9.834794044,-0.00072136,-0.002819644,0.002498389,-175.6801901,-75.21848741,0,0.676513433,2019-07-25 11:50:22:171
0.151590049,-0.043586839,9.806056976,-0.002319647,-0.000688595,0.001166483,-175.7487391,-77.30857256,0,0.679981232,2019-07-25 11:50:22:175
0.235406294,-0.005270844,9.844372749,-0.000188598,-0.002819644,0.003830295,-175.8058709,-79.36175435,0,0.683117867,2019-07-25 11:50:22:178
0.201879799,-0.036402591,9.873109818,-0.000454979,-0.002286882,0.003563913,-175.8658818,-81.37020593,0,0.686574697,2019-07-25 11:50:22:181
0.149195299,-0.041192088,9.921005249,-0.001254122,-0.005483456,0.001432864,-175.930273,-83.3378016,0,0.690016747,2019-07-25 11:50:22:185
0.211458787,0.037834652,9.832399368,0.003540738,-0.003086026,0.003830295,-175.9864781,-78.0760847,0,0.693184137,2019-07-25 11:50:22:188
0.185116544,-0.060350087,9.72942543,-0.00072136,-0.003618788,0.004096676,-176.0442484,-80.10731561,0,0.696629524,2019-07-25 11:50:22:192
0.201879799,-0.019639343,9.753372192,0.003807119,-0.008413648,0.003563913,-176.0980486,-82.10358566,0,0.700015306,2019-07-25 11:50:22:195
0.218643039,-0.000481345,9.789293289,0.001409689,-0.002020501,0.007293249,-176.1501399,-84.06170743,0,0.703171492,2019-07-25 11:50:22:198
0.230616793,-0.026823591,9.853952408,7.78E-05,-0.000688595,0.007293249,-176.2001886,-85.97736921,0,0.706660509,2019-07-25 11:50:22:202
0.149195299,-0.04837634,9.889873505,-0.002852409,0.000110548,0.0051622,-176.2589201,-87.85167805,0,0.710023165,2019-07-25 11:50:22:205
0.197090298,-0.041192088,9.715056419,-0.002053266,-0.003352407,0.001699245,-176.309903,-89.68942163,0,0.713181973,2019-07-25 11:50:22:208
0.216248289,-0.024428841,9.935373306,-0.000987741,-0.00415155,0.009424299,-176.3579777,-91.49262776,0,0.716569901,2019-07-25 11:50:22:211
0.28569603,-0.089087084,9.863531113,-0.002319647,-0.00415155,0.005428581,-176.3968332,-93.25197695,0,0.720014572,2019-07-25 11:50:22:215
0.264143288,0.011492404,9.839583397,-0.000188598,-0.004684313,0.004096676,-176.4373127,-87.78824243,0,0.723166704,2019-07-25 11:50:22:218
0.247380033,0.066571645,9.703083038,-0.002053266,-0.004417931,0.008891537,-176.4785115,-82.43994618,0,0.726577759,2019-07-25 11:50:22:221
0.266538024,0.001913405,9.822820663,0.000610546,-0.006815362,0.006494106,-176.5165547,-77.19148696,0,0.7299757,2019-07-25 11:50:22:225
0.199485049,-0.02921834,9.784503937,7.78E-05,-0.006016218,0.005694962,-176.5617996,-79.24424908,0,0.733126879,2019-07-25 11:50:22:228
0.216248289,0.018676654,9.789293289,-0.001520504,-0.006815362,0.005694962,-176.6038945,-74.06124703,0,0.736679554,2019-07-25 11:50:22:232
0.163563803,-0.02921834,9.765346527,-0.00072136,-0.004417931,0.006227725,-176.6517889,-76.17645695,0,0.740050077,2019-07-25 11:50:22:235
0.165958554,-0.017244592,9.736609459,-0.000454979,-0.006016218,0.008092393,-176.698161,-78.25081795,0,0.743194342,2019-07-25 11:50:22:238
0.22103779,-0.03400784,9.743793488,-0.000188598,-0.00175412,0.008092393,-176.7378742,-80.28176633,0,0.74657464,2019-07-25 11:50:22:241
0.30245927,-0.014849843,9.760557175,-0.003385172,-0.00654898,0.008625155,-176.7663554,-82.2737347,0,0.750009537,2019-07-25 11:50:22:245
0.209064037,0.009097654,9.750977516,-0.004717077,-0.001221358,0.00755963,-176.8062474,-77.02849514,0,0.753158331,2019-07-25 11:50:22:248
0.213853538,0.040229399,9.813241005,-0.003118791,-0.003885169,0.008625155,-176.8444121,-71.89202718,0,0.756560087,2019-07-25 11:50:22:251
0.276117027,0.03304515,9.813241005,0.001143308,-0.006016218,0.009957061,-176.8741232,-66.85826703,0,0.760012627,2019-07-25 11:50:22:255
0.244985282,0.018676654,9.820425034,0.000876927,-0.00175412,0.011821728,-176.9077503,-61.92343585,0,0.763157368,2019-07-25 11:50:22:258
0.216248289,-0.050771087,9.820425034,-0.000987741,-0.007348124,0.009424299,-176.9429661,-64.27885468,0,0.766550303,2019-07-25 11:50:22:261
0.197090298,0.023466153,9.74858284,-0.002852409,-0.003618788,0.010223442,-176.9802339,-59.3954773,0,0.770038366,2019-07-25 11:50:22:265
0.168353304,0.047413651,9.786898613,-0.003385172,-0.007081743,0.012887253,-177.0196651,-54.61251976,0,0.773192167,2019-07-25 11:50:22:268
0.230616793,0.018676654,9.794083595,-0.002586028,-0.002286882,0.011821728,-177.0518538,-49.92195623,0,0.776623964,2019-07-25 11:50:22:271
0.182721794,-0.002876094,9.820425034,0.001942451,-0.003352407,0.008891537,-177.088868,-52.52354649,0,0.779970407,2019-07-25 11:50:22:275
0.283301294,0.025860902,9.834794044,0.001942451,-0.000954976,0.012620872,-177.1139218,-47.8764319,0,0.783116341,2019-07-25 11:50:22:278
0.187511295,0.013887154,9.772530556,7.78E-05,-0.010278316,0.011555348,-177.1476887,-43.32054656,0,0.786529779,2019-07-25 11:50:22:281
0.259353787,-0.04598159,9.887478828,-0.000987741,-0.003352407,0.011821728,-177.1740249,-46.04861243,0,0.790030718,2019-07-25 11:50:22:285
0.228222042,0.018676654,9.832399368,-0.002053266,-0.002286882,0.016350208,-177.2035457,-41.52945292,0,0.79318738,2019-07-25 11:50:22:288
0.22103779,0.018676654,9.784503937,-0.002586028,-0.006815362,0.015018303,-177.2322828,-37.10055432,0,0.796609163,2019-07-25 11:50:22:291
0.206669301,0.061782148,9.767741203,0.004872644,-0.007614505,0.013686397,-177.2619419,-32.76672112,0,0.800008059,2019-07-25 11:50:22:295
0.247380033,0.092913896,9.715056419,-0.004450696,-0.005749837,0.013420015,-177.2865132,-28.52155853,0,0.803158283,2019-07-25 11:50:22:298
0.209064037,0.025860902,9.731820107,-0.001254122,-0.000422214,0.013153635,-177.3160888,-24.35393254,0,0.806565285,2019-07-25 11:50:22:301
0.273722291,-0.005270844,9.827610016,0.00167607,-0.00654898,0.01208811,-177.3365909,-27.4665638,0,0.810013294,2019-07-25 11:50:22:305
0.189906046,0.004308155,9.822820663,0.003540738,-0.007348124,0.014219159,-177.3664044,-23.31836307,0,0.813171864,2019-07-25 11:50:22:308
0.237801045,-0.038797341,9.856347084,0.000876927,-0.007614505,0.013420015,-177.3899496,-26.4476562,0,0.816644907,2019-07-25 11:50:22:312
0.304854035,-0.019639343,9.808451653,-0.00072136,-0.003885169,0.017948495,-177.4058081,-29.51627158,0,0.820028305,2019-07-25 11:50:22:315
0.180327043,0.03304515,9.830004692,0.000344164,-0.000688595,0.015018303,-177.4365516,-25.32985897,0,0.823166847,2019-07-25 11:50:22:318
0.233011544,-0.038797341,9.767741203,0.001143308,-0.005483456,0.014485541,-177.4594327,-28.41893064,0,0.826599836,2019-07-25 11:50:22:321
0.230616793,0.011492404,9.837188721,0.001409689,-0.005749837,0.012887253,-177.4822964,-24.25215762,0,0.829971313,2019-07-25 11:50:22:325
0.271327525,-0.057955336,9.887478828,0.001143308,-0.00654898,0.014751921,-177.5000501,-27.36060072,0,0.833132744,2019-07-25 11:50:22:328
0.20427455,-0.005270844,9.753372192,0.000610546,-0.003885169,0.016083827,-177.5253083,-30.41288641,0,0.836544752,2019-07-25 11:50:22:331
0.170748055,0.080940142,9.806056976,0.000344164,-0.00654898,0.012887253,-177.5535739,-26.21415407,0,0.840017319,2019-07-25 11:50:22:335
0.192300797,-0.065139584,9.791688919,0.000876927,-0.002553263,0.016083827,-177.5795496,-29.28240271,0,0.843162298,2019-07-25 11:50:22:338
0.240195796,0.011492404,9.753372192,0.000344164,-0.007348124,0.017948495,-177.5983436,-25.09817048,0,0.846556187,2019-07-25 11:50:22:341
0.151590049,-0.03400784,9.765346527,7.78E-05,-0.000688595,0.015817446,-177.6284558,-28.19223157,0,0.850021124,2019-07-25 11:50:22:345
0.216248289,-0.014849843,9.85874176,-0.001786885,-0.007081743,0.011022586,-177.6495022,-31.22634467,0,0.853172779,2019-07-25 11:50:22:348
0.211458787,-0.002876094,9.830004692,-0.002053266,-0.003352407,0.013686397,-177.6712122,-34.20108234,0,0.856643677,2019-07-25 11:50:22:352
0.189906046,0.001913405,9.846767426,-0.000454979,-0.004950694,0.014219159,-177.6947518,-29.91719711,0,0.860020161,2019-07-25 11:50:22:355
0.211458787,-0.022034092,9.777319908,-0.000454979,-0.005749837,0.014751921,-177.7150599,-32.91619023,0,0.863171816,2019-07-25 11:50:22:358
0.240195796,-0.012455093,9.834794044,0.002741595,-0.004417931,0.010756204,-177.7319379,-35.85693619,0,0.866556168,2019-07-25 11:50:22:361
0.192300797,-0.000481345,9.8036623,0.000876927,-0.008147267,0.01208811,-177.7532347,-38.73991234,0,0.870031834,2019-07-25 11:50:22:365
0.237801045,0.03304515,9.901846886,0.002741595,0.000376929,0.010756204,-177.7707215,-34.36942076,0,0.873165846,2019-07-25 11:50:22:368
0.197090298,0.042624149,9.774925232,-0.001786885,-0.003885169,0.010223442,-177.7914747,-30.08669315,0,0.876514673,2019-07-25 11:50:22:371
0.20427455,0.047413651,9.813241005,0.00167607,-0.004417931,0.009957061,-177.8109367,-25.89082149,0,0.879974842,2019-07-25 11:50:22:375
0.273722291,-0.010060344,9.834794044,0.000876927,-0.002819644,0.013686397,-177.8223339,-28.9719881,0,0.883127451,2019-07-25 11:50:22:378
0.237801045,-0.038797341,9.810846329,7.78E-05,-0.003086026,0.009957061,-177.8375248,-31.98803173,0,0.88654685,2019-07-25 11:50:22:381
0.280906528,-0.043586839,9.789293289,-0.002586028,-0.004950694,0.011555348,-177.8469367,-34.94266526,0,0.890015602,2019-07-25 11:50:22:385
0.201879799,-0.041192088,9.808451653,-0.000454979,-0.00415155,0.009957061,-177.8656826,-37.83891918,0,0.89316082,2019-07-25 11:50:22:388
0.209064037,-0.04598159,9.849162102,0.003274357,-0.004950694,0.010223442,-177.8831024,-40.67741691,0,0.89656496,2019-07-25 11:50:22:391
0.233011544,-0.024428841,9.786898613,-0.000454979,-0.002020501,0.009157917,-177.8977716,-43.46092016,0,0.9000144,2019-07-25 11:50:22:395
0.211458787,-0.081902832,9.882688522,0.004606263,-0.006016218,0.008891537,-177.9142384,-46.18301867,0,0.903159618,2019-07-25 11:50:22:398
0.288090795,-0.022034092,9.830004692,0.00167607,-0.006282599,0.009957061,-177.921145,-48.85711908,0,0.906659365,2019-07-25 11:50:22:402
0.233011544,-0.007665594,9.844372749,-0.001520504,-0.002020501,0.011288966,-177.9352235,-51.47879817,0,0.910012007,2019-07-25 11:50:22:405
0.233011544,-0.019639343,9.85874176,-0.000188598,-0.000422214,0.008358774,-177.9493655,-54.046906,0,0.913172007,2019-07-25 11:50:22:408
0.271327525,-0.007665594,9.815635681,0.000344164,-0.002286882,0.009424299,-177.9582693,-56.56513935,0,0.916607141,2019-07-25 11:50:22:411
0.218643039,-0.014849843,9.786898613,0.003274357,-0.005217075,0.009157917,-177.9725098,-59.03272432,0,0.92001462,2019-07-25 11:50:22:415
0.271327525,-0.091481835,9.822820663,0.00167607,-0.005483456,0.010223442,-177.9804475,-61.44169374,0,0.923156977,2019-07-25 11:50:22:418
0.273722291,-0.02921834,9.791688919,0.000876927,-0.00175412,0.0051622,-177.9884801,-63.80960702,0,0.926539421,2019-07-25 11:50:22:421
0.240195796,-0.005270844,9.818030357,0.000610546,-0.004417931,0.011022586,-177.9998289,-66.13291753,0,0.929976702,2019-07-25 11:50:22:425
0.254564285,-0.024428841,9.818030357,0.001143308,-0.003885169,0.005428581,-178.0094388,-68.40761061,0,0.933133364,2019-07-25 11:50:22:428
0.259353787,-0.081902832,9.815635681,0.005139025,-0.005483456,0.009957061,-178.0180229,-70.63079311,0,0.936239004,2019-07-25 11:50:22:431
0.240195796,-0.077113338,9.815635681,-0.001254122,-0.006815362,0.00755963,-178.0281774,-72.80890825,0,0.940026045,2019-07-25 11:50:22:435
0.266538024,-0.03400784,9.865925789,0.0040735,-0.000688595,0.009424299,-178.0365421,-74.94949701,0,0.943160295,2019-07-25 11:50:22:438
0.283301294,-0.103455581,9.750977516,0.002208833,-0.003086026,0.011288966,-178.0419248,-77.03878112,0,0.946639299,2019-07-25 11:50:22:442
0.266538024,-0.010060344,9.820425034,0.00167607,-0.003618788,0.007826011,-178.0492976,-79.09715339,0,0.950058699,2019-07-25 11:50:22:445
0.283301294,-0.038797341,9.758161545,0.004339882,-0.004684313,0.009424299,-178.0542244,-81.11142151,0,0.953207016,2019-07-25 11:50:22:448
0.283301294,0.016281903,9.863531113,0.002208833,-0.004684313,0.005961344,-178.0593513,-75.89150177,0,0.956570148,2019-07-25 11:50:22:451
0.324012041,-0.057955336,9.789293289,0.002208833,-0.007348124,0.007026868,-178.0588283,-77.967315,0,0.960015535,2019-07-25 11:50:22:455
0.256959051,-0.043586839,9.8036623,0.001143308,-0.004950694,0.007826011,-178.0667483,-80.00307616,0,0.96316433,2019-07-25 11:50:22:458
0.261748523,0.03304515,9.69350338,-0.00072136,-0.004950694,0.008358774,-178.0735352,-74.80678363,0,0.966557026,2019-07-25 11:50:22:461
0.240195796,-0.012455093,9.786898613,0.000610546,-0.003885169,0.007826011,-178.0831927,-76.90930807,0,0.97001195,2019-07-25 11:50:22:465
0.259353787,0.030650401,9.746188164,0.005139025,-0.003352407,0.006494106,-178.0904492,-71.77563486,0,0.973162889,2019-07-25 11:50:22:468
0.256959051,-0.031613089,9.777319908,0.003807119,-0.002819644,0.003297532,-178.0979984,-73.93713637,0,0.976527691,2019-07-25 11:50:22:471
0.233011544,-0.036402591,9.74858284,0.0040735,-0.004684313,0.006494106,-178.1077457,-76.05490445,0,0.979980707,2019-07-25 11:50:22:475
0.240195796,-0.086692333,9.806056976,0.002208833,-0.003885169,0.005694962,-178.1168423,-78.12406555,0,0.98312211,2019-07-25 11:50:22:478
0.242590532,-0.026823591,9.815635681,0.00167607,-0.001487739,0.0051622,-178.1259221,-80.15875482,0,0.986331701,2019-07-25 11:50:22:481
0.280906528,-0.000481345,9.698293686,0.000344164,-0.003086026,0.007026868,-178.1295792,-82.15559454,0,0.990041494,2019-07-25 11:50:22:485
0.297669768,-0.012455093,9.85874176,0.003007976,-0.004950694,0.0051622,-178.1315232,-84.11156705,0,0.993191957,2019-07-25 11:50:22:488
0.211458787,-0.04837634,9.849162102,0.0040735,-0.00654898,0.007826011,-178.1430189,-86.02450046,0,0.996659517,2019-07-25 11:50:22:492
0.300064534,-0.062744834,9.820425034,0.001409689,-0.005749837,0.004363057,-178.144071,-87.89695501,0,1.00001955,2019-07-25 11:50:22:495
0.31922254,-0.04598159,9.839583397,0.002475214,-0.000422214,0.006494106,-178.1439512,-89.7340997,0,1.003176451,2019-07-25 11:50:22:498
0.309643537,-0.077113338,9.794083595,0.004339882,-0.005217075,0.006227725,-178.1438484,-91.53123353,0,1.006615162,2019-07-25 11:50:22:501
0.264143288,-0.019639343,9.806056976,0.006470931,-0.00415155,0.00276477,-178.1493199,-93.29954794,0,1.010011673,2019-07-25 11:50:22:505
0.309643537,-0.098666079,9.820425034,-0.002319647,-0.003086026,0.005694962,-178.1496689,-95.02163451,0,1.013158083,2019-07-25 11:50:22:508
0.244985282,-0.04598159,9.808451653,0.000876927,-0.003885169,0.0051622,-178.1573143,-96.71599816,0,1.016576052,2019-07-25 11:50:22:511
0.213853538,-0.077113338,9.894662857,0.002475214,-0.002286882,0.004096676,-178.1689639,-98.37322539,0,1.020012617,2019-07-25 11:50:22:515
0.28569603,-0.02921834,9.77013588,0.003540738,-0.00654898,0.004895819,-178.1709273,-100.0029601,0,1.023162365,2019-07-25 11:50:22:518
0.33598578,-0.079508081,9.832399368,0.001143308,-0.00415155,0.008092393,-178.1675895,-101.5938489,0,1.026496172,2019-07-25 11:50:22:521
0.278511792,-0.002876094,9.822820663,0.005405406,-0.004950694,0.00755963,-178.1707896,-103.1626912,0,1.029971361,2019-07-25 11:50:22:525
0.26893279,-0.02921834,9.779714584,0.002208833,-0.005749837,0.007293249,-178.174854,-104.6964041,0,1.033118725,2019-07-25 11:50:22:528
0.237801045,0.009097654,9.808451653,0.004339882,-0.007880886,0.007026868,-178.1820531,-99.00437989,0,1.036569834,2019-07-25 11:50:22:531
0.307248771,-0.04837634,9.887478828,0.003807119,-0.006282599,0.009690679,-178.1815982,-100.6194229,0,1.040018082,2019-07-25 11:50:22:535
0.276117027,-0.04837634,9.8036623,0.000610546,-0.003885169,0.006760487,-178.1850143,-102.2014877,0,1.0431633,2019-07-25 11:50:22:538
0.276117027,-0.02921834,9.806056976,0.003007976,-0.006815362,0.0051622,-178.1877225,-103.7546322,0,1.046648264,2019-07-25 11:50:22:542
0.240195796,0.030650401,9.762951851,0.002741595,-0.001487739,0.010489823,-178.1954992,-98.08365632,0,1.050021172,2019-07-25 11:50:22:545
0.316827774,-0.065139584,9.789293289,0.005938168,-0.003086026,0.009957061,-178.1939668,-99.71541286,0,1.053184271,2019-07-25 11:50:22:548
0.237801045,-0.067534335,9.767741203,0.003807119,-0.002020501,0.006760487,-178.2018069,-101.3139132,0,1.056605577,2019-07-25 11:50:22:551
0.26893279,-0.041192088,9.791688919,0.000344164,-0.006016218,0.004895819,-178.2051558,-102.8828801,0,1.060009241,2019-07-25 11:50:22:555
0.237801045,0.030650401,9.74858284,0.003807119,-0.00175412,0.006760487,-178.2127942,-97.22950103,0,1.063170195,2019-07-25 11:50:22:558
0.264143288,0.028255651,9.746188164,0.003274357,-0.004684313,0.007826011,-178.2165974,-91.68885647,0,1.066560268,2019-07-25 11:50:22:561
0.242590532,-0.036402591,9.880293846,0.001409689,-0.002020501,0.009690679,-178.2237443,-93.45113031,0,1.070008278,2019-07-25 11:50:22:565
0.290485531,0.042624149,9.808451653,7.78E-05,-0.005483456,0.005428581,-178.2243684,-87.98710124,0,1.073170662,2019-07-25 11:50:22:568
0.254564285,0.035439901,9.791688919,0.0040735,-0.008946411,0.007826011,-178.228373,-82.63229132,0,1.076601028,2019-07-25 11:50:22:571
0.31922254,0.009097654,9.880293846,0.0040735,-0.008946411,0.004629438,-178.2251012,-77.38147184,0,1.079972744,2019-07-25 11:50:22:575
0.283301294,0.066571645,9.830004692,0.005139025,-0.004950694,0.0051622,-178.226706,-72.24251308,0,1.083127499,2019-07-25 11:50:22:578
0.242590532,-0.014849843,9.841978073,0.005671787,-0.003086026,0.008358774,-178.2333429,-74.39701749,0,1.086530209,2019-07-25 11:50:22:581
0.228222042,0.037834652,9.796478271,-0.000188598,-0.006016218,0.008625155,-178.2408083,-69.31346583,0,1.090013981,2019-07-25 11:50:22:585
0.290485531,0.056992646,9.839583397,0.003540738,-0.002020501,0.004895819,-178.2418161,-64.33445768,0,1.093152046,2019-07-25 11:50:22:588
0.295275033,-0.02921834,9.782109261,0.003274357,-0.00415155,0.008358774,-178.2416103,-66.64496906,0,1.09654212,2019-07-25 11:50:22:591
0.271327525,0.001913405,9.827610016,-0.002053266,-0.004417931,0.009424299,-178.2442859,-61.71189171,0,1.100020885,2019-07-25 11:50:22:595
0.247380033,-0.014849843,9.743793488,-0.001786885,-0.004417931,0.004363057,-178.2495318,-64.07559135,0,1.103171587,2019-07-25 11:50:22:598
0.223432541,0.037834652,9.722240448,0.004606263,-0.002819644,0.006494106,-178.2576634,-59.19943328,0,1.10662961,2019-07-25 11:50:22:602
0.249774784,0.021071402,9.849162102,0.001409689,-0.002819644,0.009424299,-178.2629201,-54.4181641,0,1.1100142,2019-07-25 11:50:22:605
0.300064534,0.023466153,9.760557175,0.000344164,-0.006282599,0.006227725,-178.2613349,-49.73261658,0,1.11315918,2019-07-25 11:50:22:608
0.271327525,0.0450189,9.818030357,0.0040735,-0.007081743,0.009424299,-178.2631036,-45.14399205,0,1.11654067,2019-07-25 11:50:22:611
0.218643039,0.018676654,9.8036623,0.001143308,-0.005217075,0.0051622,-178.2712721,-40.64351818,0,1.120013237,2019-07-25 11:50:22:615
0.247380033,0.021071402,9.820425034,7.78E-05,-0.006282599,0.006760487,-178.2758725,-36.23312037,0,1.123171806,2019-07-25 11:50:22:618
0.271327525,-0.031613089,9.863531113,-0.001520504,-0.003086026,0.006227725,-178.2782492,-39.10449371,0,1.126586676,2019-07-25 11:50:22:621
0.20427455,0.009097654,9.837188721,-0.000454979,-0.004417931,0.003830295,-178.2880524,-34.72337712,0,1.129971743,2019-07-25 11:50:22:625
0.22103779,0.085729644,9.830004692,-0.00072136,-0.005483456,0.00755963,-178.2955552,-30.43877506,0,1.133133173,2019-07-25 11:50:22:628
0.249774784,0.001913405,9.705477715,0.00167607,-0.003086026,0.006227725,-178.2995676,-26.23054716,0,1.13655138,2019-07-25 11:50:22:631
0.261748523,0.083334893,9.841978073,-0.000188598,-0.005483456,0.004895819,-178.3020422,-22.11560214,0,1.140012026,2019-07-25 11:50:22:635
0.201879799,0.025860902,9.87789917,0.002208833,-0.004684313,0.007026868,-178.3117567,-18.07668073,0,1.143161058,2019-07-25 11:50:22:638
0.297669768,0.052203149,9.801267624,0.000876927,-0.004950694,0.009424299,-178.3097835,-14.12141806,0,1.146566391,2019-07-25 11:50:22:641
0.242590532,0.042624149,9.827610016,-0.002053266,0.00064331,0.005694962,-178.3154318,-10.243562,0,1.150016069,2019-07-25 11:50:22:645
0.213853538,0.040229399,9.853952408,-0.00072136,-0.003618788,0.006494106,-178.3236184,-6.443241518,0,1.153163671,2019-07-25 11:50:22:648
0.278511792,0.018676654,9.772530556,0.001942451,-0.002286882,0.007026868,-178.324062,-2.7169361,0,1.156550646,2019-07-25 11:50:22:651
0.177932292,0.023466153,9.87789917,-0.00072136,-0.00415155,0.005694962,-178.3361347,0.934820536,0,1.160011292,2019-07-25 11:50:22:655
0.252169549,0.009097654,9.906636238,0.002208833,-0.004417931,0.006760487,-178.3394656,4.514679836,0,1.16317153,2019-07-25 11:50:22:658
0.237801045,0.073755898,9.837188721,0.000876927,-0.006282599,0.008092393,-178.3437551,8.015623646,0,1.166645765,2019-07-25 11:50:22:662
0.228222042,0.085729644,9.870715141,-0.001786885,-0.00175412,0.007826011,-178.350058,11.44569682,0,1.170014143,2019-07-25 11:50:22:665
0.237801045,0.013887154,9.813241005,0.00167607,-0.002286882,0.007826011,-178.3548895,14.81486498,0,1.173162222,2019-07-25 11:50:22:668
0.242590532,0.049808398,9.74858284,-0.003118791,-0.004950694,0.004895819,-178.3582834,18.1133419,0,1.176753998,2019-07-25 11:50:22:672
0.276117027,0.009097654,9.765346527,0.001942451,-0.00175412,0.005961344,-178.3583999,21.34964708,0,1.180058479,2019-07-25 11:50:22:675
0.261748523,0.049808398,9.774925232,-0.00072136,-0.002819644,0.006227725,-178.3600545,24.51694304,0,1.183216095,2019-07-25 11:50:22:678
0.20427455,0.030650401,9.846767426,-0.000987741,-0.004417931,0.004629438,-178.3682354,27.62322706,0,1.186638355,2019-07-25 11:50:22:682
0.252169549,0.064176895,9.818030357,0.001942451,-0.002286882,0.006494106,-178.3710117,30.662904,0,1.190014124,2019-07-25 11:50:22:685
0.240195796,0.042624149,9.765346527,-0.001254122,-0.005483456,0.008625155,-178.3744462,33.64486495,0,1.193148613,2019-07-25 11:50:22:688
0.280906528,-0.031613089,9.808451653,0.003007976,-0.005217075,0.0051622,-178.3731529,29.37508715,0,1.196546078,2019-07-25 11:50:22:691
0.290485531,0.047413651,9.777319908,-0.00072136,-0.002020501,0.008092393,-178.3712602,32.38216928,0,1.200021505,2019-07-25 11:50:22:695
0.228222042,0.004308155,9.683924675,7.78E-05,-0.003885169,0.003830295,-178.3761471,35.33400234,0,1.203170776,2019-07-25 11:50:22:698
0.237801045,0.037834652,9.779714584,0.001143308,-0.001221358,0.003563913,-178.3805306,38.22266894,0,1.206600666,2019-07-25 11:50:22:701
0.290485531,0.042624149,9.853952408,-0.002586028,-0.002020501,0.005428581,-178.3787621,41.05375435,0,1.210013151,2019-07-25 11:50:22:705
0.261748523,-0.019639343,9.813241005,-0.001254122,-0.004417931,0.001699245,-178.3798493,36.63519395,0,1.2131567,2019-07-25 11:50:22:708
0.273722291,0.0450189,9.796478271,0.001409689,-0.000954976,0.008625155,-178.3800576,39.49695089,0,1.216609001,2019-07-25 11:50:22:711
0.280906528,-0.014849843,9.813241005,0.000876927,-0.004417931,0.005961344,-178.3788144,35.10857742,0,1.220031023,2019-07-25 11:50:22:715
0.28569603,0.040229399,9.849162102,-0.002586028,-0.003618788,0.005961344,-178.3773707,38.00218056,0,1.223165989,2019-07-25 11:50:22:718
0.280906528,0.011492404,9.810846329,-0.001520504,-0.003885169,0.004363057,-178.3762924,40.84108019,0,1.226510763,2019-07-25 11:50:22:721
0.261748523,-0.031613089,9.839583397,-0.000188598,-0.004417931,0.005694962,-178.3774309,36.42797693,0,1.229976416,2019-07-25 11:50:22:725
0.244985282,-0.005270844,9.784503937,-0.003651553,-0.003352407,0.006760487,-178.3806029,32.10068147,0,1.233130932,2019-07-25 11:50:22:728
0.259353787,0.054597899,9.830004692,7.78E-05,-0.005749837,0.00755963,-178.3816606,35.05228833,0,1.236549139,2019-07-25 11:50:22:731
0.300064534,0.03304515,9.827610016,-0.000454979,-0.002286882,0.004096676,-178.3786053,37.94747797,0,1.240013838,2019-07-25 11:50:22:735
0.256959051,-0.017244592,9.830004692,0.001409689,-0.002020501,0.0051622,-178.3807299,33.59029059,0,1.24314785,2019-07-25 11:50:22:738
0.252169549,0.028255651,9.844372749,-0.003651553,-0.00175412,0.003031151,-178.3834342,36.51589151,0,1.246541262,2019-07-25 11:50:22:741
0.273722291,0.004308155,9.830004692,-0.003118791,-0.000688595,0.005428581,-178.3837307,39.38567987,0,1.250015497,2019-07-25 11:50:22:745
0.280906528,-0.002876094,9.865925789,-0.000454979,-0.000422214,0.008092393,-178.3833635,34.99838055,0,1.253155708,2019-07-25 11:50:22:748
0.364722759,-0.017244592,9.868320465,-0.001520504,-0.001221358,0.005961344,-178.3731248,30.7007128,0,1.256639242,2019-07-25 11:50:22:752
0.273722291,-0.019639343,9.830004692,-0.004717077,-0.003352407,0.007826011,-178.3731255,26.48988341,0,1.260020018,2019-07-25 11:50:22:755
0.261748523,-0.086692333,9.791688919,-0.001254122,0.001176073,0.004629438,-178.3752466,22.37045349,0,1.263179064,2019-07-25 11:50:22:758
0.297669768,-0.04598159,9.784503937,-0.002319647,-0.001221358,0.004629438,-178.3726528,18.32888132,0,1.266647816,2019-07-25 11:50:22:762
0.300064534,0.0450189,9.741398811,-0.002852409,-0.001221358,0.007293249,-178.3696819,21.55754833,0,1.270021439,2019-07-25 11:50:22:765
0.225827292,0.025860902,9.777319908,0.002208833,-0.003618788,0.006760487,-178.3751832,24.72297425,0,1.273183584,2019-07-25 11:50:22:768
0.271327525,-0.041192088,9.762951851,-0.004184315,-0.003618788,0.007293249,-178.3751586,20.63413854,0,1.276541471,2019-07-25 11:50:22:771
0.225827292,0.009097654,9.719845772,-0.000454979,-0.005217075,0.001965626,-178.3800321,23.82047079,0,1.279969931,2019-07-25 11:50:22:775
0.309643537,0.016281903,9.841978073,-0.002053266,-0.001487739,0.007826011,-178.3761281,26.94252874,0,1.283119202,2019-07-25 11:50:22:778
0.266538024,-0.081902832,9.868320465,-0.002319647,0.00064331,0.006227725,-178.3777855,22.81363215,0,1.286525011,2019-07-25 11:50:22:781
0.235406294,-0.014849843,9.894662857,-0.000987741,-0.004950694,0.006494106,-178.3819946,18.75927433,0,1.290041685,2019-07-25 11:50:22:785
0.300064534,-0.062744834,9.743793488,-0.001520504,0.000909692,0.005961344,-178.3792376,14.79173643,0,1.293187857,2019-07-25 11:50:22:788
0.266538024,-0.038797341,9.820425034,-0.004983458,-0.005217075,0.0051622,-178.3795434,10.90139885,0,1.296654463,2019-07-25 11:50:22:792
0.295275033,-0.007665594,9.741398811,7.78E-05,-0.002819644,0.008891537,-178.376697,7.084257933,0,1.300014257,2019-07-25 11:50:22:795
0.297669768,-0.02921834,9.806056976,-0.002586028,-0.000422214,0.006760487,-178.374314,3.346444276,0,1.303162336,2019-07-25 11:50:22:798
0.355143785,-0.014849843,9.851556778,-0.000188598,-0.000954976,0.008092393,-178.365354,-0.318721371,0,1.30655551,2019-07-25 11:50:22:801
0.28569603,-0.041192088,9.801267624,-0.002586028,-0.001487739,0.0051622,-178.3643634,-3.907025585,0,1.310036182,2019-07-25 11:50:22:805
0.280906528,-0.053165838,9.909030914,-0.002586028,-0.002020501,0.005961344,-178.3642441,-7.422281529,0,1.313171864,2019-07-25 11:50:22:808
0.292880297,-0.077113338,9.846767426,-0.000987741,-0.001221358,0.002498389,-178.3626512,-10.86467264,0,1.316586733,2019-07-25 11:50:22:811
0.304854035,-0.002876094,9.85874176,-0.00072136,-0.000422214,0.002498389,-178.359894,-14.2469061,0,1.320013285,2019-07-25 11:50:22:815
0.321617275,-0.012455093,9.87789917,-0.001254122,-0.000954976,0.0051622,-178.3552302,-17.56030123,0,1.323163748,2019-07-25 11:50:22:818
0.254564285,-0.002876094,9.77013588,-0.000987741,-0.000688595,0.002498389,-178.3581456,-20.80857215,0,1.326512575,2019-07-25 11:50:22:821
0.247380033,0.028255651,9.808451653,-0.002852409,-0.002020501,0.0051622,-178.361692,-16.79514332,0,1.329999447,2019-07-25 11:50:22:825
0.307248771,-0.022034092,9.789293289,-0.002319647,-0.001487739,0.004629438,-178.3582402,-20.05624995,0,1.333156824,2019-07-25 11:50:22:828
0.276117027,-0.019639343,9.875504494,-0.00072136,-0.004684313,-0.000431804,-178.3581503,-23.25270842,0,1.336555481,2019-07-25 11:50:22:831
0.288090795,0.035439901,9.813241005,-0.003118791,-0.00175412,0.00276477,-178.3570154,-19.19118728,0,1.340012312,2019-07-25 11:50:22:835
0.261748523,0.006702905,9.782109261,-0.002319647,-0.004950694,0.003830295,-178.3583441,-15.20773827,0,1.343163729,2019-07-25 11:50:22:838
0.242590532,-0.038797341,9.837188721,-0.000188598,-0.002819644,0.001965626,-178.3623153,-18.49902338,0,1.347008467,2019-07-25 11:50:22:842
0.30245927,-0.002876094,9.818030357,-0.003651553,-0.005749837,-0.000698185,-178.3587688,-21.72806597,0,1.350136042,2019-07-25 11:50:22:845
0.233011544,-0.041192088,9.786898613,0.000344164,-0.003618788,0.002498389,-178.3636717,-24.88874291,0,1.35330677,2019-07-25 11:50:22:848
0.247380033,-0.000481345,9.786898613,-0.002852409,-0.002286882,0.000100958,-178.366999,-27.99036224,0,1.356737375,2019-07-25 11:50:22:852
0.261748523,0.028255651,9.815635681,-0.002319647,-0.003352407,-0.001230947,-178.368492,-23.83342689,0,1.360013962,2019-07-25 11:50:22:855
0.247380033,-0.036402591,9.846767426,0.00167607,-0.001487739,0.000900102,-178.3720765,-26.95281816,0,1.36316061,2019-07-25 11:50:22:858
0.228222042,-0.024428841,9.760557175,-0.001786885,0.001176073,-0.002030091,-178.3780713,-30.01055141,0,1.366573095,2019-07-25 11:50:22:861
0.300064534,-0.000481345,9.87789917,0.000610546,-0.00654898,-0.000698185,-178.3744452,-33.01040252,0,1.370014668,2019-07-25 11:50:22:865
0.244985282,-0.038797341,9.724635124,-0.00072136,-0.001487739,0.000100958,-178.37783,-35.94549468,0,1.373176813,2019-07-25 11:50:22:868
0.211458787,-0.012455093,9.8036623,0.000876927,0.000110548,-0.005759427,-178.3855814,-38.82529388,0,1.376526356,2019-07-25 11:50:22:871
0.295275033,0.001913405,9.806056976,0.000344164,-0.002553263,-0.002562853,-178.3828803,-34.44907829,0,1.379976988,2019-07-25 11:50:22:875
0.30245927,-0.041192088,9.810846329,-0.001786885,-0.002819644,0.00036734,-178.3794064,-37.35496866,0,1.383134604,2019-07-25 11:50:22:878
0.280906528,0.016281903,9.837188721,0.000344164,-0.003086026,-0.002829234,-178.3785019,-33.00983318,0,1.386614323,2019-07-25 11:50:22:881
0.28569603,-0.002876094,9.8036623,0.001143308,-0.003086026,-0.004427521,-178.376957,-35.94951906,0,1.390021324,2019-07-25 11:50:22:885
0.300064534,-0.007665594,9.784503937,-0.001520504,-0.004950694,-0.00176371,-178.3734135,-38.82936274,0,1.393162489,2019-07-25 11:50:22:888
0.252169549,-0.031613089,9.846767426,-0.000987741,-0.002286882,-0.000964566,-178.3761453,-41.64889776,0,1.396746397,2019-07-25 11:50:22:892
0.273722291,-0.04837634,9.796478271,-0.00072136,-0.003086026,-0.004693902,-178.3760451,-44.41012847,0,1.400022507,2019-07-25 11:50:22:895
0.288090795,-0.010060344,9.806056976,-0.002586028,-0.004417931,-0.002829234,-178.3740538,-47.12027356,0,1.403305531,2019-07-25 11:50:22:898
0.340775281,0.030650401,9.715056419,0.001409689,-0.002553263,-0.004693902,-178.3659164,-42.58174697,0,1.406635761,2019-07-25 11:50:22:902
0.292880297,-0.019639343,9.712661743,-0.002319647,0.000909692,-0.00416114,-178.3642259,-45.32735681,0,1.409999609,2019-07-25 11:50:22:905
0.273722291,0.006702905,9.743793488,7.78E-05,-0.006016218,-0.002829234,-178.3636473,-40.82161234,0,1.413290024,2019-07-25 11:50:22:908
0.314433038,0.016281903,9.837188721,0.002208833,-0.00415155,-0.006292189,-178.3589797,-36.40749143,0,1.416633606,2019-07-25 11:50:22:912
0.388670266,-0.050771087,9.834794044,-0.003385172,-0.003086026,-0.001497328,-178.3459532,-39.27278546,0,1.420003414,2019-07-25 11:50:22:915
0.304854035,-0.077113338,9.798872948,-0.000987741,-0.003885169,-0.004960283,-178.3426735,-42.07812862,0,1.42331028,2019-07-25 11:50:22:918
0.297669768,-0.072323836,9.772530556,-0.002586028,-0.001221358,-0.003894759,-178.3407008,-44.82760792,0,1.426599979,2019-07-25 11:50:22:921
0.230616793,-0.012455093,9.758161545,-0.000188598,-0.005749837,-0.003628378,-178.3457278,-47.52955764,0,1.429952383,2019-07-25 11:50:22:925
0.331196278,0.016281903,9.786898613,7.78E-05,-0.003086026,-0.003628378,-178.3394854,-42.98088709,0,1.433207035,2019-07-25 11:50:22:928
0.247380033,-0.031613089,9.784503937,-0.002852409,-0.002020501,-0.001230947,-178.3433449,-45.71702353,0,1.436600208,2019-07-25 11:50:22:931
0.235406294,0.006702905,9.810846329,-0.002852409,0.000376929,-0.002296472,-178.3490596,-41.20292128,0,1.440001011,2019-07-25 11:50:22:935
0.278511792,-0.050771087,9.724635124,0.000876927,-0.005217075,-0.005226664,-178.3483136,-43.97304074,0,1.443260908,2019-07-25 11:50:22:938
0.309643537,-0.019639343,9.789293289,-0.004983458,-0.006282599,-0.003095615,-178.343938,-46.69034879,0,1.446592331,2019-07-25 11:50:22:941
0.22103779,-0.03400784,9.806056976,-0.003651553,-0.001221358,-0.002562853,-178.3509999,-49.35186904,0,1.450000048,2019-07-25 11:50:22:945
0.31922254,0.013887154,9.818030357,-0.003651553,-0.000954976,0.000100958,-178.3465576,-44.76577517,0,1.453303576,2019-07-25 11:50:22:948
0.259353787,-0.053165838,9.772530556,0.001143308,-0.003352407,-0.002296472,-178.3485958,-47.46443916,0,1.456630707,2019-07-25 11:50:22:952
0.273722291,0.035439901,9.798872948,-0.001254122,-0.003352407,0.000633721,-178.3489877,-42.91905749,0,1.460000992,2019-07-25 11:50:22:955
0.230616793,0.006702905,9.818030357,0.001409689,-0.000688595,0.000633721,-178.3549691,-38.46171927,0,1.463293314,2019-07-25 11:50:22:958
0.237801045,0.013887154,9.85874176,0.001143308,-0.005217075,-0.002296472,-178.3592574,-34.0943132,0,1.466629267,2019-07-25 11:50:22:962
0.22103779,-0.022034092,9.755766869,-0.001520504,-0.003352407,-0.003894759,-178.3654788,-37.00955092,0,1.470001221,2019-07-25 11:50:22:965
0.259353787,0.061782148,9.736609459,0.000876927,-0.002819644,-0.001497328,-178.3671286,-32.67679404,0,1.473311663,2019-07-25 11:50:22:968
0.26893279,0.0450189,9.765346527,-0.001254122,-0.003352407,0.000900102,-178.3676135,-28.42830797,0,1.476619005,2019-07-25 11:50:22:971
0.283301294,0.061782148,9.839583397,7.78E-05,-0.000688595,-0.004693902,-178.3671481,-24.26695143,0,1.479956865,2019-07-25 11:50:22:975
0.288090795,0.009097654,9.755766869,0.000610546,-0.002286882,-0.000964566,-178.3655527,-20.18279395,0,1.483251095,2019-07-25 11:50:22:978
0.278511792,-0.031613089,9.798872948,-0.001786885,0.000110548,-0.000964566,-178.365701,-23.37510516,0,1.486599684,2019-07-25 11:50:22:981
0.290485531,-0.002876094,9.8036623,0.001942451,-0.005483456,-0.002030091,-178.363397,-26.50763746,0,1.489997387,2019-07-25 11:50:22:985
0.264143288,-0.005270844,9.918610573,0.000344164,-0.003352407,-0.000165423,-178.3650077,-29.57693854,0,1.493246317,2019-07-25 11:50:22:988
0.324012041,-0.007665594,9.815635681,0.003540738,0.000376929,-0.001230947,-178.3599653,-32.58516652,0,1.496574402,2019-07-25 11:50:22:991
0.216248289,0.025860902,9.8036623,0.002208833,-0.006282599,0.003563913,-178.3662888,-28.33690954,0,1.49998951,2019-07-25 11:50:22:995
0.206669301,0.030650401,9.830004692,0.000876927,-0.000422214,-0.00655857,-178.3747963,-24.17390675,0,1.503287554,2019-07-25 11:50:22:998
0.278511792,0.049808398,9.870715141,-0.00072136,-0.003885169,-0.000964566,-178.374237,-20.09607376,0,1.50667429,2019-07-25 11:50:23:002
0.283301294,-0.019639343,9.844372749,-0.002319647,-0.004684313,-0.000165423,-178.3729092,-23.29143292,0,1.510000944,2019-07-25 11:50:23:005
0.209064037,-0.041192088,9.832399368,0.001409689,-0.000422214,0.000633721,-178.381011,-26.42106513,0,1.513305426,2019-07-25 11:50:23:008
0.261748523,0.021071402,9.750977516,7.78E-05,-0.004417931,0.001699245,-178.3818087,-22.29513469,0,1.516648531,2019-07-25 11:50:23:012
0.256959051,-0.022034092,9.777319908,-0.000987741,-0.002286882,-0.002296472,-178.3836331,-25.44646365,0,1.520000935,2019-07-25 11:50:23:015
0.242590532,0.009097654,9.786898613,-0.000454979,-0.003352407,0.001166483,-178.3869244,-21.33851304,0,1.523388624,2019-07-25 11:50:23:018
0.233011544,0.059387397,9.82521534,0.002741595,-0.000688595,0.000633721,-178.3918856,-17.31918373,0,1.526731968,2019-07-25 11:50:23:022
0.28569603,0.03304515,9.865925789,-0.003385172,-0.000954976,0.001699245,-178.3907015,-13.37602713,0,1.529946804,2019-07-25 11:50:23:025
0.271327525,0.021071402,9.834794044,-0.000454979,-0.00175412,0.003031151,-178.3909603,-9.510878467,0,1.533206701,2019-07-25 11:50:23:028
0.216248289,-0.024428841,9.885084152,-0.001520504,-0.004950694,-0.000698185,-178.3971447,-12.91754277,0,1.536559582,2019-07-25 11:50:23:031
0.252169549,-0.017244592,9.82521534,-0.002319647,-0.005217075,0.000633721,-178.3987898,-16.25673254,0,1.5400002,2019-07-25 11:50:23:035
0.237801045,0.030650401,9.774925232,-0.002053266,-0.003885169,-0.00176371,-178.4022307,-12.33481508,0,1.543261051,2019-07-25 11:50:23:038
0.249774784,0.006702905,9.772530556,-0.001786885,-0.003618788,0.000900102,-178.4042257,-8.488569738,0,1.546600103,2019-07-25 11:50:23:041
0.237801045,0.028255651,9.806056976,-0.002053266,-0.002819644,0.001166483,-178.4078193,-4.721708123,0,1.550001144,2019-07-25 11:50:23:045
0.189906046,-0.026823591,9.815635681,0.001409689,-0.002819644,0.000900102,-178.4169741,-8.224403059,0,1.553293228,2019-07-25 11:50:23:048
0.247380033,-0.050771087,9.846767426,-0.000987741,-0.003885169,-0.000165423,-178.4191109,-11.6538182,0,1.556689739,2019-07-25 11:50:23:052
0.209064037,0.025860902,9.820425034,-0.000188598,-0.002020501,0.005694962,-178.4259615,-7.823724384,0,1.56000185,2019-07-25 11:50:23:055
0.216248289,-0.019639343,9.784503937,-0.000987741,-0.002286882,0.001699245,-178.431696,-11.26476653,0,1.563306808,2019-07-25 11:50:23:058
0.213853538,0.054597899,9.813241005,0.000610546,-0.002020501,0.004629438,-178.4377369,-7.445954537,0,1.566453457,2019-07-25 11:50:23:061
0.230616793,-0.04837634,9.942557335,-0.000987741,-0.008413648,0.004096676,-178.4407264,-10.89126259,0,1.570011854,2019-07-25 11:50:23:065
0.223432541,-0.014849843,9.772530556,-0.000987741,-0.001221358,0.003297532,-178.4454922,-14.27151423,0,1.573290348,2019-07-25 11:50:23:068
0.278511792,0.0450189,9.853952408,0.000876927,-0.003885169,0.001699245,-178.4435226,-10.39147269,0,1.576408386,2019-07-25 11:50:23:071
0.22103779,-0.014849843,9.873109818,-0.004184315,-0.004684313,0.005428581,-178.4480658,-13.78108354,0,1.57996726,2019-07-25 11:50:23:075
0.28569603,0.03304515,9.853952408,-0.001520504,0.00064331,-0.002030091,-178.4460088,-9.909024326,0,1.583250999,2019-07-25 11:50:23:078
0.249774784,0.021071402,9.822820663,-0.006048983,-0.000688595,0.004363057,-178.447835,-6.112233965,0,1.586395502,2019-07-25 11:50:23:081
0.209064037,0.016281903,9.868320465,-0.000454979,-0.004417931,0.0051622,-178.4537169,-2.391788463,0,1.589976549,2019-07-25 11:50:23:085
0.228222042,0.028255651,9.827610016,-0.004184315,-0.004684313,0.001965626,-178.4571865,1.25351179,0,1.593207598,2019-07-25 11:50:23:088
0.295275033,-0.04598159,9.889873505,-0.003118791,-0.00415155,0.003830295,-178.4531084,-2.365681047,0,1.596346378,2019-07-25 11:50:23:091
0.199485049,0.021071402,9.918610573,-0.001786885,0.001176073,0.003563913,-178.4612431,1.279563797,0,1.599990606,2019-07-25 11:50:23:095
0.266538024,-0.000481345,9.810846329,-0.002586028,-0.002286882,0.006494106,-178.4604751,-2.345497454,0,1.603253603,2019-07-25 11:50:23:098
0.213853538,0.066571645,9.870715141,0.000344164,-0.002819644,0.004363057,-178.4659386,1.293622619,0,1.606437445,2019-07-25 11:50:23:101
0.213853538,-0.022034092,9.830004692,0.00167607,-0.005749837,0.004363057,-178.4705558,-2.330013085,0,1.609963417,2019-07-25 11:50:23:105
0.228222042,0.001913405,9.746188164,-0.003385172,-0.002020501,0.00276477,-178.4739421,1.316988862,0,1.613260269,2019-07-25 11:50:23:108
0.254564285,-0.02921834,9.774925232,-0.00524984,-0.002553263,0.0051622,-178.474172,-2.304989239,0,1.616436958,2019-07-25 11:50:23:111
0.228222042,-0.024428841,9.863531113,-0.001786885,-0.001221358,0.004629438,-178.4779338,-5.855692378,0,1.620015144,2019-07-25 11:50:23:115
0.175537542,-0.000481345,9.844372749,-0.004184315,-0.002020501,0.003297532,-178.4875753,-9.337758721,0,1.623265982,2019-07-25 11:50:23:118
0.28569603,-0.010060344,9.782109261,0.000876927,-0.005749837,0.000633721,-178.4833572,-12.74997886,0,1.62638998,2019-07-25 11:50:23:121
0.197090298,0.042624149,9.762951851,0.000610546,-0.003885169,0.003297532,-178.4897893,-8.900103312,0,1.62992239,2019-07-25 11:50:23:125
0.247380033,0.006702905,9.841978073,-0.001786885,-0.002020501,0.004895819,-178.4908275,-5.122555077,0,1.633177519,2019-07-25 11:50:23:128
0.256959051,-0.036402591,9.791688919,-0.002852409,-0.006016218,0.002498389,-178.4898651,-8.615331331,0,1.636377335,2019-07-25 11:50:23:131
0.209064037,0.025860902,9.815635681,-0.001520504,0.000110548,0.002498389,-178.4956872,-4.845732589,0,1.640022516,2019-07-25 11:50:23:135
0.247380033,-0.005270844,9.779714584,-0.001520504,-0.006282599,0.001699245,-178.4956512,-8.347923894,0,1.643260479,2019-07-25 11:50:23:138
0.209064037,-0.017244592,9.870715141,-0.00524984,-0.007614505,0.003297532,-178.5001279,-11.77803743,0,1.646401882,2019-07-25 11:50:23:141
0.259353787,-0.050771087,9.750977516,0.001143308,-0.001487739,0.007026868,-178.4993566,-15.13673864,0,1.649960041,2019-07-25 11:50:23:145
0.22103779,-0.014849843,9.822820663,-0.00524984,-0.005749837,0.002498389,-178.5025253,-18.43130136,0,1.653251171,2019-07-25 11:50:23:148
0.278511792,-0.002876094,9.892268181,0.000344164,-0.004417931,0.000633721,-178.4994609,-21.66240135,0,1.656313658,2019-07-25 11:50:23:151
0.233011544,-0.012455093,9.870715141,-0.000188598,-0.002286882,0.003031151,-178.5019554,-24.82766858,0,1.659977436,2019-07-25 11:50:23:155
0.273722291,0.03304515,9.796478271,-0.003651553,-0.000155833,0.003031151,-178.4998785,-20.73431936,0,1.663202286,2019-07-25 11:50:23:158
0.288090795,0.035439901,9.873109818,7.78E-05,-0.003086026,0.002232008,-178.4959233,-16.72375962,0,1.666261196,2019-07-25 11:50:23:161
0.233011544,0.016281903,9.839583397,-0.002586028,-0.000954976,0.004096676,-178.4986742,-12.7906411,0,1.669976711,2019-07-25 11:50:23:165
0.280906528,-0.067534335,9.765346527,-0.002852409,-0.002553263,0.004096676,-178.4952787,-16.12638063,0,1.673241854,2019-07-25 11:50:23:168
0.213853538,-0.110639833,9.74858284,-0.000454979,-0.00415155,0.004629438,-178.499537,-19.39077123,0,1.676254988,2019-07-25 11:50:23:171
0.254564285,-0.005270844,9.741398811,-0.002319647,-0.004684313,0.0051622,-178.4986379,-22.60185553,0,1.679942131,2019-07-25 11:50:23:175
0.20427455,-0.036402591,9.791688919,-0.00072136,-0.002819644,0.004096676,-178.5042403,-25.74542466,0,1.683240652,2019-07-25 11:50:23:178
0.26893279,0.001913405,9.779714584,-0.002053266,-0.002020501,0.004096676,-178.5022892,-21.63037187,0,1.686436892,2019-07-25 11:50:23:181
0.309643537,-0.065139584,9.861136436,0.000610546,-0.001487739,0.003297532,-178.4959759,-24.79031695,0,1.689994574,2019-07-25 11:50:23:185
0.206669301,-0.010060344,9.765346527,-0.000987741,-0.000954976,0.00755963,-178.5016361,-27.89315192,0,1.693206787,2019-07-25 11:50:23:188
0.283301294,0.028255651,9.832399368,0.000344164,-0.003352407,0.006494106,-178.4980237,-23.7386406,0,1.696242809,2019-07-25 11:50:23:191
0.201879799,-0.012455093,9.734214783,-0.003118791,-0.000688595,0.002232008,-178.5041573,-26.86174941,0,1.699966908,2019-07-25 11:50:23:195
0.244985282,-0.065139584,9.791688919,-0.002053266,-0.003618788,0.001965626,-178.5047476,-29.91651564,0,1.703225136,2019-07-25 11:50:23:198
0.22103779,-0.04598159,9.880293846,-0.001254122,-0.002286882,0.0051622,-178.5086274,-32.91263658,0,1.706290245,2019-07-25 11:50:23:201
0.271327525,-0.069929086,9.806056976,-0.000454979,-0.00654898,0.003297532,-178.5053877,-35.84611716,0,1.710011482,2019-07-25 11:50:23:205
0.182721794,-0.043586839,9.791688919,-0.003651553,-0.006815362,0.004895819,-178.5126496,-38.72342468,0,1.713275433,2019-07-25 11:50:23:208
0.213853538,-0.084297583,9.849162102,-0.000987741,-0.002286882,0.004096676,-178.5171266,-41.53897903,0,1.716334581,2019-07-25 11:50:23:211
0.340775281,-0.091481835,9.820425034,-0.002053266,-0.004417931,0.004895819,-178.5061349,-44.29710625,0,1.719966888,2019-07-25 11:50:23:215
0.197090298,-0.057955336,9.777319908,-0.001254122,-0.000422214,0.003563913,-178.5128389,-47.00414257,0,1.72322154,2019-07-25 11:50:23:218
0.206669301,-0.04598159,9.815635681,-0.00072136,-0.003086026,0.00276477,-178.5179297,-49.65856812,0,1.726272345,2019-07-25 11:50:23:221
0.206669301,-0.079508081,9.765346527,-0.000188598,-0.002286882,0.004096676,-178.5228487,-52.25602796,0,1.729966402,2019-07-25 11:50:23:225
0.28569603,-0.007665594,9.808451653,-0.002586028,-0.003352407,0.007293249,-178.5184126,-54.80954059,0,1.733211756,2019-07-25 11:50:23:228
0.288090795,0.011492404,9.832399368,0.002475214,-0.006016218,0.002498389,-178.5134505,-50.11511208,0,1.736254692,2019-07-25 11:50:23:231
0.273722291,-0.010060344,9.818030357,0.001409689,-0.007081743,0.002232008,-178.5097659,-52.71192951,0,1.739967346,2019-07-25 11:50:23:235
0.242590532,-0.031613089,9.837188721,0.003007976,-0.000954976,0.000633721,-178.5111442,-55.2545537,0,1.743196011,2019-07-25 11:50:23:238
0.276117027,-0.069929086,9.786898613,-0.00072136,-0.007081743,0.004629438,-178.5073883,-57.74115154,0,1.746243954,2019-07-25 11:50:23:241
0.288090795,-0.022034092,9.810846329,0.000344164,-0.002286882,0.0051622,-178.5031214,-60.18382708,0,1.749978304,2019-07-25 11:50:23:245
0.240195796,-0.053165838,9.794083595,0.000344164,-0.004417931,0.00276477,-178.5041524,-62.57399318,0,1.75323987,2019-07-25 11:50:23:248
0.252169549,-0.022034092,9.774925232,-0.001520504,-0.002286882,0.00276477,-178.5041235,-64.91967055,0,1.756281853,2019-07-25 11:50:23:251
0.223432541,-0.036402591,9.782109261,0.000610546,-0.003885169,0.003830295,-178.5070672,-67.21713925,0,1.75996995,2019-07-25 11:50:23:255
0.295275033,0.004308155,9.734214783,0.000876927,-0.004950694,0.004096676,-178.5012686,-62.27346445,0,1.763236284,2019-07-25 11:50:23:258
0.22103779,-0.031613089,9.815635681,-0.000454979,0.00064331,0.005428581,-178.5055554,-64.62422492,0,1.76635313,2019-07-25 11:50:23:261
0.233011544,0.004308155,9.868320465,0.001942451,-0.005217075,0.003031151,-178.5073305,-59.73263587,0,1.769976377,2019-07-25 11:50:23:265
0.295275033,-0.086692333,9.786898613,-0.00072136,-0.001221358,0.003830295,-178.502398,-62.12770086,0,1.773236275,2019-07-25 11:50:23:268
0.304854035,0.001913405,9.808451653,0.000344164,-0.00654898,0.004363057,-178.4956363,-57.28542868,0,1.776252985,2019-07-25 11:50:23:271
0.252169549,0.009097654,9.832399368,-0.001254122,-0.002553263,0.006494106,-178.4958134,-52.54052128,0,1.779932499,2019-07-25 11:50:23:275
0.30245927,-0.060350087,9.772530556,0.001143308,-0.002819644,0.00276477,-178.4899264,-55.08284361,0,1.783191919,2019-07-25 11:50:23:278
0.252169549,-0.036402591,9.772530556,-0.000188598,-0.006016218,0.005694962,-178.4895342,-57.57688591,0,1.786244392,2019-07-25 11:50:23:281
0.283301294,-0.036402591,9.827610016,0.001143308,-0.00415155,0.00276477,-178.4858473,-60.02134372,0,1.789984703,2019-07-25 11:50:23:285
0.223432541,-0.010060344,9.820425034,0.001143308,-0.000155833,0.004363057,-178.4900351,-62.41994967,0,1.793205023,2019-07-25 11:50:23:288
0.278511792,-0.014849843,9.72942543,0.000610546,-0.000422214,0.003297532,-178.4873682,-64.76990645,0,1.796261072,2019-07-25 11:50:23:291
0.26893279,-0.041192088,9.822820663,-0.000987741,-0.002286882,0.003563913,-178.4857789,-67.06949714,0,1.799971819,2019-07-25 11:50:23:295
0.168353304,-0.057955336,9.810846329,-0.000188598,-0.002819644,0.007826011,-178.4958844,-69.32130346,0,1.803237438,2019-07-25 11:50:23:298
0.28569603,-0.005270844,9.909030914,-0.002319647,-0.000422214,0.004629438,-178.4928646,-71.53387027,0,1.806289911,2019-07-25 11:50:23:301
0.316827774,0.025860902,9.801267624,7.78E-05,-0.001487739,0.003031151,-178.4856669,-66.50623267,0,1.810016632,2019-07-25 11:50:23:305
0.280906528,-0.031613089,9.806056976,-0.00072136,-0.001487739,0.003563913,-178.4828642,-68.77228178,0,1.813275576,2019-07-25 11:50:23:308
0.254564285,-0.041192088,9.786898613,0.00167607,-0.004950694,0.005428581,-178.4825538,-70.99230215,0,1.816346645,2019-07-25 11:50:23:311
0.211458787,-0.000481345,9.839583397,0.003007976,-0.00415155,0.003563913,-178.487435,-73.17301237,0,1.819972038,2019-07-25 11:50:23:315
0.189906046,-0.041192088,9.818030357,-0.001520504,-0.001487739,0.004629438,-178.495251,-75.30446533,0,1.823240757,2019-07-25 11:50:23:318
0.216248289,-0.012455093,9.784503937,-0.001254122,-0.002020501,0.003031151,-178.4996808,-77.3967042,0,1.826267481,2019-07-25 11:50:23:321
0.206669301,-0.007665594,9.818030357,0.000344164,-0.003885169,0.0051622,-178.5047692,-79.4479463,0,1.829934835,2019-07-25 11:50:23:325
0.278511792,-0.017244592,9.789293289,0.00167607,-0.002819644,0.004629438,-178.5015647,-81.45727535,0,1.833192587,2019-07-25 11:50:23:328
0.256959051,-0.007665594,9.798872948,-0.001254122,-0.003086026,0.007293249,-178.5009623,-83.42701868,0,1.836241722,2019-07-25 11:50:23:331
0.316827774,-0.007665594,9.703083038,-0.00072136,-0.003352407,0.004096676,-178.4928365,-85.35742173,0,1.839976788,2019-07-25 11:50:23:335
0.290485531,-0.014849843,9.87789917,-0.000188598,-0.000688595,0.008891537,-178.4891662,-87.24851647,0,1.843199015,2019-07-25 11:50:23:338
0.297669768,-0.005270844,9.758161545,-0.000987741,-0.001487739,0.007026868,-178.4841789,-89.1027552,0,1.846299887,2019-07-25 11:50:23:341
0.280906528,-0.022034092,9.861136436,0.000344164,-0.004684313,0.0051622,-178.4808693,-90.91821251,0,1.850071669,2019-07-25 11:50:23:345
0.264143288,0.004308155,9.897057533,0.000344164,-0.003352407,0.002232008,-178.4800587,-85.50041042,0,1.853349686,2019-07-25 11:50:23:348
0.206669301,0.042624149,9.909030914,-0.001786885,-0.004417931,0.007293249,-178.4859177,-80.1950712,0,1.855942965,2019-07-25 11:50:23:351
0.26893279,-0.022034092,9.827610016,0.001143308,-0.001487739,0.005694962,-178.4845385,-82.18883932,0,1.859662056,2019-07-25 11:50:23:355
0.259353787,0.009097654,9.846767426,0.001143308,-0.001221358,0.005961344,-178.484427,-76.94635097,0,1.863240004,2019-07-25 11:50:23:358
0.249774784,-0.014849843,9.707872391,0.00167607,-0.000688595,0.008625155,-178.4851423,-79.00596164,0,1.866327524,2019-07-25 11:50:23:361
0.309643537,0.030650401,9.798872948,-0.001254122,-0.003885169,0.007826011,-178.4784456,-73.82917015,0,1.869971752,2019-07-25 11:50:23:365
0.271327525,-0.031613089,9.806056976,0.003007976,-0.00175412,0.004363057,-178.4768565,-75.94944395,0,1.873236656,2019-07-25 11:50:23:368
0.276117027,0.009097654,9.777319908,0.001143308,-0.003618788,0.00755963,-178.4743553,-70.83171447,0,1.87624526,2019-07-25 11:50:23:371
0.300064534,0.073755898,9.870715141,0.00167607,-0.003885169,0.006494106,-178.4692371,-65.82399047,0,1.879942417,2019-07-25 11:50:23:375
0.297669768,-0.026823591,9.861136436,0.001942451,-0.006016218,0.006760487,-178.4641812,-68.10474585,0,1.883171797,2019-07-25 11:50:23:378
0.209064037,-0.03400784,9.841978073,0.000876927,-0.004950694,0.007026868,-178.4696978,-70.33884402,0,1.886271954,2019-07-25 11:50:23:381
0.28569603,-0.022034092,9.832399368,0.001942451,-0.005483456,0.010489823,-178.4658738,-72.52990409,0,1.889984369,2019-07-25 11:50:23:385
0.283301294,-0.007665594,9.904241562,0.00167607,-0.001487739,0.005961344,-178.4635183,-74.67872237,0,1.893206835,2019-07-25 11:50:23:388
0.273722291,-0.036402591,9.796478271,-0.000454979,0.000909692,0.006227725,-178.4623941,-76.78081192,0,1.896257401,2019-07-25 11:50:23:391
0.271327525,0.013887154,9.870715141,-0.002319647,-0.000954976,0.008891537,-178.4614557,-71.64632362,0,1.8999753,2019-07-25 11:50:23:395
0.28569603,0.042624149,9.7270298,0.000610546,-0.00175412,0.005961344,-178.458258,-66.61853037,0,1.903236866,2019-07-25 11:50:23:398
0.249774784,-0.012455093,9.760557175,0.001942451,0.000110548,0.009690679,-178.4597939,-68.88503059,0,1.90629077,2019-07-25 11:50:23:401
0.321617275,0.016281903,9.808451653,-0.001786885,-0.001221358,0.007026868,-178.4527842,-63.90886212,0,1.909979105,2019-07-25 11:50:23:405
0.249774784,0.004308155,9.818030357,0.001409689,0.00064331,0.006760487,-178.4546999,-59.03144553,0,1.91323638,2019-07-25 11:50:23:408
0.314433038,0.004308155,9.767741203,7.78E-05,-0.006282599,0.007026868,-178.4476534,-54.25133537,0,1.916289568,2019-07-25 11:50:23:411
0.244985282,-0.041192088,9.8036623,0.002475214,-0.003352407,0.008891537,-178.4493777,-56.76200568,0,1.919971943,2019-07-25 11:50:23:415
0.206669301,0.0450189,9.834794044,-0.002586028,-0.00175412,0.008092393,-178.4559914,-52.03153637,0,1.923240423,2019-07-25 11:50:23:418
0.252169549,0.136019394,9.8036623,-0.004184315,-0.003086026,0.008092393,-178.4568797,-47.40609412,0,1.926259518,2019-07-25 11:50:23:421
0.209064037,0.042624149,9.841978073,0.001942451,-0.004417931,0.009424299,-178.4624907,-42.8633366,0,1.929941654,2019-07-25 11:50:23:425
0.266538024,-0.017244592,9.839583397,-0.001254122,-0.003086026,0.005694962,-178.4616357,-45.60382916,0,1.933242083,2019-07-25 11:50:23:428
0.261748523,0.009097654,9.830004692,0.003807119,-0.000954976,0.007293249,-178.4617331,-41.09346763,0,1.936303854,2019-07-25 11:50:23:431
0.237801045,0.009097654,9.794083595,-0.000454979,-0.004950694,0.004629438,-178.4636615,-36.67256902,0,1.939971447,2019-07-25 11:50:23:435
0.273722291,-0.02921834,9.889873505,-0.003385172,0.001176073,0.007026868,-178.4628944,-39.53511722,0,1.943206787,2019-07-25 11:50:23:438
0.312038273,0.016281903,9.762951851,-0.000987741,-0.000954976,0.007026868,-178.4568596,-35.14615604,0,1.946270227,2019-07-25 11:50:23:441
0.290485531,0.040229399,9.861136436,-0.001786885,-0.002819644,0.007293249,-178.4533894,-30.84753586,0,1.949976921,2019-07-25 11:50:23:445
0.228222042,0.042624149,9.873109818,-0.003385172,-0.006815362,0.006760487,-178.4565925,-26.63491366,0,1.953231335,2019-07-25 11:50:23:448
0.328801543,-0.057955336,9.818030357,-0.001786885,-0.002819644,0.005961344,-178.4486122,-29.69514282,0,1.956304789,2019-07-25 11:50:23:451
0.254564285,0.049808398,9.916215897,0.000610546,-0.004417931,0.009690679,-178.4493194,-25.50712147,0,1.959971666,2019-07-25 11:50:23:455
0.228222042,-0.014849843,9.832399368,-0.002586028,-0.003352407,0.006760487,-178.4531246,-28.59477394,0,1.963238955,2019-07-25 11:50:23:458
0.30245927,-0.026823591,9.916215897,-0.00524984,-0.000155833,0.008891537,-178.4490936,-31.61886186,0,1.966349363,2019-07-25 11:50:23:461
0.237801045,-0.093876585,9.796478271,-0.001254122,-0.002819644,0.004895819,-178.4517276,-34.57524892,0,1.969971895,2019-07-25 11:50:23:465
0.276117027,-0.02921834,9.753372192,0.001143308,-0.001221358,0.008625155,-178.450037,-37.48052069,0,1.973236561,2019-07-25 11:50:23:468
0.216248289,0.064176895,9.789293289,-0.00072136,-0.00175412,0.007293249,-178.4554319,-33.13830133,0,1.976230383,2019-07-25 11:50:23:471
0.295275033,0.023466153,9.844372749,-0.001786885,0.000110548,0.007826011,-178.4519857,-28.87789512,0,1.979935169,2019-07-25 11:50:23:475
0.228222042,-0.041192088,9.863531113,0.005139025,-0.005483456,0.006494106,-178.4554287,-31.89649618,0,1.983208418,2019-07-25 11:50:23:478
0.28569603,0.004308155,9.87789917,-0.000987741,-0.003618788,0.005961344,-178.4525594,-27.65889491,0,1.986294031,2019-07-25 11:50:23:481
0.22103779,0.001913405,9.820425034,-0.004450696,-0.001487739,0.005694962,-178.457408,-23.50500615,0,1.990031958,2019-07-25 11:50:23:485
0.213853538,-0.002876094,9.846767426,-0.003917934,0.000376929,0.003563913,-178.4634448,-26.63386303,0,1.993251562,2019-07-25 11:50:23:488
0.276117027,0.025860902,9.796478271,-0.001254122,-0.00175412,0.005428581,-178.4615854,-22.50399557,0,1.996307611,2019-07-25 11:50:23:491
0.242590532,-0.04837634,9.789293289,-0.001520504,-0.004417931,0.001699245,-178.4630524,-25.6479397,0,1.999975681,2019-07-25 11:50:23:495
0.28569603,-0.024428841,9.736609459,0.000344164,-0.000954976,0.007026868,-178.4600023,-28.73216882,0,2.003234625,2019-07-25 11:50:23:498
0.290485531,0.018676654,9.8036623,-0.002586028,-0.002553263,0.007826011,-178.456422,-24.55926657,0,2.006278038,2019-07-25 11:50:23:501
0.264143288,-0.019639343,9.755766869,-0.000454979,-0.001487739,0.007026868,-178.4559638,-27.66567929,0,2.010001183,2019-07-25 11:50:23:505
0.240195796,-0.036402591,9.832399368,-0.001254122,-0.000422214,0.003031151,-178.4587791,-30.70789321,0,2.01326704,2019-07-25 11:50:23:508
0.31922254,-0.038797341,9.760557175,-0.007114507,0.000909692,0.009157917,-178.4522949,-33.68796287,0,2.016314983,2019-07-25 11:50:23:511
0.225827292,-0.03400784,9.794083595,-0.00072136,-0.002819644,0.004096676,-178.4562483,-36.61007541,0,2.020000219,2019-07-25 11:50:23:515
0.216248289,0.028255651,9.875504494,-0.00072136,-0.002020501,0.006494106,-178.4616659,-32.28102089,0,2.023251295,2019-07-25 11:50:23:518
0.22103779,-0.007665594,9.818030357,0.001409689,-0.004417931,0.008092393,-178.4658901,-35.23474454,0,2.026267767,2019-07-25 11:50:23:521
0.240195796,-0.007665594,9.839583397,-0.00072136,-0.006282599,0.007826011,-178.4673165,-38.12900901,0,2.029919624,2019-07-25 11:50:23:525
0.300064534,-0.02921834,9.868320465,-0.001520504,0.001176073,0.004096676,-178.4633494,-40.96276157,0,2.033133745,2019-07-25 11:50:23:528
0.242590532,0.009097654,9.743793488,-0.001254122,0.001176073,0.008625155,-178.4657595,-36.54436199,0,2.036176682,2019-07-25 11:50:23:531
0.254564285,-0.038797341,9.772530556,-0.002053266,-0.003885169,0.004629438,-178.4657718,-39.40848713,0,2.039978504,2019-07-25 11:50:23:535
0.264143288,0.006702905,9.839583397,-0.001786885,-0.000954976,0.004629438,-178.4655291,-35.02077504,0,2.043197393,2019-07-25 11:50:23:538
0.254564285,-0.022034092,9.779714584,-0.000454979,0.001442454,0.0051622,-178.4666447,-37.9176997,0,2.046252489,2019-07-25 11:50:23:541
0.273722291,-0.005270844,9.784503937,-0.004184315,-0.005749837,0.00755963,-178.4640622,-40.7578545,0,2.049972057,2019-07-25 11:50:23:545
0.273722291,0.088124394,9.794083595,0.002741595,-0.000422214,0.003297532,-178.4626865,-36.35350797,0,2.053221464,2019-07-25 11:50:23:548
0.22103779,-0.041192088,9.830004692,-0.001254122,-0.002020501,0.003297532,-178.4673187,-39.22141791,0,2.056317806,2019-07-25 11:50:23:551
0.28569603,-0.069929086,9.789293289,-0.001786885,0.000376929,0.0051622,-178.4646163,-42.02843661,0,2.059978724,2019-07-25 11:50:23:555
0.244985282,0.006702905,9.813241005,-0.003385172,-0.000422214,0.004895819,-178.4666452,-37.58803128,0,2.063236952,2019-07-25 11:50:23:558
0.254564285,-0.000481345,9.786898613,0.000610546,-0.005217075,0.001965626,-178.4666004,-40.43632108,0,2.066351891,2019-07-25 11:50:23:561
0.295275033,-0.043586839,9.880293846,0.001143308,-0.004950694,0.009157917,-178.4620253,-43.22277213,0,2.069975615,2019-07-25 11:50:23:565
0.244985282,-0.026823591,9.873109818,-0.001520504,-0.003618788,0.00276477,-178.4636939,-45.95492501,0,2.073236704,2019-07-25 11:50:23:568
0.266538024,-0.024428841,9.853952408,0.002208833,-0.000422214,0.004363057,-178.4633606,-48.63335871,0,2.076244354,2019-07-25 11:50:23:571
0.211458787,-0.053165838,9.837188721,0.001143308,-0.00175412,0.007026868,-178.4690999,-51.25473622,0,2.079948664,2019-07-25 11:50:23:575
0.288090795,0.011492404,9.837188721,-0.003385172,-0.000422214,0.0051622,-178.4660911,-46.63036095,0,2.083206654,2019-07-25 11:50:23:578
0.254564285,-0.050771087,9.815635681,-0.001520504,-0.000422214,0.007026868,-178.466979,-49.29154532,0,2.086500883,2019-07-25 11:50:23:581
0.254564285,-0.057955336,9.786898613,0.001143308,-0.00175412,0.003830295,-178.4674961,-51.89915289,0,2.089993238,2019-07-25 11:50:23:585
0.223432541,-0.019639343,9.844372749,-0.002319647,-0.005483456,0.0051622,-178.4711494,-54.4584637,0,2.093218327,2019-07-25 11:50:23:588
0.242590532,-0.053165838,9.722240448,-0.001786885,-0.00175412,0.007026868,-178.4728384,-56.96272152,0,2.096273661,2019-07-25 11:50:23:591
0.273722291,-0.041192088,9.851556778,-0.000188598,-0.003086026,0.003031151,-178.4709109,-59.41863661,0,2.099967241,2019-07-25 11:50:23:595
0.242590532,-0.062744834,9.791688919,-0.002586028,-0.000688595,0.004629438,-178.4729823,-61.82244798,0,2.103224754,2019-07-25 11:50:23:598
0.22103779,-0.04598159,9.782109261,-0.001520504,-0.003086026,0.001432864,-178.4771049,-64.18035199,0,2.106277227,2019-07-25 11:50:23:601
0.254564285,0.004308155,9.815635681,-0.001254122,-0.007081743,0.0051622,-178.4763653,-59.29698486,0,2.110012531,2019-07-25 11:50:23:605
0.28569603,-0.086692333,9.87789917,-0.001520504,-0.004684313,0.005961344,-178.4728482,-61.70071057,0,2.113266945,2019-07-25 11:50:23:608
0.283301294,-0.012455093,9.736609459,-0.003385172,-0.002020501,0.002232008,-178.4697124,-64.06465061,0,2.116317749,2019-07-25 11:50:23:611
0.235406294,-0.010060344,9.784503937,0.000610546,-0.000954976,0.003297532,-178.4725583,-66.38230438,0,2.119963884,2019-07-25 11:50:23:615
0.20427455,0.004308155,9.839583397,-0.000188598,-0.000422214,0.007293249,-178.4792437,-61.45512557,0,2.123216629,2019-07-25 11:50:23:618
0.278511792,0.037834652,9.837188721,-0.00072136,-0.003885169,0.007026868,-178.4765595,-56.63030692,0,2.12626338,2019-07-25 11:50:23:621
0.292880297,-0.041192088,9.851556778,0.001143308,-0.006016218,0.006494106,-178.4717285,-59.09314554,0,2.129941463,2019-07-25 11:50:23:625
0.266538024,0.004308155,9.827610016,-0.003385172,-0.005217075,0.005428581,-178.4702677,-54.31116524,0,2.133201838,2019-07-25 11:50:23:628
0.22103779,-0.010060344,9.77013588,0.002475214,-0.00175412,0.004096676,-178.4746412,-56.82418616,0,2.136253834,2019-07-25 11:50:23:631
0.244985282,-0.024428841,9.760557175,0.000344164,-0.003885169,0.004096676,-178.4755817,-59.28490625,0,2.139970303,2019-07-25 11:50:23:635
0.278511792,-0.072323836,9.760557175,0.000876927,-0.003086026,0.006494106,-178.472821,-61.69087636,0,2.143201351,2019-07-25 11:50:23:638
0.163563803,0.011492404,9.801267624,-0.001520504,-0.002553263,0.007293249,-178.4838053,-56.85814164,0,2.146256447,2019-07-25 11:50:23:641
0.201879799,-0.031613089,9.786898613,0.000610546,-0.002819644,0.006227725,-178.4899065,-59.3174048,0,2.149974346,2019-07-25 11:50:23:645
0.249774784,-0.019639343,9.841978073,0.001409689,-0.005749837,0.005694962,-178.4899767,-61.72902903,0,2.153245926,2019-07-25 11:50:23:648
0.273722291,-0.036402591,9.808451653,-0.00072136,-0.002286882,0.004895819,-178.4878145,-64.09007188,0,2.156299829,2019-07-25 11:50:23:651
0.242590532,-0.02921834,9.82521534,0.001409689,-0.003618788,0.007293249,-178.4890245,-66.40515336,0,2.159971714,2019-07-25 11:50:23:655
0.209064037,-0.026823591,9.844372749,-0.00072136,-0.005749837,0.003297532,-178.4938569,-68.67379558,0,2.163239717,2019-07-25 11:50:23:658
0.216248289,0.013887154,9.868320465,0.000344164,-0.002286882,0.006760487,-178.4984752,-63.70199211,0,2.166337013,2019-07-25 11:50:23:661
0.209064037,-0.062744834,9.846767426,-0.001520504,-0.003352407,0.002232008,-178.503472,-66.02032955,0,2.170095682,2019-07-25 11:50:23:665
0.266538024,0.040229399,9.832399368,0.000344164,-0.003352407,0.003830295,-178.5017489,-61.10467282,0,2.173270941,2019-07-25 11:50:23:668
0.218643039,-0.014849843,9.861136436,0.001942451,-0.00175412,0.006494106,-178.5060139,-63.48118233,0,2.176283598,2019-07-25 11:50:23:671
0.211458787,-0.012455093,9.844372749,-0.000454979,-0.005217075,0.006227725,-178.5102152,-65.81001575,0,2.179928541,2019-07-25 11:50:23:675
0.175537542,-0.024428841,9.813241005,-0.00072136,-0.001487739,0.003830295,-178.5192425,-68.09083065,0,2.183191776,2019-07-25 11:50:23:678
0.225827292,-0.031613089,9.743793488,0.000610546,-0.00175412,0.003297532,-178.5220016,-70.32540147,0,2.186262369,2019-07-25 11:50:23:681
0.189906046,-0.014849843,9.841978073,0.000876927,-0.003352407,0.004895819,-178.5287539,-72.5173474,0,2.189977884,2019-07-25 11:50:23:685
0.187511295,0.025860902,9.832399368,-0.002319647,-0.003086026,0.000900102,-178.5357695,-67.46959456,0,2.193201303,2019-07-25 11:50:23:688
0.199485049,-0.000481345,9.839583397,-0.000454979,0.000376929,0.003297532,-178.5418899,-69.72006858,0,2.196255684,2019-07-25 11:50:23:691
0.266538024,-0.024428841,9.808451653,0.001409689,-0.00415155,0.001699245,-178.5390558,-71.92310674,0,2.199964046,2019-07-25 11:50:23:695
0.209064037,-0.02921834,9.789293289,0.000344164,-0.004950694,0.00036734,-178.5428961,-74.08128762,0,2.20323658,2019-07-25 11:50:23:698
0.22103779,-0.005270844,9.851556778,0.003007976,-0.004684313,0.006494106,-178.5455151,-76.19957318,0,2.206341505,2019-07-25 11:50:23:701
0.213853538,-0.005270844,9.909030914,-0.002852409,-0.002553263,0.002232008,-178.5493535,-78.27438633,0,2.209999323,2019-07-25 11:50:23:705
0.228222042,-0.026823591,9.739004135,-0.001254122,-0.002553263,0.00276477,-178.5510484,-80.30551177,0,2.213275671,2019-07-25 11:50:23:708
0.225827292,0.004308155,9.837188721,0.000610546,-0.000155833,0.00036734,-178.553699,-75.10000861,0,2.216345072,2019-07-25 11:50:23:711
0.216248289,-0.019639343,9.853952408,-0.000188598,-0.002819644,0.004363057,-178.5569074,-77.19568617,0,2.219971895,2019-07-25 11:50:23:715
0.182721794,-0.007665594,9.806056976,-0.001786885,-0.00175412,0.001432864,-178.5640979,-79.25054937,0,2.223233938,2019-07-25 11:50:23:718
0.22103779,-0.014849843,9.77013588,0.00167607,-0.002553263,0.003031151,-178.5664632,-81.26408041,0,2.226248741,2019-07-25 11:50:23:721
0.261748523,0.028255651,9.849162102,-0.000188598,-0.001487739,0.001699245,-178.564379,-76.04204712,0,2.229942799,2019-07-25 11:50:23:725
0.187511295,0.018676654,9.724635124,0.003540738,-0.003885169,-0.000698185,-178.5702855,-70.92405673,0,2.23321104,2019-07-25 11:50:23:728
0.261748523,0.042624149,9.719845772,-0.000987741,-0.003885169,0.003297532,-178.5673617,-65.91043117,0,2.236268044,2019-07-25 11:50:23:731
0.182721794,-0.002876094,9.844372749,-0.000188598,-0.003352407,-0.000165423,-178.5740488,-68.19184845,0,2.239979744,2019-07-25 11:50:23:735
0.213853538,0.021071402,9.897057533,-0.004184315,-0.003618788,-0.000698185,-178.5771546,-63.22969229,0,2.243209839,2019-07-25 11:50:23:738
0.201879799,-0.031613089,9.906636238,0.000876927,-0.003618788,-0.000964566,-178.5816458,-65.5615913,0,2.24624753,2019-07-25 11:50:23:741
0.168353304,-0.057955336,9.760557175,-0.000188598,-0.006282599,0.00036734,-178.5889364,-67.84351602,0,2.249970436,2019-07-25 11:50:23:745
0.230616793,-0.007665594,9.808451653,7.78E-05,-0.00175412,-0.00416114,-178.5898943,-70.08576456,0,2.253275394,2019-07-25 11:50:23:748
0.199485049,0.006702905,9.762951851,0.000876927,-0.00175412,-0.00176371,-178.5943826,-65.08498738,0,2.256349325,2019-07-25 11:50:23:751
0.218643039,-0.031613089,9.849162102,-0.001254122,-0.00175412,-0.001497328,-178.5967036,-67.37935421,0,2.259975672,2019-07-25 11:50:23:755
0.199485049,0.016281903,9.784503937,-0.00072136,-0.005749837,0.000633721,-178.600356,-62.43354175,0,2.263240337,2019-07-25 11:50:23:758
0.216248289,-0.02921834,9.849162102,-0.001254122,-0.004684313,-0.003095615,-178.6023841,-64.78125487,0,2.266316175,2019-07-25 11:50:23:761
0.240195796,-0.010060344,9.789293289,-0.000454979,-0.002819644,-0.001497328,-178.6016457,-67.08435861,0,2.269976854,2019-07-25 11:50:23:765
0.278511792,0.018676654,9.789293289,-0.001520504,-0.002020501,-0.003095615,-178.5966486,-62.14457858,0,2.27324605,2019-07-25 11:50:23:768
0.254564285,0.004308155,9.8036623,0.000610546,-0.007880886,-0.002562853,-178.593635,-57.30229378,0,2.276256561,2019-07-25 11:50:23:771
0.185116544,-0.02921834,9.841978073,7.78E-05,-0.00415155,-0.006292189,-178.5993559,-59.75286201,0,2.279926777,2019-07-25 11:50:23:775
0.194695547,-0.019639343,9.806056976,-0.000987741,-0.003885169,-0.00416114,-178.6039078,-62.15532867,0,2.283191919,2019-07-25 11:50:23:778
0.240195796,-0.041192088,9.899452209,0.003007976,-0.00175412,-0.001230947,-178.6037266,-64.50797603,0,2.286283255,2019-07-25 11:50:23:781
0.247380033,0.040229399,9.892268181,0.001143308,-0.002553263,-0.000964566,-178.6024726,-59.62271356,0,2.289973736,2019-07-25 11:50:23:785
0.211458787,-0.024428841,9.851556778,-0.001520504,-0.004950694,-0.00176371,-178.6049335,-62.02714231,0,2.293200254,2019-07-25 11:50:23:788
0.228222042,0.037834652,9.849162102,-0.003917934,-0.003618788,0.00036734,-178.6056693,-57.19033289,0,2.296238899,2019-07-25 11:50:23:791
0.209064037,-0.014849843,9.856347084,0.003807119,-0.004684313,-0.001230947,-178.6082712,-59.64559806,0,2.299973249,2019-07-25 11:50:23:795
0.185116544,-0.041192088,9.834794044,-0.001254122,-0.004950694,-0.003628378,-178.613632,-62.04765676,0,2.303236723,2019-07-25 11:50:23:798
0.273722291,-0.04837634,9.736609459,-0.00072136,-0.00415155,-0.004960283,-178.6084424,-64.4008867,0,2.306285381,2019-07-25 11:50:23:801
0.240195796,0.0450189,9.796478271,0.001942451,-0.004417931,-0.002562853,-178.6072621,-59.51853975,0,2.30999732,2019-07-25 11:50:23:805
0.192300797,-0.014849843,9.719845772,-0.001254122,-0.005749837,-0.003361996,-178.611398,-61.92618907,0,2.313251734,2019-07-25 11:50:23:808
0.235406294,-0.077113338,9.851556778,-0.002053266,-0.003086026,-0.000165423,-178.6112667,-64.27834548,0,2.31629014,2019-07-25 11:50:23:811
0.254564285,-0.057955336,9.834794044,0.001143308,-0.00654898,-0.001230947,-178.608034,-66.58626211,0,2.319969654,2019-07-25 11:50:23:815
0.182721794,-0.041192088,9.806056976,0.001143308,-0.002819644,-0.001230947,-178.6140084,-68.84993205,0,2.323221684,2019-07-25 11:50:23:818
0.230616793,-0.022034092,9.810846329,-0.000987741,-0.000954976,0.000900102,-178.6146355,-71.07019281,0,2.326232672,2019-07-25 11:50:23:821
0.233011544,-0.053165838,9.904241562,0.002475214,-0.004950694,-0.000964566,-178.6143434,-73.24316025,0,2.329992056,2019-07-25 11:50:23:825
0.225827292,0.03304515,9.777319908,-0.003917934,-0.00175412,0.00036734,-178.6152749,-68.18145733,0,2.333231449,2019-07-25 11:50:23:828
0.233011544,0.009097654,9.856347084,-0.003118791,-0.003885169,-0.001230947,-178.6152184,-63.21835146,0,2.336283207,2019-07-25 11:50:23:831
0.249774784,-0.036402591,9.863531113,-0.000454979,-0.006016218,0.001432864,-178.6126518,-65.54966075,0,2.339984655,2019-07-25 11:50:23:835
0.182721794,0.006702905,9.736609459,-0.003385172,-0.002286882,0.000900102,-178.6184835,-60.63884512,0,2.343200684,2019-07-25 11:50:23:838
0.235406294,-0.02921834,9.77013588,-0.000454979,-0.007614505,0.001699245,-178.6171957,-63.02256281,0,2.34627223,2019-07-25 11:50:23:841
0.142011046,-0.014849843,9.758161545,-0.001254122,-0.000954976,0.000900102,-178.6279776,-65.36010671,0,2.349978685,2019-07-25 11:50:23:845
0.244985282,-0.02921834,9.861136436,0.000344164,-0.005483456,-0.000431804,-178.625952,-67.64957224,0,2.353237629,2019-07-25 11:50:23:848
0.240195796,0.018676654,9.899452209,-0.002852409,-0.00415155,0.001965626,-178.6249248,-62.69825516,0,2.356281757,2019-07-25 11:50:23:851
0.211458787,0.001913405,9.777319908,0.001143308,-0.003618788,0.00276477,-178.626897,-57.84475123,0,2.359972239,2019-07-25 11:50:23:855
0.244985282,-0.012455093,9.87789917,0.001409689,-0.005749837,-0.000698185,-178.6248878,-60.28667042,0,2.363245726,2019-07-25 11:50:23:858
0.273722291,-0.096271336,9.851556778,-0.001254122,-0.003086026,0.001166483,-178.6200186,-62.66951951,0,2.366366386,2019-07-25 11:50:23:861
0.292880297,-0.072323836,9.846767426,0.001409689,-0.005217075,0.004895819,-178.6124867,-65.00799837,0,2.369976759,2019-07-25 11:50:23:865
0.247380033,-0.093876585,9.820425034,0.00167607,-0.005217075,0.005428581,-178.6104222,-67.29719133,0,2.373236418,2019-07-25 11:50:23:868
0.249774784,-0.04598159,9.796478271,0.001409689,-0.00175412,0.003031151,-178.6087064,-69.54610761,0,2.376251221,2019-07-25 11:50:23:871
0.252169549,-0.012455093,9.794083595,0.003007976,-0.004684313,0.000900102,-178.6060639,-71.75435164,0,2.379942417,2019-07-25 11:50:23:875
0.244985282,-0.019639343,9.889873505,-0.00072136,-0.002286882,0.004629438,-178.6051477,-73.91685818,0,2.383173227,2019-07-25 11:50:23:878
0.235406294,-0.014849843,9.810846329,0.000344164,-0.003618788,0.004629438,-178.6049355,-76.03684541,0,2.386219263,2019-07-25 11:50:23:881
0.290485531,-0.022034092,9.849162102,-0.001254122,-0.00415155,0.002498389,-178.5981737,-78.11328032,0,2.38997674,2019-07-25 11:50:23:885
0.240195796,-0.022034092,9.830004692,0.000876927,0.000110548,0.005961344,-178.5982354,-80.14860492,0,2.39320159,2019-07-25 11:50:23:888
0.225827292,0.018676654,9.913820267,-0.000188598,-0.00654898,0.009157917,-178.59905,-74.94775929,0,2.396253586,2019-07-25 11:50:23:891
0.225827292,-0.026823591,9.758161545,0.00167607,-0.00175412,0.006227725,-178.6001878,-77.04600457,0,2.39997673,2019-07-25 11:50:23:895
0.22103779,-0.02921834,9.887478828,-0.000188598,-0.003086026,0.007826011,-178.6020052,-79.10166363,0,2.403242111,2019-07-25 11:50:23:898
0.290485531,-0.041192088,9.767741203,0.00167607,-0.004684313,0.006494106,-178.5950939,-81.11508504,0,2.406293392,2019-07-25 11:50:23:901
0.273722291,-0.005270844,9.885084152,0.002741595,-0.00175412,0.005694962,-178.5911035,-83.09274396,0,2.410006762,2019-07-25 11:50:23:905
0.295275033,-0.038797341,9.818030357,0.003540738,-0.004950694,0.006760487,-178.5839241,-85.02700778,0,2.413260698,2019-07-25 11:50:23:908
0.22103779,-0.04837634,9.839583397,0.001409689,-0.002819644,0.007026868,-178.5860239,-86.92107574,0,2.416317701,2019-07-25 11:50:23:911
0.254564285,0.011492404,9.887478828,0.001409689,-0.007081743,0.009424299,-178.5833601,-81.58427419,0,2.419956684,2019-07-25 11:50:23:915
0.254564285,-0.012455093,9.822820663,0.001409689,-0.004950694,0.006494106,-178.581103,-83.55139182,0,2.423192263,2019-07-25 11:50:23:918
0.206669301,-0.036402591,9.731820107,-0.000987741,-0.005749837,0.009157917,-178.5841725,-85.4759098,0,2.426218271,2019-07-25 11:50:23:921
0.223432541,-0.000481345,9.791688919,0.000610546,-0.004950694,0.008092393,-178.5853088,-87.3664631,0,2.429947138,2019-07-25 11:50:23:925
0.271327525,-0.014849843,9.808451653,0.0040735,-0.004684313,0.006494106,-178.5810557,-89.21814331,0,2.433201551,2019-07-25 11:50:23:928
0.218643039,-0.005270844,9.782109261,0.000610546,-0.003885169,0.008358774,-178.5831603,-91.03326763,0,2.436253548,2019-07-25 11:50:23:931
0.247380033,-0.04598159,9.921005249,0.003807119,-0.004417931,0.011288966,-178.5820093,-92.8080844,0,2.439963818,2019-07-25 11:50:23:935
0.266538024,0.021071402,9.846767426,0.000344164,-0.000688595,0.009957061,-178.5792333,-87.35443738,0,2.443197727,2019-07-25 11:50:23:938
0.30245927,0.054597899,9.8036623,0.003540738,-0.003352407,0.009957061,-178.5717222,-82.01434743,0,2.446301699,2019-07-25 11:50:23:941
0.194695547,-0.04598159,9.760557175,0.002208833,-0.001487739,0.009157917,-178.5771253,-83.96911896,0,2.449984789,2019-07-25 11:50:23:945
0.151590049,0.006702905,9.789293289,0.001942451,-0.004417931,0.010223442,-178.5870324,-78.69087603,0,2.45323801,2019-07-25 11:50:23:948
0.163563803,-0.041192088,9.815635681,7.78E-05,-0.002553263,0.009424299,-178.5957605,-80.71226295,0,2.456292391,2019-07-25 11:50:23:951
0.254564285,0.016281903,9.798872948,0.001942451,-0.005749837,0.007293249,-178.5928946,-75.500323,0,2.459971189,2019-07-25 11:50:23:955
0.22103779,-0.012455093,9.861136436,0.002475214,-0.00654898,0.011022586,-178.594156,-77.58932246,0,2.463232517,2019-07-25 11:50:23:958
0.194695547,-0.02921834,9.851556778,-0.000188598,-0.005217075,0.009424299,-178.5987336,-79.63410502,0,2.466289759,2019-07-25 11:50:23:961
0.261748523,0.009097654,9.736609459,-0.000454979,-0.001221358,0.011288966,-178.5957083,-74.44239958,0,2.469971418,2019-07-25 11:50:23:965
0.211458787,0.025860902,9.815635681,-0.003651553,-0.003885169,0.011555348,-178.5983992,-69.35590122,0,2.473236561,2019-07-25 11:50:23:968
0.244985282,0.03304515,9.841978073,-0.000188598,0.001176073,0.008092393,-178.5981125,-64.3725987,0,2.476255655,2019-07-25 11:50:23:971
0.259353787,0.013887154,9.868320465,0.0040735,-0.005217075,0.012354491,-178.5949615,-59.48760206,0,2.479940176,2019-07-25 11:50:23:975
0.26893279,0.016281903,9.827610016,0.002741595,-0.004684313,0.007026868,-178.5908543,-54.70025056,0,2.483201504,2019-07-25 11:50:23:978
0.276117027,-0.022034092,9.839583397,0.001409689,-0.00415155,0.009157917,-178.5861685,-57.20392416,0,2.486292839,2019-07-25 11:50:23:981
0.233011544,-0.069929086,9.844372749,7.78E-05,-0.004417931,0.008092393,-178.5864036,-59.65172211,0,2.490014791,2019-07-25 11:50:23:985
0.209064037,0.016281903,9.813241005,-0.000188598,-0.003352407,0.012620872,-178.5896665,-54.86055519,0,2.493201494,2019-07-25 11:50:23:988
0.185116544,-0.04598159,9.820425034,7.78E-05,-0.003885169,0.009957061,-178.5956045,-57.3579921,0,2.496275187,2019-07-25 11:50:23:991
0.295275033,-0.002876094,9.818030357,-0.002852409,-0.004950694,0.008092393,-178.5882137,-59.80990546,0,2.499965906,2019-07-25 11:50:23:995
0.216248289,0.030650401,9.856347084,0.002475214,-0.006016218,0.008358774,-178.5902181,-55.0177209,0,2.503204346,2019-07-25 11:50:23:998
0.276117027,-0.017244592,9.880293846,-0.001786885,-0.003352407,0.005961344,-178.585822,-57.51505942,0,2.506264448,2019-07-25 11:50:24:001
0.22103779,0.030650401,9.813241005,0.000344164,-0.004417931,0.007293249,-178.5873758,-52.76840925,0,2.509985209,2019-07-25 11:50:24:005
0.192300797,0.054597899,9.830004692,-0.000188598,-0.002553263,0.005694962,-178.5927472,-48.11937117,0,2.513241291,2019-07-25 11:50:24:008
0.256959051,0.085729644,9.818030357,-0.001520504,-0.005217075,0.006494106,-178.5900154,-43.5667293,0,2.516288519,2019-07-25 11:50:24:011
0.223432541,0.013887154,9.880293846,0.000610546,-0.005749837,0.008358774,-178.5911171,-39.09713156,0,2.519970179,2019-07-25 11:50:24:015
0.22103779,-0.017244592,9.794083595,0.003540738,-0.003086026,0.005961344,-178.5928715,-41.91382078,0,2.52323699,2019-07-25 11:50:24:018
0.201879799,0.025860902,9.755766869,-0.000987741,-0.001221358,0.004895819,-178.5970957,-37.47841307,0,2.526282787,2019-07-25 11:50:24:021
0.225827292,-0.007665594,9.74858284,-0.00072136,-0.006282599,0.007826011,-178.5973219,-40.32779547,0,2.529943466,2019-07-25 11:50:24:025
0.230616793,0.028255651,9.913820267,-0.003385172,-0.002553263,0.005428581,-178.5981748,-35.92377761,0,2.533773184,2019-07-25 11:50:24:029
0.288090795,0.061782148,9.873109818,0.000344164,-0.004417931,0.0051622,-178.5921488,-31.61252213,0,2.536332607,2019-07-25 11:50:24:031
0.233011544,0.001913405,9.772530556,-0.002053266,-0.002819644,0.007826011,-178.5924066,-27.38007247,0,2.540006638,2019-07-25 11:50:24:035
0.213853538,-0.019639343,9.784503937,-0.001786885,-0.006016218,0.004096676,-178.5944308,-30.42984835,0,2.543221951,2019-07-25 11:50:24:038
0.240195796,-0.005270844,9.820425034,0.000610546,-0.006016218,0.006227725,-178.5934892,-33.42074096,0,2.54627347,2019-07-25 11:50:24:041
0.259353787,0.028255651,9.810846329,0.001143308,-0.002553263,0.002498389,-178.5908039,-29.15586368,0,2.549969435,2019-07-25 11:50:24:045
0.225827292,0.001913405,9.901846886,-0.001254122,-0.002020501,0.003563913,-178.5924888,-24.97273877,0,2.553222418,2019-07-25 11:50:24:048
0.30245927,0.061782148,9.774925232,-0.002852409,-0.002020501,0.001432864,-178.5848463,-20.88003712,0,2.556278706,2019-07-25 11:50:24:051
0.244985282,-0.000481345,9.889873505,-0.00072136,-0.000422214,0.003297532,-178.5846813,-24.06223022,0,2.559991598,2019-07-25 11:50:24:055
0.266538024,0.025860902,9.762951851,-0.003118791,0.00064331,0.001699245,-178.581828,-19.98345285,0,2.563235998,2019-07-25 11:50:24:058
0.22103779,0.0450189,9.851556778,-0.000188598,-0.003352407,0.000900102,-178.5839084,-15.98898783,0,2.566299677,2019-07-25 11:50:24:061
0.247380033,0.009097654,9.806056976,0.000876927,-0.004950694,-0.000964566,-178.5823098,-12.07045157,0,2.56996274,2019-07-25 11:50:24:065
0.244985282,-0.012455093,9.837188721,-0.003118791,-0.003618788,0.000900102,-178.5814731,-15.42702418,0,2.573203325,2019-07-25 11:50:24:068
0.249774784,0.009097654,9.8036623,-0.001786885,-0.002553263,0.000633721,-178.5802201,-11.51924295,0,2.576234579,2019-07-25 11:50:24:071
0.218643039,0.016281903,9.85874176,0.001409689,-0.003086026,-0.00176371,-178.5825629,-7.691044465,0,2.579947233,2019-07-25 11:50:24:075
0.197090298,-0.053165838,9.873109818,-0.000987741,0.000376929,-0.00176371,-178.5881084,-11.13087248,0,2.583201647,2019-07-25 11:50:24:078
0.228222042,0.016281903,9.789293289,-0.001786885,-0.003086026,-0.003361996,-178.5891053,-7.309853787,0,2.58626318,2019-07-25 11:50:24:081
0.26893279,-0.000481345,9.822820663,-0.001254122,-0.001487739,-0.003361996,-178.5856479,-10.76333937,0,2.589972258,2019-07-25 11:50:24:085
0.175537542,0.021071402,9.830004692,-0.002586028,-0.001221358,-0.002296472,-178.5932533,-6.950061333,0,2.593192577,2019-07-25 11:50:24:088
0.233011544,-0.02921834,9.846767426,-0.00072136,-0.00175412,-0.003628378,-178.5939704,-10.40753389,0,2.596302032,2019-07-25 11:50:24:091
0.240195796,0.011492404,9.760557175,-0.002053266,-0.003885169,-0.00416114,-178.5930936,-6.600307854,0,2.599984884,2019-07-25 11:50:24:095
0.261748523,0.037834652,9.818030357,7.78E-05,-0.002819644,-0.004427521,-178.5901703,-2.872731869,0,2.603260517,2019-07-25 11:50:24:098
0.261748523,0.006702905,9.688714027,-0.001520504,-0.000688595,-0.006292189,-178.5872978,0.784192109,0,2.606330633,2019-07-25 11:50:24:101
0.247380033,-0.019639343,9.82521534,-0.000454979,-0.004417931,-0.004427521,-178.5858028,-2.829108179,0,2.609971762,2019-07-25 11:50:24:105
0.249774784,-0.000481345,9.739004135,7.78E-05,-0.00415155,-0.004693902,-178.5839429,-6.372483639,0,2.613236904,2019-07-25 11:50:24:108
0.201879799,-0.022034092,9.846767426,-0.001520504,-0.003885169,-0.00416114,-178.5881061,-9.842208519,0,2.616296768,2019-07-25 11:50:24:111
0.28569603,-0.024428841,9.750977516,0.001143308,-0.002553263,-0.007624094,-178.5822522,-13.24272948,0,2.619972229,2019-07-25 11:50:24:115
0.259353787,0.042624149,9.801267624,0.000610546,-0.003352407,-0.008956001,-178.5796841,-9.382968962,0,2.62320137,2019-07-25 11:50:24:118
0.213853538,-0.03400784,9.77013588,-0.002586028,-0.003618788,-0.007091332,-178.5824016,-12.79088466,0,2.626205683,2019-07-25 11:50:24:121
0.216248289,0.028255651,9.837188721,-0.002852409,-0.000155833,-0.008423238,-178.5855345,-8.937760188,0,2.629940748,2019-07-25 11:50:24:125
0.240195796,0.078545392,9.772530556,-0.00072136,-0.006016218,-0.006824951,-178.5845781,-5.168084674,0,2.633156538,2019-07-25 11:50:24:128
0.242590532,-0.010060344,9.741398811,0.000344164,-0.003086026,-0.007357713,-178.5838138,-8.663599978,0,2.636283636,2019-07-25 11:50:24:131
0.273722291,0.001913405,9.868320465,-0.002586028,-0.003086026,-0.008689619,-178.5797038,-4.889999574,0,2.640075445,2019-07-25 11:50:24:135
0.278511792,0.006702905,9.784503937,-0.000454979,-0.002553263,-0.011886192,-178.5750458,-1.192903568,0,2.643247128,2019-07-25 11:50:24:138
0.295275033,0.006702905,9.765346527,-0.000188598,-0.003618788,-0.010287906,-178.5682514,2.430202085,0,2.646470547,2019-07-25 11:50:24:141
0.249774784,0.001913405,9.822820663,-0.000188598,-0.004950694,-0.012951718,-178.566775,5.981412135,0,2.64999342,2019-07-25 11:50:24:145
0.297669768,-0.031613089,9.875504494,0.00167607,-0.003885169,-0.010021525,-178.5602166,2.265153202,0,2.65316987,2019-07-25 11:50:24:148
0.292880297,0.023466153,9.798872948,0.002208833,-0.003352407,-0.011619812,-178.5541852,5.816719358,0,2.656286716,2019-07-25 11:50:24:151
0.292880297,0.037834652,9.801267624,-0.000454979,0.000110548,-0.010021525,-178.5488931,9.296058306,0,2.660073996,2019-07-25 11:50:24:155
0.235406294,-0.02921834,9.808451653,0.001409689,-0.001487739,-0.010554287,-178.5501536,5.513300037,0,2.663240671,2019-07-25 11:50:24:158
0.254564285,-0.024428841,9.841978073,-0.00072136,-0.003885169,-0.014017243,-178.5488077,1.806010181,0,2.666496277,2019-07-25 11:50:24:161
0.264143288,0.001913405,9.712661743,7.78E-05,-0.003086026,-0.013218099,-178.5460678,5.369648924,0,2.67000103,2019-07-25 11:50:24:165
0.228222042,0.016281903,9.832399368,-0.00072136,-0.003352407,-0.016414672,-178.5479556,8.860486948,0,2.673175335,2019-07-25 11:50:24:168
0.233011544,-0.043586839,9.885084152,0.00167607,-0.003352407,-0.014017243,-178.5494138,5.08804189,0,2.676235914,2019-07-25 11:50:24:171
0.225827292,-0.017244592,9.841978073,0.003274357,-0.006016218,-0.014017243,-178.5508553,1.387591414,0,2.680029392,2019-07-25 11:50:24:175
0.237801045,0.016281903,9.753372192,-0.001786885,-0.002286882,-0.016414672,-178.5514973,4.958244985,0,2.683202267,2019-07-25 11:50:24:178
0.278511792,-0.024428841,9.820425034,-0.000454979,-0.005483456,-0.016947434,-178.5470134,1.262010586,0,2.686332941,2019-07-25 11:50:24:181
0.242590532,-0.007665594,9.779714584,-0.001786885,-0.005483456,-0.01348448,-178.5464225,-2.361930123,0,2.690332651,2019-07-25 11:50:24:185
0.218643039,-0.10106083,9.820425034,0.000344164,-0.007081743,-0.016148292,-178.5485685,-5.902968318,0,2.693896055,2019-07-25 11:50:24:189
0.240195796,-0.074718587,9.794083595,-0.001520504,-0.002819644,-0.016681054,-178.5491099,-9.375956778,0,2.696358204,2019-07-25 11:50:24:191
0.295275033,-0.069929086,9.760557175,-0.003118791,-0.002020501,-0.017746577,-178.5430576,-12.77958803,0,2.700012207,2019-07-25 11:50:24:195
0.182721794,-0.022034092,9.698293686,0.000876927,-0.002819644,-0.016681054,-178.5501099,-16.1215481,0,2.703166008,2019-07-25 11:50:24:198
0.235406294,-0.019639343,9.801267624,0.006470931,-0.003885169,-0.017213816,-178.550878,-19.39800763,0,2.706431866,2019-07-25 11:50:24:201
0.314433038,-0.014849843,9.806056976,-0.003118791,-0.003352407,-0.019078484,-178.5424543,-22.60768442,0,2.710016489,2019-07-25 11:50:24:205
0.33598578,-0.110639833,9.719845772,-0.003385172,-0.006016218,-0.015615529,-178.530944,-25.7418876,0,2.713172436,2019-07-25 11:50:24:208
0.288090795,0.009097654,9.789293289,-0.003917934,-0.005483456,-0.017746577,-178.5256455,-21.62742456,0,2.716310024,2019-07-25 11:50:24:211
0.309643537,-0.007665594,9.765346527,-0.001520504,-0.002819644,-0.015615529,-178.518166,-24.79362949,0,2.720375061,2019-07-25 11:50:24:215
0.28569603,-0.060350087,9.789293289,-0.003118791,-0.00175412,-0.019611246,-178.5140207,-27.89007297,0,2.723912954,2019-07-25 11:50:24:219
0.33598578,-0.10106083,9.789293289,-0.002319647,0.003040741,-0.017480197,-178.504836,-30.92012912,0,2.726314783,2019-07-25 11:50:24:221
0.278511792,-0.077113338,9.849162102,-0.002053266,-0.000954976,-0.01135343,-178.5021471,-33.89233163,0,2.729985714,2019-07-25 11:50:24:225
0.249774784,0.001913405,9.849162102,0.000610546,-0.003352407,-0.014550005,-178.5024576,-29.61481549,0,2.733132601,2019-07-25 11:50:24:228
0.300064534,-0.002876094,9.779714584,-0.000188598,-0.005483456,-0.013750861,-178.4962407,-32.62214712,0,2.736443758,2019-07-25 11:50:24:231
0.266538024,-0.04837634,9.827610016,0.002208833,-0.000688595,-0.016947434,-178.4951072,-35.56450456,0,2.740000248,2019-07-25 11:50:24:235
0.264143288,-0.065139584,9.839583397,-0.003651553,0.001975216,-0.015615529,-178.4947978,-38.44498615,0,2.74313283,2019-07-25 11:50:24:238
0.230616793,-0.017244592,9.837188721,0.000610546,-0.009745554,-0.011619812,-178.4962136,-41.27419222,0,2.74647522,2019-07-25 11:50:24:241
0.288090795,0.004308155,9.695898056,-0.000454979,-0.00654898,-0.01588191,-178.4909491,-36.84912708,0,2.750016212,2019-07-25 11:50:24:245
0.194695547,-0.038797341,9.789293289,0.000344164,-0.000422214,-0.016681054,-178.4982679,-39.70766375,0,2.753158808,2019-07-25 11:50:24:248
0.288090795,-0.117824078,9.822820663,-0.004983458,-0.00415155,-0.015082767,-178.4939332,-42.49884069,0,2.756465435,2019-07-25 11:50:24:251
0.28569603,0.001913405,9.827610016,0.001409689,0.000110548,-0.01588191,-178.4907733,-38.0493677,0,2.760011911,2019-07-25 11:50:24:255
0.288090795,0.040229399,9.758161545,-0.00072136,-0.005217075,-0.014550005,-178.4862197,-33.69297772,0,2.763142347,2019-07-25 11:50:24:258
0.259353787,-0.065139584,9.837188721,0.001942451,-0.002286882,-0.014283623,-178.4858664,-36.61189063,0,2.766446114,2019-07-25 11:50:24:261
0.290485531,-0.077113338,9.868320465,0.000344164,-0.004684313,-0.01348448,-178.4814926,-39.47076723,0,2.770000219,2019-07-25 11:50:24:265
0.283301294,-0.105850331,9.741398811,-0.002586028,-0.003618788,-0.017213816,-178.4779081,-42.26844467,0,2.773141623,2019-07-25 11:50:24:268
0.30245927,-0.017244592,9.779714584,0.00167607,-0.004417931,-0.01108705,-178.4721139,-45.02136149,0,2.776396275,2019-07-25 11:50:24:271
0.264143288,-0.067534335,9.798872948,-0.004450696,-0.006016218,-0.013218099,-178.4705862,-47.71214669,0,2.779957533,2019-07-25 11:50:24:275
0.271327525,-0.072323836,9.889873505,-0.002319647,-0.004684313,-0.01588191,-178.4689222,-50.34911681,0,2.7830832,2019-07-25 11:50:24:278
0.316827774,-0.000481345,9.839583397,0.001942451,-0.00415155,-0.013218099,-178.4619459,-52.94241197,0,2.786141396,2019-07-25 11:50:24:281
0.22103779,0.004308155,9.837188721,0.001143308,-0.000688595,-0.010820668,-178.4668117,-48.28431682,0,2.790055037,2019-07-25 11:50:24:285
0.28569603,-0.086692333,9.818030357,0.001143308,-0.004950694,-0.01348448,-178.463008,-50.90877379,0,2.794126511,2019-07-25 11:50:24:289
0.237801045,-0.012455093,9.753372192,-0.003385172,-0.003352407,-0.010554287,-178.4653761,-53.48869254,0,2.796454191,2019-07-25 11:50:24:291
0.240195796,0.0450189,9.813241005,0.001143308,-0.003352407,-0.011619812,-178.4673613,-48.82440231,0,2.799985409,2019-07-25 11:50:24:295
0.249774784,0.025860902,9.784503937,0.002741595,-0.003352407,-0.011886192,-178.4681514,-44.25144718,0,2.803260803,2019-07-25 11:50:24:298
0.288090795,0.016281903,9.873109818,0.002475214,-0.004684313,-0.009222381,-178.464558,-39.76873219,0,2.806313038,2019-07-25 11:50:24:301
0.261748523,0.006702905,9.806056976,0.001143308,-0.004684313,-0.010554287,-178.463723,-35.37437605,0,2.809977055,2019-07-25 11:50:24:305
0.233011544,0.004308155,9.808451653,-0.002053266,-0.006815362,-0.008689619,-178.4659842,-31.0670162,0,2.813235283,2019-07-25 11:50:24:308
0.264143288,-0.031613089,9.818030357,-0.001786885,-0.003352407,-0.009488763,-178.465264,-34.04167791,0,2.816307545,2019-07-25 11:50:24:311
0.254564285,-0.041192088,9.806056976,-0.000188598,-0.003352407,-0.008423238,-178.4655292,-36.95599203,0,2.819964409,2019-07-25 11:50:24:315
0.230616793,-0.043586839,9.77013588,0.000610546,-0.00175412,-0.008156857,-178.4688543,-39.81187169,0,2.823221684,2019-07-25 11:50:24:318
0.22103779,0.011492404,9.765346527,0.000876927,0.001176073,-0.008423238,-178.4737434,-35.41713157,0,2.826242208,2019-07-25 11:50:24:321
0.288090795,0.03304515,9.779714584,0.003540738,-0.003086026,-0.001497328,-178.4698794,-31.11339808,0,2.829950094,2019-07-25 11:50:24:325
0.261748523,-0.007665594,9.683924675,-0.004717077,-0.004950694,-0.006292189,-178.4686098,-34.08935942,0,2.833210707,2019-07-25 11:50:24:328
0.264143288,-0.050771087,9.734214783,0.000876927,-0.002819644,-0.006292189,-178.4676682,-37.0017454,0,2.836255074,2019-07-25 11:50:24:331
0.213853538,-0.050771087,9.827610016,0.00167607,-0.006815362,-0.006824951,-178.4719603,-39.85614044,0,2.839972973,2019-07-25 11:50:24:335
0.259353787,0.021071402,9.762951851,0.003807119,-0.004950694,-0.002296472,-178.4711919,-35.46217912,0,2.843192577,2019-07-25 11:50:24:338
0.209064037,0.037834652,9.875504494,0.002208833,-0.000954976,-0.002030091,-178.4773334,-31.15774045,0,2.846536636,2019-07-25 11:50:24:341
0.187511295,0.028255651,9.743793488,-0.002053266,-0.00415155,-0.002296472,-178.4849092,-26.93749909,0,2.850088835,2019-07-25 11:50:24:345
0.211458787,-0.000481345,9.861136436,0.002741595,-0.003618788,-0.003894759,-178.4899797,-29.99919511,0,2.853349447,2019-07-25 11:50:24:348
0.206669301,0.013887154,9.796478271,0.001409689,-0.002020501,-0.00176371,-178.4957152,-25.80104064,0,2.855939627,2019-07-25 11:50:24:351
0.199485049,0.009097654,9.861136436,-0.000987741,-0.004684313,-0.000964566,-178.5016415,-21.68587009,0,2.859670877,2019-07-25 11:50:24:355
0.237801045,-0.007665594,9.856347084,0.001942451,-0.003618788,-0.000964566,-178.5032363,-24.85165358,0,2.863265991,2019-07-25 11:50:24:358
0.261748523,-0.002876094,9.861136436,0.002741595,-0.008147267,-0.004693902,-178.5013636,-27.95475693,0,2.866323233,2019-07-25 11:50:24:361
0.213853538,0.056992646,9.856347084,7.78E-05,-0.005749837,0.000633721,-178.505297,-23.80230374,0,2.869978905,2019-07-25 11:50:24:365
0.247380033,-0.031613089,9.774925232,0.00167607,-0.004417931,-0.002030091,-178.5053775,-26.92286255,0,2.873282194,2019-07-25 11:50:24:368
0.309643537,-0.002876094,9.750977516,-0.002586028,-0.003885169,-0.000165423,-178.4982323,-29.98362722,0,2.876312971,2019-07-25 11:50:24:371
0.189906046,-0.010060344,9.880293846,0.001942451,-0.005483456,0.002232008,-178.5051312,-32.98318244,0,2.879930496,2019-07-25 11:50:24:375
0.218643039,-0.000481345,9.815635681,-0.000987741,-0.002819644,0.004096676,-178.5089911,-35.92328166,0,2.883192778,2019-07-25 11:50:24:378
0.209064037,-0.012455093,9.767741203,0.004339882,-0.00175412,0.000900102,-178.5139875,-38.80409938,0,2.886248112,2019-07-25 11:50:24:381
0.206669301,-0.017244592,9.74858284,-0.003917934,-0.004417931,0.006494106,-178.5184915,-41.62516872,0,2.889982939,2019-07-25 11:50:24:385
0.295275033,-0.072323836,9.69350338,0.000344164,-0.002020501,0.004363057,-178.5128591,-44.38417835,0,2.893222094,2019-07-25 11:50:24:388
0.244985282,-0.038797341,9.798872948,0.000610546,-0.004417931,0.002498389,-178.5132005,-47.09206245,0,2.896277428,2019-07-25 11:50:24:391
0.256959051,0.052203149,9.832399368,-0.000454979,-0.000954976,0.003563913,-178.5127978,-42.55621069,0,2.899974823,2019-07-25 11:50:24:395
0.233011544,-0.002876094,9.772530556,0.003807119,-0.006815362,0.004363057,-178.5139782,-45.30544533,0,2.903231144,2019-07-25 11:50:24:398
0.259353787,-0.038797341,9.870715141,0.000610546,-0.003352407,0.005694962,-178.5130178,-47.99493778,0,2.90630579,2019-07-25 11:50:24:401
