ACCELEROMETER X (m/s²),ACCELEROMETER Y (m/s²),ACCELEROMETER Z (m/s²),GYROSCOPE X (rad/s),GYROSCOPE Y (rad/s),GYROSCOPE Z (rad/s),Time since start in ms ,YYYY-MO-DD HH-MI-SS_SSS,Pitch (Deg),Roll (Deg),Heading (Deg),MagX,MagY,MagZ
0.18354080617427826,0.015506003983318806,9.774005889892578,-0.0010476770398270016,-0.004554851225741058,-0.003670998514362848,0.0,2019-07-26 15:22:14:858,-3.5784839955269976,3.5981820599454872,0,-47.08082962036133,32.38681411743164,-22.190963745117188
0.23862004280090332,-0.03238898888230324,9.817111015319824,0.0024152777488700805,-0.0018910396897744866,0.001656624297495969,0.009996652603149414,2019-07-26 15:22:14:868,-7.078005090257312,-0.07135666754420988,0,-47.08082962036133,32.38681411743164,-22.190963745117188
0.2601727843284607,-0.051546987146139145,9.79076862335205,0.0018825154936916314,-0.004022088970562609,0.0024557676802636425,0.020020246505737305,2019-07-26 15:22:14:878,-10.503737697190383,-3.6649560331734943,0,-47.08082962036133,32.38681411743164,-22.190963745117188
0.23143579065799713,-0.025204740464687347,9.805137634277344,0.0002842286956469933,0.0018382962265118203,-0.0007408059808442149,0.029996156692504883,2019-07-26 15:22:14:888,-13.867650033957393,-7.188870478424713,0,-47.08082962036133,32.38681411743164,-22.190963745117188
0.22904103994369507,-0.04915223643183708,9.795557975769043,0.0032144211316377544,-0.005353994608508731,-0.0007408059808442149,0.039995431900024414,2019-07-26 15:22:14:898,-17.160501921046084,-10.64114789412297,0,-47.08082962036133,32.38681411743164,-22.190963745117188
0.24340954422950745,-0.02041524089872837,9.795557975769043,-0.0005149147521392618,-0.010148855425263423,0.0013902431699067445,0.05000019073486328,2019-07-26 15:22:14:908,-20.383121636660157,-14.025647438233099,0,-47.08082962036133,32.38681411743164,-22.190963745117188
0.24819904565811157,-0.022809991613030434,9.795557975769043,0.0016161343661024066,-0.0029565642001313846,0.002988529935442092,0.059993743896484375,2019-07-26 15:22:14:918,-23.544771263249043,-17.343372981001902,0,-47.08082962036133,32.38681411743164,-22.190963745117188
0.3032782971858978,-0.03957323729991913,9.838664054870605,0.0018825154936916314,-0.002423801944952936,-0.00047442482074569963,0.07001614570617676,2019-07-26 15:22:14:928,-26.637199988997114,-20.592955823422297,0,-47.08082962036133,32.38681411743164,-22.190963745117188
0.2721465528011322,-0.029994240030646324,9.857821464538574,0.0037471836468905284,-0.003755707842973384,0.005918722598997886,0.07999348640441895,2019-07-26 15:22:14:938,-29.670724489724673,-23.779709329086195,0,-47.08082962036133,32.38681411743164,-22.190963745117188
0.21706730127334595,-0.029994240030646324,9.793163299560547,-0.00024853360829539187,-0.003755707842973384,0.0032549110630313164,0.09002089500427246,2019-07-26 15:22:14:948,-32.64980011943232,-26.900465539919743,0,-47.08082962036133,32.38681411743164,-22.190963745117188
0.26975178718566895,-0.025204740464687347,9.771611213684082,0.0013497532385131823,-0.004554851225741058,-0.0015399493636118885,0.10000061988830566,2019-07-26 15:22:14:958,-35.56262603440358,-29.96025682699071,0,-47.08082962036133,32.38681411743164,-22.190963745117188
0.2721465528011322,-0.02041524089872837,9.752452850341797,0.0024152777488700805,-0.005087613480919507,0.0019230054250851934,0.10999870300292969,2019-07-26 15:22:14:968,-38.41654838339499,-32.96000881337243,0,-47.08082962036133,32.38681411743164,-22.190963745117188
0.2577780485153198,-0.08986297994852066,9.833874702453613,-0.002912345062988736,-0.004554851225741058,-0.005269285279898195,0.12001824378967285,2019-07-26 15:22:14:978,-41.21562355365777,-35.88869895828611,0,-47.08082962036133,32.38681411743164,-22.190963745117188
0.2529885470867157,-0.037178490310907364,9.814716339111328,-0.0007812959122377771,-0.003755707842973384,0.001656624297495969,0.13001370429992676,2019-07-26 15:22:14:988,-43.95967211812274,-38.766145733921604,0,-47.08082962036133,32.38681411743164,-22.190963745117188
0.2673570513725281,-0.051546987146139145,9.81950569152832,-0.00024853360829539187,0.0005063905560564065,-0.0007408059808442149,0.1399993896484375,2019-07-26 15:22:14:998,-46.64957030897911,-41.58466809836659,0,-47.08082962036133,32.38681411743164,-22.190963745117188
0.23622529208660126,-0.04915223643183708,9.776400566101074,0.0005506098557455085,-0.0005591340518283637,-0.0026054740040059496,0.14999914169311523,2019-07-26 15:22:15:008,-49.2885818056003,-44.34752269127379,0,-47.08082962036133,32.38681411743164,-22.190963745117188
0.25538328289985657,-0.06591548770666122,9.752452850341797,0.0013497532385131823,-0.003755707842973384,-0.0031382362591843983,0.16001653671264648,2019-07-26 15:22:15:018,-51.870696934546515,-47.05358647243717,0,-47.08082962036133,32.38681411743164,-22.190963745117188
0.2338305413722992,-0.05394173786044121,9.745268821716309,-0.002379582807810287,-0.001624658562185262,0.0005910997871390706,0.1699998378753662,2019-07-26 15:22:15:028,-54.404882150551835,-49.704838066700106,0,-47.08082962036133,32.38681411743164,-22.190963745117188
0.23143579065799713,-0.008441492915153503,9.83626937866211,0.00294804000404853,-0.005353994608508731,0.00432043583346254,0.17998671531677246,2019-07-26 15:22:15:038,-56.88682512641804,-52.311411028333424,0,-47.08082962036133,32.38681411743164,-22.190963745117188
0.22904103994369507,-0.02041524089872837,9.802742958068848,0.0021488966212808557,-0.0032229453277206094,-0.0015399493636118885,0.1900005340576172,2019-07-26 15:22:15:048,-59.320507002360216,-54.86400459165068,0,-47.08082962036133,32.38681411743164,-22.190963745117188
0.23862004280090332,-0.051546987146139145,9.821900367736816,0.006677376050372,-0.006685900246454855,-0.0020727116187903376,0.1999974250793457,2019-07-26 15:22:15:058,-61.70250971477062,-57.36445876894561,0,-47.08082962036133,32.38681411743164,-22.190963745117188
0.24340954422950745,-0.022809991613030434,9.853032112121582,-0.003977869573345634,-0.005087613480919507,-0.001273568236022664,0.21001458168029785,2019-07-26 15:22:15:068,-64.03729496151854,-59.812279377467206,0,-47.08082962036133,32.38681411743164,-22.190963745117188
0.23143579065799713,-0.044362738728523254,9.774005889892578,0.000816990983334733,-0.0005591340518283637,0.001656624297495969,0.21999335289001465,2019-07-26 15:22:15:078,-66.3291070493215,-62.211290453061125,0,-47.08082962036133,32.38681411743164,-22.190963745117188
0.27454128861427307,-0.04196798801422119,9.769216537475586,-0.0015804392950054507,-0.0018910396897744866,0.0008574809147282953,0.2299966812133789,2019-07-26 15:22:15:088,-68.56926789884595,-64.56125417745166,0,-48.130401611328125,32.836631774902344,-22.041025161743164
0.24340954422950745,-0.04196798801422119,9.781189918518066,-0.0018468204225946753,-0.0008255151794175883,-0.0018063304912011133,0.24000000953674316,2019-07-26 15:22:15:098,-70.76890809316308,-66.86407503091752,0,-48.130401611328125,32.836631774902344,-22.041025161743164
0.2338305413722992,-0.051546987146139145,9.872190475463867,0.0002842286956469933,-0.004554851225741058,0.0013902431699067445,0.24999403953552246,2019-07-26 15:22:15:108,-72.92383708367338,-69.12096976124522,0,-48.130401611328125,32.836631774902344,-22.041025161743164
0.25059378147125244,-0.015625741332769394,9.79076862335205,0.0013497532385131823,-0.0029565642001313846,0.002988529935442092,0.260021448135376,2019-07-26 15:22:15:118,-75.03437248784057,-71.33748148623712,0,-48.130401611328125,32.836631774902344,-22.041025161743164
0.2529885470867157,-0.010836242698132992,9.771611213684082,0.00294804000404853,-0.0032229453277206094,0.0005910997871390706,0.27031517028808594,2019-07-26 15:22:15:129,-77.10216089613857,-73.51116503312507,0,-48.130401611328125,32.836631774902344,-22.041025161743164
0.2074882984161377,-0.029994240030646324,9.776400566101074,-0.0010476770398270016,-0.002157420817363711,0.0003247186270405554,0.2799830436706543,2019-07-26 15:22:15:138,-79.1346299673322,-75.6368573147236,0,-48.130401611328125,32.836631774902344,-22.041025161743164
0.25538328289985657,-0.03957323729991913,9.795557975769043,0.0021488966212808557,-0.005087613480919507,0.001656624297495969,0.29000377655029297,2019-07-26 15:22:15:148,-81.1192059730565,-77.72069989435896,0,-48.130401611328125,32.836631774902344,-22.041025161743164
0.23862004280090332,-0.029994240030646324,9.802742958068848,-0.0018468204225946753,-0.002157420817363711,0.00432043583346254,0.29999399185180664,2019-07-26 15:22:15:158,-83.06772308460368,-79.76174368494355,0,-48.130401611328125,32.836631774902344,-22.041025161743164
0.24340954422950745,-0.015625741332769394,9.812321662902832,-0.0026459639353995116,-0.0013582774345960375,0.008316152747300909,0.31001949310302734,2019-07-26 15:22:15:168,-84.97718365881522,-81.76319449281111,0,-48.130401611328125,32.836631774902344,-22.041025161743164
0.2913045287132263,-0.02759948931634426,9.80753231048584,0.0024152777488700805,-0.001624658562185262,0.0013902431699067445,0.3200244903564453,2019-07-26 15:22:15:178,-86.84270116443274,-83.72606273012813,0,-48.130401611328125,32.836631774902344,-22.041025161743164
0.28172552585601807,-0.04915223643183708,9.795557975769043,-0.0005149147521392618,-0.005353994608508731,-0.0007408059808442149,0.3299877643585205,2019-07-26 15:22:15:188,-88.66990385391338,-85.64550347642215,0,-48.130401611328125,32.836631774902344,-22.041025161743164
0.19551454484462738,-0.02759948931634426,9.843453407287598,0.0021488966212808557,-0.004288470098151833,0.001656624297495969,0.3399980068206787,2019-07-26 15:22:15:198,-90.4713377064253,-87.53058828729667,0,-48.130401611328125,32.836631774902344,-22.041025161743164
0.27693602442741394,-0.03957323729991913,9.76682186126709,0.0010833721109239577,-0.0005591340518283637,-0.00047442482074569963,0.3500173091888428,2019-07-26 15:22:15:208,-92.22911291958248,-89.37594300898066,0,-48.130401611328125,32.836631774902344,-22.041025161743164
0.25538328289985657,-0.04196798801422119,9.745268821716309,0.0016161343661024066,-0.004554851225741058,0.0005910997871390706,0.35999321937561035,2019-07-26 15:22:15:218,-93.95195643183862,-91.18439456644903,0,-48.130401611328125,32.836631774902344,-22.041025161743164
0.26975178718566895,0.013111254200339317,9.7500581741333,-0.003178726190577961,-0.00029275289172984846,5.833747100570152e-05,0.3699986934661865,2019-07-26 15:22:15:228,-95.64105723275351,-85.76046180066125,0,-48.130401611328125,32.836631774902344,-22.041025161743164
0.3200415372848511,-0.022809991613030434,9.774005889892578,-0.0026459639353995116,0.00024000941221253666,-0.004203760769541297,0.37999987602233887,2019-07-26 15:22:15:238,-97.29086223589984,-87.6410924192469,0,-48.130401611328125,32.836631774902344,-22.041025161743164
0.23862004280090332,-0.018020492047071457,9.793163299560547,0.003480802519301304,0.002371058611727432,0.0003247186270405554,0.3899974822998047,2019-07-26 15:22:15:248,-98.91846018346409,-89.48811596120188,0,-48.130401611328125,32.836631774902344,-22.041025161743164
0.25059378147125244,-0.04196798801422119,9.841058731079102,0.0016161343661024066,-0.00588675686368718,0.0024557676802636425,0.40001988410949707,2019-07-26 15:22:15:258,-100.50760475533274,-91.2943763123386,0,-48.130401611328125,32.836631774902344,-22.041025161743164
0.219462051987648,-0.05633648484945297,9.785979270935059,0.0002842286956469933,0.0007727717161549218,-0.00020804367690182974,0.40999555587768555,2019-07-26 15:22:15:268,-102.07219132192425,-93.06205119235628,0,-48.130401611328125,32.836631774902344,-22.041025161743164
0.24819904565811157,-0.025204740464687347,9.802742958068848,0.0021488966212808557,-0.004022088970562609,0.0013902431699067445,0.419994592666626,2019-07-26 15:22:15:278,-103.59948167921337,-94.7990702915871,0,-48.130401611328125,32.836631774902344,-22.041025161743164
0.22185680270195007,-0.02041524089872837,9.783584594726562,0.0021488966212808557,-0.0018910396897744866,0.003521292450694866,0.4299943447113037,2019-07-26 15:22:15:288,-105.10044943006966,-96.50190429910872,0,-48.130401611328125,32.836631774902344,-22.041025161743164
0.20988304913043976,-0.008441492915153503,9.84824275970459,0.0037471836468905284,-0.004288470098151833,0.0027221488078528673,0.43999671936035156,2019-07-26 15:22:15:298,-106.57161415702069,-98.17298852163778,0,-48.130401611328125,32.836631774902344,-22.041025161743164
0.2673570513725281,-0.01323099248111248,9.824295043945312,-0.00024853360829539187,0.0007727717161549218,0.0003247186270405554,0.45001721382141113,2019-07-26 15:22:15:308,-108.0094395748205,-99.80784563866911,0,-48.130401611328125,32.836631774902344,-22.041025161743164
0.24340954422950745,-0.022809991613030434,9.805137634277344,-0.0010476770398270016,-0.0034893267153841595,-0.0026054740040059496,0.46001601219177246,2019-07-26 15:22:15:318,-109.4188506038177,-101.40843475366994,0,-48.130401611328125,32.836631774902344,-22.041025161743164
0.24340954422950745,-0.0036519933491945267,9.797953605651855,0.000816990983334733,-0.0018910396897744866,-0.001273568236022664,0.46999502182006836,2019-07-26 15:22:15:328,-110.80095199660828,-102.98029671766706,0,-48.130401611328125,32.836631774902344,-22.041025161743164
0.219462051987648,-0.02041524089872837,9.783584594726562,0.0021488966212808557,-0.006153137991276405,5.833747100570152e-05,0.4799981117248535,2019-07-26 15:22:15:338,-112.15577643064651,-104.5195065994141,0,-47.380706787109375,32.086936950683594,-22.190963745117188
0.22425153851509094,0.0059270053170621395,9.781189918518066,0.004546327029658202,0.0005063905560564065,-0.003670998514362848,0.49001646041870117,2019-07-26 15:22:15:348,-113.48667816760491,-98.83236828623694,0,-47.380706787109375,32.086936950683594,-22.190963745117188
0.24101479351520538,-0.04915223643183708,9.788373947143555,0.00294804000404853,0.0007727717161549218,0.0032549110630313164,0.49999260902404785,2019-07-26 15:22:15:358,-114.7891678078456,-100.4516181357773,0,-47.380706787109375,32.086936950683594,-22.190963745117188
0.24340954422950745,-0.025204740464687347,9.742874145507812,-0.00024853360829539187,-0.004022088970562609,-0.0018063304912011133,0.5099973678588867,2019-07-26 15:22:15:368,-116.06250213401667,-102.03948168716526,0,-47.380706787109375,32.086936950683594,-22.190963745117188
0.28172552585601807,-0.018020492047071457,9.788373947143555,0.004279945902068978,-0.0048212323533302825,0.006717865981765561,0.5199987888336182,2019-07-26 15:22:15:378,-117.30557235552597,-103.59898593929701,0,-47.380706787109375,32.086936950683594,-22.190963745117188
0.2793307900428772,-0.0036519933491945267,9.771611213684082,0.0021488966212808557,0.0015719150989225955,-0.00020804367690182974,0.5299983024597168,2019-07-26 15:22:15:388,-118.5275953260368,-105.12778449558334,0,-47.380706787109375,32.086936950683594,-22.190963745117188
0.26975178718566895,-0.04675748944282532,9.771611213684082,0.0013497532385131823,-2.63717336631639e-05,0.002189386552674418,0.5399973392486572,2019-07-26 15:22:15:398,-119.72540288792723,-106.62050341435338,0,-47.380706787109375,32.086936950683594,-22.190963745117188
0.2601727843284607,0.0059270053170621395,9.809926986694336,0.0026816588764593053,-0.0048212323533302825,5.833747100570152e-05,0.549997091293335,2019-07-26 15:22:15:408,-120.89780364362738,-100.8902914008341,0,-47.380706787109375,32.086936950683594,-22.190963745117188
0.28172552585601807,-0.018020492047071457,9.745268821716309,0.00294804000404853,-0.0005591340518283637,-0.002339092876416725,0.5599963665008545,2019-07-26 15:22:15:418,-122.04641564349559,-102.47202180257656,0,-47.380706787109375,32.086936950683594,-22.190963745117188
0.226646289229393,-0.01323099248111248,9.77879524230957,-0.0005149147521392618,-0.0026901830725421603,-0.00020804367690182974,0.5700178146362305,2019-07-26 15:22:15:428,-123.17741905593161,-104.02074116652145,0,-47.380706787109375,32.086936950683594,-22.190963745117188
0.2601727843284607,-0.025204740464687347,9.797953605651855,0.00294804000404853,-0.002423801944952936,0.0032549110630313164,0.57999587059021,2019-07-26 15:22:15:438,-124.28209144870131,-105.53903022775951,0,-47.380706787109375,32.086936950683594,-22.190963745117188
0.24340954422950745,-0.029994240030646324,9.740479469299316,-0.0005149147521392618,-0.004288470098151833,-0.00020804367690182974,0.5899953842163086,2019-07-26 15:22:15:448,-125.36541188732785,-107.02443186171675,0,-47.380706787109375,32.086936950683594,-22.190963745117188
0.24101479351520538,0.02269025333225727,9.764426231384277,1.7847537580308712e-05,-0.0034893267153841595,-0.0010071871084334394,0.59999680519104,2019-07-26 15:22:15:458,-126.42786528973771,-101.28661608353575,0,-47.380706787109375,32.086936950683594,-22.190963745117188
0.2673570513725281,-0.04915223643183708,9.680610656738281,0.00294804000404853,-0.0034893267153841595,0.0027221488078528673,0.6100063323974609,2019-07-26 15:22:15:468,-127.46570725410838,-102.85672244893047,0,-47.380706787109375,32.086936950683594,-22.190963745117188
0.23862004280090332,-0.03957323729991913,9.814716339111328,0.0002842286956469933,-0.002423801944952936,0.004853198088640989,0.6199996471405029,2019-07-26 15:22:15:478,-128.48717850093777,-104.39512714551738,0,-47.380706787109375,32.086936950683594,-22.190963745117188
0.23143579065799713,-0.010836242698132992,9.747663497924805,0.0024152777488700805,-0.00588675686368718,0.002988529935442092,0.6299936771392822,2019-07-26 15:22:15:488,-129.4869294858158,-105.9073060819068,0,-47.380706787109375,32.086936950683594,-22.190963745117188
0.23143579065799713,-0.0347837395966053,9.824295043945312,0.006410994922782774,-0.0005591340518283637,-0.001273568236022664,0.6400198936462402,2019-07-26 15:22:15:498,-130.46988621013983,-107.38871196933125,0,-47.380706787109375,32.086936950683594,-22.190963745117188
0.2458042949438095,-0.01323099248111248,9.757242202758789,0.0026816588764593053,-0.001624658562185262,0.002189386552674418,0.6499972343444824,2019-07-26 15:22:15:508,-131.43071652612915,-108.84088618504079,0,-47.380706787109375,32.086936950683594,-22.190963745117188
0.2601727843284607,-0.03957323729991913,9.795557975769043,0.0005506098557455085,-0.00029275289172984846,-0.002871855131595174,0.6599957942962646,2019-07-26 15:22:15:518,-132.3715091513974,-110.25974820526987,0,-47.380706787109375,32.086936950683594,-22.190963745117188
0.23143579065799713,-0.02759948931634426,9.793163299560547,0.0026816588764593053,-0.003755707842973384,-0.002339092876416725,0.6699948310852051,2019-07-26 15:22:15:528,-133.29489466972015,-111.65282938677684,0,-47.380706787109375,32.086936950683594,-22.190963745117188
0.23862004280090332,-0.044362738728523254,9.783584594726562,0.004546327029658202,-0.002157420817363711,0.002988529935442092,0.6799993515014648,2019-07-26 15:22:15:538,-134.19984168424318,-113.01713069921537,0,-47.380706787109375,32.086936950683594,-22.190963745117188
0.2003040462732315,-0.05394173786044121,9.783584594726562,0.0013497532385131823,-0.0029565642001313846,0.0013902431699067445,0.6900010108947754,2019-07-26 15:22:15:548,-135.09072686288079,-114.35122816054802,0,-47.380706787109375,32.086936950683594,-22.190963745117188
0.24819904565811157,-0.006046743132174015,9.845848083496094,-0.00024853360829539187,-0.001624658562185262,-0.0015399493636118885,0.6999969482421875,2019-07-26 15:22:15:558,-135.9591197578939,-115.66336034860865,0,-47.380706787109375,32.086936950683594,-22.190963745117188
0.24340954422950745,-0.051546987146139145,9.824295043945312,0.004279945902068978,-0.0005591340518283637,0.0027221488078528673,0.709996223449707,2019-07-26 15:22:15:568,-136.81123770740828,-116.94648371434296,0,-47.380706787109375,32.086936950683594,-22.190963745117188
0.2458042949438095,-0.0036519933491945267,9.795557975769043,0.004279945902068978,-0.00029275289172984846,0.001656624297495969,0.7200164794921875,2019-07-26 15:22:15:578,-137.64609930335072,-118.20953486995437,0,-47.380706787109375,32.086936950683594,-22.190963745117188
0.2577780485153198,-0.0036519933491945267,9.774005889892578,-0.00024853360829539187,-0.004554851225741058,0.002189386552674418,0.7299928665161133,2019-07-26 15:22:15:588,-138.46041062582051,-119.4447767869519,0,-47.68058776855469,32.986568450927734,-21.89108657836914
0.2601727843284607,-0.03957323729991913,9.757242202758789,0.003480802519301304,-0.002423801944952936,0.003521292450694866,0.7400009632110596,2019-07-26 15:22:15:598,-139.25929222824806,-120.6531897423947,0,-47.68058776855469,32.986568450927734,-21.89108657836914
0.2841202914714813,-0.02041524089872837,9.771611213684082,-0.004777012956113309,-0.0029565642001313846,-0.0018063304912011133,0.7499992847442627,2019-07-26 15:22:15:608,-140.03913719019025,-121.83505002229406,0,-47.68058776855469,32.986568450927734,-21.89108657836914
0.2458042949438095,-0.0611259862780571,9.747663497924805,1.7847537580308712e-05,-0.0018910396897744866,-0.0026054740040059496,0.7599935531616211,2019-07-26 15:22:15:618,-140.8084031059421,-122.99117328444096,0,-47.68058776855469,32.986568450927734,-21.89108657836914
0.2458042949438095,-0.018020492047071457,9.826689720153809,0.0010833721109239577,-0.0008255151794175883,0.0011238620423175197,0.770010232925415,2019-07-26 15:22:15:628,-141.5631128493487,-124.12985773174663,0,-47.68058776855469,32.986568450927734,-21.89108657836914
0.2458042949438095,-0.04915223643183708,9.769216537475586,-0.0010476770398270016,-2.63717336631639e-05,-0.00047442482074569963,0.7799928188323975,2019-07-26 15:22:15:638,-142.30300938870383,-125.240907891584,0,-47.68058776855469,32.986568450927734,-21.89108657836914
0.2865150272846222,-0.058731235563755035,9.869795799255371,0.0024152777488700805,-0.001624658562185262,-0.00020804367690182974,0.7900011539459229,2019-07-26 15:22:15:648,-143.02278020435944,-126.3306282311509,0,-47.68058776855469,32.986568450927734,-21.89108657836914
0.2529885470867157,-0.02041524089872837,9.821900367736816,0.003480802519301304,-0.0005591340518283637,0.0005910997871390706,0.7999956607818604,2019-07-26 15:22:15:658,-143.73250131317155,-127.40358722754546,0,-47.68058776855469,32.986568450927734,-21.89108657836914
0.2529885470867157,-0.006046743132174015,9.824295043945312,0.0005506098557455085,-0.0032229453277206094,0.005119579216230213,0.8100149631500244,2019-07-26 15:22:15:668,-144.42653579760812,-128.4551199483725,0,-47.68058776855469,32.986568450927734,-21.89108657836914
0.2793307900428772,-0.015625741332769394,9.81950569152832,0.004013564774479754,-0.005620375736097956,-0.003670998514362848,0.8199970722198486,2019-07-26 15:22:15:678,-145.10226636909957,-129.48644363914795,0,-47.68058776855469,32.986568450927734,-21.89108657836914
0.24819904565811157,-0.04915223643183708,9.7500581741333,0.0032144211316377544,-0.00588675686368718,0.0019230054250851934,0.8299949169158936,2019-07-26 15:22:15:688,-145.7677520355519,-130.49274250113098,0,-47.68058776855469,32.986568450927734,-21.89108657836914
0.2721465528011322,-0.01323099248111248,9.812321662902832,0.005345470412425876,-0.003755707842973384,0.0032549110630313164,0.8399968147277832,2019-07-26 15:22:15:698,-146.4185137349563,-131.48434453668122,0,-47.68058776855469,32.986568450927734,-21.89108657836914
0.25059378147125244,-0.037178490310907364,9.72850513458252,0.0026816588764593053,0.0005063905560564065,5.833747100570152e-05,0.8499937057495117,2019-07-26 15:22:15:708,-147.06091692325975,-132.45178371178994,0,-47.68058776855469,32.986568450927734,-21.89108657836914
0.23622529208660126,-0.015625741332769394,9.781189918518066,1.7847537580308712e-05,-0.0034893267153841595,-0.003404617386773623,0.8599984645843506,2019-07-26 15:22:15:718,-147.69006879800716,-133.40092743106683,0,-47.68058776855469,32.986568450927734,-21.89108657836914
0.2577780485153198,-0.02759948931634426,9.783584594726562,0.0032144211316377544,-0.0034893267153841595,0.0005910997871390706,0.8700003623962402,2019-07-26 15:22:15:728,-148.30412217895432,-134.33148149909746,0,-47.68058776855469,32.986568450927734,-21.89108657836914
0.2721465528011322,-0.051546987146139145,9.841058731079102,-0.0007812959122377771,0.0010391528437441464,0.0024557676802636425,0.8799939155578613,2019-07-26 15:22:15:738,-148.90694154393321,-135.23841126009088,0,-47.68058776855469,32.986568450927734,-21.89108657836914
0.20509354770183563,-0.04915223643183708,9.781189918518066,-0.0005149147521392618,-0.003755707842973384,0.0013902431699067445,0.8900177478790283,2019-07-26 15:22:15:748,-149.50266464227434,-136.12759483868456,0,-47.68058776855469,32.986568450927734,-21.89108657836914
0.23862004280090332,-0.06352073699235916,9.781189918518066,-0.0018468204225946753,-0.0013582774345960375,0.0027221488078528673,0.8999955654144287,2019-07-26 15:22:15:758,-150.08390037619841,-136.99656658586875,0,-47.68058776855469,32.986568450927734,-21.89108657836914
0.25059378147125244,-0.04675748944282532,9.841058731079102,-0.0026459639353995116,-0.0010918963070068127,-0.002871855131595174,0.9099984169006348,2019-07-26 15:22:15:768,-150.65243568177368,-137.84970461634464,0,-47.68058776855469,32.986568450927734,-21.89108657836914
0.22904103994369507,0.0011375061003491282,9.805137634277344,0.0013497532385131823,-0.006952281374044079,0.003787673578284091,0.9199984073638916,2019-07-26 15:22:15:778,-151.20872036939983,-131.4936013469809,0,-47.68058776855469,32.986568450927734,-21.89108657836914
0.219462051987648,-0.051546987146139145,9.809926986694336,0.004546327029658202,-0.002157420817363711,0.002189386552674418,0.9300286769866943,2019-07-26 15:22:15:789,-151.75769941637944,-132.46026856074516,0,-47.68058776855469,32.986568450927734,-21.89108657836914
0.25059378147125244,-0.025204740464687347,9.802742958068848,0.005345470412425876,0.00024000941221253666,0.0013902431699067445,0.9401717185974121,2019-07-26 15:22:15:799,-152.2933947269756,-133.41116123423615,0,-47.68058776855469,32.986568450927734,-21.89108657836914
0.2577780485153198,-0.025204740464687347,9.754847526550293,0.0018825154936916314,-0.0034893267153841595,0.002189386552674418,0.9499921798706055,2019-07-26 15:22:15:808,-152.81532825402113,-134.34101523211348,0,-47.68058776855469,32.986568450927734,-21.89108657836914
0.25538328289985657,-0.058731235563755035,9.800348281860352,0.0021488966212808557,-0.0013582774345960375,0.0032549110630313164,0.9600021839141846,2019-07-26 15:22:15:818,-153.32840406382184,-135.2485356104452,0,-47.68058776855469,32.986568450927734,-21.89108657836914
0.23622529208660126,-0.02759948931634426,9.824295043945312,0.0032144211316377544,-0.00029275289172984846,0.0019230054250851934,0.9699969291687012,2019-07-26 15:22:15:828,-153.8341234427734,-136.14214961936017,0,-47.68058776855469,32.986568450927734,-21.89108657836914
0.24101479351520538,-0.02041524089872837,9.733294486999512,0.004546327029658202,-0.004288470098151833,0.00432043583346254,0.980015754699707,2019-07-26 15:22:15:838,-154.3266592290598,-137.01946067522076,0,-47.83052444458008,32.236873626708984,-22.340904235839844
0.2649622857570648,-0.02759948931634426,9.7500581741333,0.0013497532385131823,-2.63717336631639e-05,0.008049771619711684,0.9899969100952148,2019-07-26 15:22:15:848,-154.80897814743133,-137.87658418356395,0,-47.83052444458008,32.236873626708984,-22.340904235839844
0.2793307900428772,-0.03957323729991913,9.771611213684082,1.7847537580308712e-05,-0.0032229453277206094,0.002189386552674418,0.9999988079071045,2019-07-26 15:22:15:858,-155.27824039398485,-138.71442180008486,0,-47.83052444458008,32.236873626708984,-22.340904235839844
0.2338305413722992,-0.04675748944282532,9.795557975769043,0.000816990983334733,-0.0008255151794175883,-0.0018063304912011133,1.009995460510254,2019-07-26 15:22:15:868,-155.74486316763836,-139.53512215126244,0,-47.83052444458008,32.236873626708984,-22.340904235839844
0.25538328289985657,-0.02759948931634426,9.797953605651855,0.006410994922782774,-0.0029565642001313846,0.005652341471408663,1.0200061798095703,2019-07-26 15:22:15:878,-156.19844253355032,-140.34479545359764,0,-47.83052444458008,32.236873626708984,-22.340904235839844
0.2458042949438095,-0.04196798801422119,9.726110458374023,0.0010833721109239577,0.0010391528437441464,0.0019230054250851934,1.0299994945526123,2019-07-26 15:22:15:888,-156.64610264963682,-141.1335628757792,0,-47.83052444458008,32.236873626708984,-22.340904235839844
0.27693602442741394,-0.05394173786044121,9.771611213684082,0.0032144211316377544,-0.0026901830725421603,0.0013902431699067445,1.03999924659729,2019-07-26 15:22:15:898,-157.07920253884163,-141.9063707901944,0,-47.83052444458008,32.236873626708984,-22.340904235839844
0.26975178718566895,-0.025204740464687347,9.817111015319824,0.0002842286956469933,-0.00029275289172984846,0.003521292450694866,1.050015926361084,2019-07-26 15:22:15:908,-157.5059746114641,-142.6654611835842,0,-47.83052444458008,32.236873626708984,-22.340904235839844
0.26975178718566895,0.008321755565702915,9.850637435913086,0.0016161343661024066,-0.003755707842973384,-0.006867572045433543,1.0599949359893799,2019-07-26 15:22:15:918,-157.9223785840239,-136.21402557431196,0,-47.83052444458008,32.236873626708984,-22.340904235839844
0.24819904565811157,-0.03238898888230324,9.781189918518066,0.004812708157247427,-0.003755707842973384,-0.0007408059808442149,1.069997787475586,2019-07-26 15:22:15:928,-158.3327500583617,-137.088653643404,0,-47.83052444458008,32.236873626708984,-22.340904235839844
0.19311979413032532,-0.03238898888230324,9.783584594726562,-0.0005149147521392618,-0.0010918963070068127,-0.0026054740040059496,1.0799944400787354,2019-07-26 15:22:15:938,-158.74286568389027,-137.9427979530737,0,-47.83052444458008,32.236873626708984,-22.340904235839844
0.24819904565811157,-0.04196798801422119,9.797953605651855,0.003480802519301304,-0.0029565642001313846,0.006451484854176337,1.0899951457977295,2019-07-26 15:22:15:948,-159.13732633675522,-138.78098827924893,0,-47.83052444458008,32.236873626708984,-22.340904235839844
0.25059378147125244,-0.08507348597049713,9.809926986694336,1.7847537580308712e-05,-0.004022088970562609,-0.00020804367690182974,1.1000092029571533,2019-07-26 15:22:15:958,-159.52305228262065,-139.59544120807286,0,-47.83052444458008,32.236873626708984,-22.340904235839844
0.2529885470867157,-0.029994240030646324,9.740479469299316,-0.0010476770398270016,-0.004022088970562609,-0.00020804367690182974,1.110023021697998,2019-07-26 15:22:15:968,-159.90057365185936,-140.39941465014803,0,-47.83052444458008,32.236873626708984,-22.340904235839844
0.25059378147125244,-0.008441492915153503,9.781189918518066,0.0002842286956469933,-0.005620375736097956,-0.00047442482074569963,1.119997262954712,2019-07-26 15:22:15:978,-160.27006257364934,-141.19059657697355,0,-47.83052444458008,32.236873626708984,-22.340904235839844
0.2721465528011322,-0.015625741332769394,9.69976806640625,0.0013497532385131823,-0.00029275289172984846,0.0027221488078528673,1.129995584487915,2019-07-26 15:22:15:988,-160.63235442917127,-141.96569640352695,0,-47.83052444458008,32.236873626708984,-22.340904235839844
0.2529885470867157,-0.0347837395966053,9.754847526550293,-0.003178726190577961,-0.0010918963070068127,0.001656624297495969,1.1400158405303955,2019-07-26 15:22:15:998,-160.98938074208792,-142.72050793237506,0,-47.83052444458008,32.236873626708984,-22.340904235839844
0.24340954422950745,-0.06831023842096329,9.843453407287598,0.0010833721109239577,-0.005087613480919507,-0.002871855131595174,1.1499931812286377,2019-07-26 15:22:16:008,-161.338412411931,-143.45875256821057,0,-47.83052444458008,32.236873626708984,-22.340904235839844
0.23143579065799713,-0.04675748944282532,9.762031555175781,-0.00024853360829539187,-0.00029275289172984846,0.003787673578284091,1.1599948406219482,2019-07-26 15:22:16:018,-161.68431776535226,-144.18394935879755,0,-47.83052444458008,32.236873626708984,-22.340904235839844
0.21227779984474182,-0.008441492915153503,9.797953605651855,0.003480802519301304,-0.0032229453277206094,0.005918722598997886,1.1699957847595215,2019-07-26 15:22:16:028,-162.02399858138924,-144.90123775097817,0,-47.83052444458008,32.236873626708984,-22.340904235839844
0.24340954422950745,-0.01323099248111248,9.800348281860352,0.000816990983334733,-0.007218662501633303,0.001656624297495969,1.179995059967041,2019-07-26 15:22:16:038,-162.35101057837517,-145.6021246558575,0,-47.83052444458008,32.236873626708984,-22.340904235839844
0.20988304913043976,-0.037178490310907364,9.762031555175781,0.005079089284836651,-0.0029565642001313846,0.0008574809147282953,1.1900146007537842,2019-07-26 15:22:16:048,-162.67769369982662,-146.28857546316019,0,-47.83052444458008,32.236873626708984,-22.340904235839844
0.24819904565811157,0.003532255766913295,9.802742958068848,0.004546327029658202,-0.001624658562185262,-0.0026054740040059496,1.1999943256378174,2019-07-26 15:22:16:058,-162.99422179552272,-139.7657644462451,0,-47.83052444458008,32.236873626708984,-22.340904235839844
0.2338305413722992,-0.051546987146139145,9.821900367736816,1.7847537580308712e-05,-0.0032229453277206094,0.0011238620423175197,1.209998369216919,2019-07-26 15:22:16:068,-163.30525122302217,-140.56444527996342,0,-47.83052444458008,32.236873626708984,-22.340904235839844
0.2529885470867157,-0.0347837395966053,9.764426231384277,1.7847537580308712e-05,-0.0010918963070068127,0.0013902431699067445,1.2199962139129639,2019-07-26 15:22:16:078,-163.60885010817978,-141.34908432464735,0,-47.83052444458008,32.236873626708984,-22.340904235839844
0.2529885470867157,-0.06352073699235916,9.771611213684082,0.0032144211316377544,-0.006419519118865629,-0.0015399493636118885,1.2300045490264893,2019-07-26 15:22:16:088,-163.90340424209606,-142.11646007190961,0,-47.230770111083984,32.236873626708984,-21.14139175415039
0.2458042949438095,-0.044362738728523254,9.7500581741333,0.0021488966212808557,-0.0013582774345960375,-0.0010071871084334394,1.2399990558624268,2019-07-26 15:22:16:098,-164.1956908650449,-142.87012293328922,0,-47.230770111083984,32.236873626708984,-21.14139175415039
0.24101479351520538,-0.037178490310907364,9.733294486999512,0.005878232667604326,0.0026374397393166566,0.0013902431699067445,1.249997615814209,2019-07-26 15:22:16:108,-164.48488851170717,-143.61164355993768,0,-47.230770111083984,32.236873626708984,-21.14139175415039
0.2984887957572937,-0.018020492047071457,9.754847526550293,0.0032144211316377544,-0.0029565642001313846,-0.0007408059808442149,1.2599914073944092,2019-07-26 15:22:16:118,-164.7584787061075,-144.33909757126557,0,-47.230770111083984,32.236873626708984,-21.14139175415039
0.26975178718566895,-0.01323099248111248,9.747663497924805,0.006144613795193549,-0.0026901830725421603,-0.002339092876416725,1.2699942588806152,2019-07-26 15:22:16:128,-165.03009478442857,-145.05421138820284,0,-47.230770111083984,32.236873626708984,-21.14139175415039
0.2841202914714813,-0.04675748944282532,9.745268821716309,0.0010833721109239577,-0.002157420817363711,0.0019230054250851934,1.2799983024597168,2019-07-26 15:22:16:138,-165.29488165721187,-145.74823769406206,0,-47.230770111083984,32.236873626708984,-21.14139175415039
0.2673570513725281,-0.018020492047071457,9.905716896057129,-0.0015804392950054507,-0.0018910396897744866,0.0011238620423175197,1.2900183200836182,2019-07-26 15:22:16:148,-165.556999124723,-146.43029910055907,0,-47.230770111083984,32.236873626708984,-21.14139175415039
0.2793307900428772,-0.029994240030646324,9.788373947143555,-0.002379582807810287,-0.0010918963070068127,0.0011238620423175197,1.2999932765960693,2019-07-26 15:22:16:158,-165.812555462975,-147.09684894613508,0,-47.230770111083984,32.236873626708984,-21.14139175415039
0.2458042949438095,-0.0611259862780571,9.788373947143555,0.0018825154936916314,-0.0008255151794175883,-0.0010071871084334394,1.30999755859375,2019-07-26 15:22:16:168,-166.06707060201083,-147.74881358189913,0,-47.230770111083984,32.236873626708984,-21.14139175415039
0.23622529208660126,-0.010836242698132992,9.764426231384277,0.0026816588764593053,-0.0029565642001313846,-0.00020804367690182974,1.3199968338012695,2019-07-26 15:22:16:178,-166.31635211630578,-148.39407124960016,0,-47.230770111083984,32.236873626708984,-21.14139175415039
0.226646289229393,-0.018020492047071457,9.802742958068848,0.005345470412425876,-0.00588675686368718,0.0019230054250851934,1.3299949169158936,2019-07-26 15:22:16:188,-166.56023064933942,-149.0270841765461,0,-47.230770111083984,32.236873626708984,-21.14139175415039
0.2841202914714813,-0.07070498168468475,9.805137634277344,-0.0015804392950054507,-0.008550568139579426,0.0011238620423175197,1.339993953704834,2019-07-26 15:22:16:198,-166.79102983098994,-149.6373920941938,0,-47.230770111083984,32.236873626708984,-21.14139175415039
0.24819904565811157,-0.04675748944282532,9.757242202758789,0.0016161343661024066,-0.0005591340518283637,0.0032549110630313164,1.3500025272369385,2019-07-26 15:22:16:208,-167.02575216331792,-150.2400612099241,0,-47.230770111083984,32.236873626708984,-21.14139175415039
0.2601727843284607,0.0011375061003491282,9.76682186126709,0.000816990983334733,-0.007218662501633303,0.006984247109354786,1.3600099086761475,2019-07-26 15:22:16:218,-167.25066268590047,-143.6358525242731,0,-47.230770111083984,32.236873626708984,-21.14139175415039
0.22185680270195007,-0.07309973239898682,9.771611213684082,0.005345470412425876,-2.63717336631639e-05,0.007517009364533235,1.3700146675109863,2019-07-26 15:22:16:228,-167.47962196779045,-144.3575661401919,0,-47.230770111083984,32.236873626708984,-21.14139175415039
0.22425153851509094,-0.051546987146139145,9.781189918518066,0.0018825154936916314,-0.0032229453277206094,-0.0007408059808442149,1.3799970149993896,2019-07-26 15:22:16:238,-167.7019554497983,-145.06543104847597,0,-47.230770111083984,32.236873626708984,-21.14139175415039
0.24101479351520538,-0.0347837395966053,9.795557975769043,0.0002842286956469933,-0.0034893267153841595,-0.004203760769541297,1.3899972438812256,2019-07-26 15:22:16:248,-167.9177680525464,-145.7602129295749,0,-47.230770111083984,32.236873626708984,-21.14139175415039
0.22425153851509094,0.003532255766913295,9.769216537475586,-0.003178726190577961,-0.006419519118865629,-0.00020804367690182974,1.3999965190887451,2019-07-26 15:22:16:258,-168.12950862485962,-139.24363827861626,0,-47.230770111083984,32.236873626708984,-21.14139175415039
0.21706730127334595,0.032269250601530075,9.841058731079102,0.000816990983334733,-2.63717336631639e-05,0.002988529935442092,1.411407709121704,2019-07-26 15:22:16:270,-168.3416298354152,-132.86304648175113,0,-47.230770111083984,32.236873626708984,-21.14139175415039
0.25538328289985657,-0.051546987146139145,9.800348281860352,0.0010833721109239577,-0.0082841870119902,-0.0020727116187903376,1.4202275276184082,2019-07-26 15:22:16:279,-168.5408404562402,-133.80029494443622,0,-47.230770111083984,32.236873626708984,-21.14139175415039
0.2577780485153198,-0.04915223643183708,9.829085350036621,0.0024152777488700805,-0.004022088970562609,0.0011238620423175197,1.430016040802002,2019-07-26 15:22:16:288,-168.73776706364035,-134.7198862153133,0,-47.230770111083984,32.236873626708984,-21.14139175415039
0.2458042949438095,-0.03957323729991913,9.785979270935059,-0.00024853360829539187,-0.0026901830725421603,0.0011238620423175197,1.4400084018707275,2019-07-26 15:22:16:298,-168.93272527734152,-135.62071513681795,0,-47.230770111083984,32.236873626708984,-21.14139175415039
0.25538328289985657,-0.051546987146139145,9.752452850341797,0.0010833721109239577,-2.63717336631639e-05,-0.00020804367690182974,1.4500038623809814,2019-07-26 15:22:16:308,-169.1240552290304,-136.50285214273572,0,-47.230770111083984,32.236873626708984,-21.14139175415039
0.2721465528011322,0.0059270053170621395,9.800348281860352,0.000816990983334733,-0.0032229453277206094,0.005652341471408663,1.4600224494934082,2019-07-26 15:22:16:318,-169.3079482471706,-130.1739477128501,0,-47.230770111083984,32.236873626708984,-21.14139175415039
0.2338305413722992,-0.051546987146139145,9.785979270935059,0.005079089284836651,-0.002157420817363711,-0.002339092876416725,1.4700031280517578,2019-07-26 15:22:16:328,-169.49320442637944,-131.16727917261008,0,-47.230770111083984,32.236873626708984,-21.14139175415039
0.25059378147125244,-0.02759948931634426,9.757242202758789,0.0010833721109239577,-0.006153137991276405,-0.0020727116187903376,1.4800090789794922,2019-07-26 15:22:16:338,-169.67045939403357,-132.14130091684342,0,-47.380706787109375,32.38681411743164,-21.291330337524414
0.2577780485153198,-0.06352073699235916,9.7500581741333,0.004013564774479754,-0.0029565642001313846,-0.002339092876416725,1.4900076389312744,2019-07-26 15:22:16:348,-169.84510097176806,-133.0932627555216,0,-47.380706787109375,32.38681411743164,-21.291330337524414
0.25059378147125244,-0.037178490310907364,9.76682186126709,0.0024152777488700805,-0.006419519118865629,-0.0010071871084334394,1.500011682510376,2019-07-26 15:22:16:358,-170.01519788176628,-134.02839219028195,0,-47.380706787109375,32.38681411743164,-21.291330337524414
0.24340954422950745,-0.07549448311328888,9.802742958068848,0.0013497532385131823,-0.0018910396897744866,0.0024557676802636425,1.5100047588348389,2019-07-26 15:22:16:368,-170.18538473541847,-134.93975676874956,0,-47.380706787109375,32.38681411743164,-21.291330337524414
0.2529885470867157,-0.03957323729991913,9.857821464538574,0.0024152777488700805,0.0007727717161549218,5.833747100570152e-05,1.5200040340423584,2019-07-26 15:22:16:378,-170.35270889593573,-135.83771757155276,0,-47.380706787109375,32.38681411743164,-21.291330337524414
0.2601727843284607,-0.0874682292342186,9.7500581741333,-0.0013140581674162262,-0.004554851225741058,-0.0007408059808442149,1.5300233364105225,2019-07-26 15:22:16:388,-170.51252161919166,-136.70994416729204,0,-47.380706787109375,32.38681411743164,-21.291330337524414
0.27454128861427307,-0.05394173786044121,9.776400566101074,0.0032144211316377544,-0.004288470098151833,-0.00020804367690182974,1.5400052070617676,2019-07-26 15:22:16:398,-170.66769638772612,-137.5712243272938,0,-47.380706787109375,32.38681411743164,-21.291330337524414
0.25059378147125244,-0.006046743132174015,9.788373947143555,1.7847537580308712e-05,-0.0032229453277206094,-0.003404617386773623,1.5500059127807617,2019-07-26 15:22:16:408,-170.8232022849397,-138.4191019764693,0,-47.380706787109375,32.38681411743164,-21.291330337524414
0.2338305413722992,-0.04675748944282532,9.826689720153809,0.005345470412425876,-0.0008255151794175883,-0.004470141897130521,1.5600039958953857,2019-07-26 15:22:16:418,-170.97901236571022,-139.24826836586692,0,-47.380706787109375,32.38681411743164,-21.291330337524414
0.2577780485153198,-0.051546987146139145,9.795557975769043,0.005878232667604326,-0.003755707842973384,0.0027221488078528673,1.570005178451538,2019-07-26 15:22:16:428,-171.12717430479265,-140.0605739333351,0,-47.380706787109375,32.38681411743164,-21.291330337524414
0.23862004280090332,-0.044362738728523254,9.81950569152832,0.0002842286956469933,-0.00029275289172984846,0.0019230054250851934,1.580024242401123,2019-07-26 15:22:16:438,-171.27662514893692,-140.85434535018268,0,-47.380706787109375,32.38681411743164,-21.291330337524414
0.24819904565811157,-0.037178490310907364,9.831480026245117,-0.00371148844575641,-0.0010918963070068127,0.004054054705873315,1.5900037288665771,2019-07-26 15:22:16:448,-171.42155792126528,-141.6308453760778,0,-47.380706787109375,32.38681411743164,-21.291330337524414
0.27693602442741394,0.0011375061003491282,9.802742958068848,0.0026816588764593053,-0.004288470098151833,-0.0007408059808442149,1.6000101566314697,2019-07-26 15:22:16:458,-171.55835274001518,-135.1998681557799,0,-47.380706787109375,32.38681411743164,-21.291330337524414
0.2577780485153198,-0.03957323729991913,9.845848083496094,-0.00024853360829539187,-0.0010918963070068127,-0.004203760769541297,1.6100225448608398,2019-07-26 15:22:16:468,-171.69657700966846,-136.0911253357094,0,-47.380706787109375,32.38681411743164,-21.291330337524414
0.2721465528011322,-0.025204740464687347,9.759636878967285,-0.0042442507009348585,-0.005353994608508731,-0.006334809790255094,1.620007038116455,2019-07-26 15:22:16:478,-171.82769840069844,-136.96396400689514,0,-47.380706787109375,32.38681411743164,-21.291330337524414
0.25059378147125244,-0.02041524089872837,9.697373390197754,0.006144613795193549,-0.0010918963070068127,0.005119579216230213,1.6300067901611328,2019-07-26 15:22:16:488,-171.96092586618693,-137.82572241650877,0,-47.380706787109375,32.38681411743164,-21.291330337524414
0.25538328289985657,-0.04196798801422119,9.814716339111328,0.0013497532385131823,-0.0018910396897744866,0.0003247186270405554,1.6400034427642822,2019-07-26 15:22:16:498,-172.09083538158913,-138.66506566342431,0,-47.380706787109375,32.38681411743164,-21.291330337524414
0.22904103994369507,-0.0347837395966053,9.781189918518066,0.0018825154936916314,-0.0013582774345960375,-0.0020727116187903376,1.6500184535980225,2019-07-26 15:22:16:508,-172.22142645138058,-139.48874789388498,0,-47.380706787109375,32.38681411743164,-21.291330337524414
0.219462051987648,-0.025204740464687347,9.797953605651855,-0.0010476770398270016,-0.004554851225741058,-0.001273568236022664,1.660008430480957,2019-07-26 15:22:16:518,-172.34878014113977,-140.29543745296488,0,-47.380706787109375,32.38681411743164,-21.291330337524414
0.22185680270195007,-0.037178490310907364,9.7500581741333,0.004546327029658202,-0.006153137991276405,0.0032549110630313164,1.6700043678283691,2019-07-26 15:22:16:528,-172.47228083111867,-141.087710889815,0,-47.380706787109375,32.38681411743164,-21.291330337524414
0.2649622857570648,-0.02759948931634426,9.774005889892578,0.0010833721109239577,-0.0005591340518283637,-0.002339092876416725,1.680021047592163,2019-07-26 15:22:16:538,-172.59146386376858,-141.8633302116517,0,-47.380706787109375,32.38681411743164,-21.291330337524414
0.226646289229393,-0.06352073699235916,9.814716339111328,0.0024152777488700805,-0.0026901830725421603,0.003521292450694866,1.6900033950805664,2019-07-26 15:22:16:548,-172.71166937088987,-142.62000113895496,0,-47.380706787109375,32.38681411743164,-21.291330337524414
0.26975178718566895,-0.03238898888230324,9.740479469299316,0.003480802519301304,0.00024000941221253666,0.00725062823694401,1.7000041007995605,2019-07-26 15:22:16:558,-172.82584400456065,-143.36574534179513,0,-47.380706787109375,32.38681411743164,-21.291330337524414
0.24101479351520538,-0.037178490310907364,9.759636878967285,-0.0010476770398270016,-0.004554851225741058,-0.0007408059808442149,1.7100090980529785,2019-07-26 15:22:16:568,-172.93847560275,-144.093476626805,0,-47.380706787109375,32.38681411743164,-21.291330337524414
0.22904103994369507,-0.03238898888230324,9.79076862335205,0.0032144211316377544,0.00024000941221253666,-0.002339092876416725,1.720362663269043,2019-07-26 15:22:16:579,-173.05304345139962,-144.8096849953377,0,-47.380706787109375,32.38681411743164,-21.291330337524414
0.2601727843284607,0.015506003983318806,9.793163299560547,1.7847537580308712e-05,-0.0018910396897744866,0.003521292450694866,1.7300121784210205,2019-07-26 15:22:16:588,-173.16052185659254,-138.31531534936698,0,-47.380706787109375,32.38681411743164,-21.291330337524414
0.25538328289985657,-0.029994240030646324,9.723715782165527,-0.0015804392950054507,-0.0018910396897744866,0.0003247186270405554,1.7400023937225342,2019-07-26 15:22:16:598,-173.26616127814444,-139.14458776120009,0,-47.380706787109375,32.38681411743164,-21.291330337524414
0.2721465528011322,-0.03957323729991913,9.785979270935059,-0.002379582807810287,-0.0018910396897744866,0.0003247186270405554,1.7500026226043701,2019-07-26 15:22:16:608,-173.3679166903027,-139.95572593337744,0,-47.380706787109375,32.38681411743164,-21.291330337524414
0.2793307900428772,-0.03238898888230324,9.793163299560547,0.0037471836468905284,0.00024000941221253666,-0.00020804367690182974,1.7600178718566895,2019-07-26 15:22:16:618,-173.46801719001823,-140.75492878190732,0,-47.380706787109375,32.38681411743164,-21.291330337524414
0.23862004280090332,-0.0347837395966053,9.797953605651855,0.000816990983334733,-0.001624658562185262,-0.00020804367690182974,1.7700045108795166,2019-07-26 15:22:16:628,-173.56984362918132,-141.53622023196183,0,-47.380706787109375,32.38681411743164,-21.291330337524414
0.22904103994369507,-0.02759948931634426,9.793163299560547,0.004546327029658202,-0.0018910396897744866,0.0024557676802636425,1.7800025939941406,2019-07-26 15:22:16:638,-173.67058952626866,-142.30481863726675,0,-47.380706787109375,32.38681411743164,-21.291330337524414
0.21227779984474182,-0.018020492047071457,9.702162742614746,0.0037471836468905284,-0.002157420817363711,0.002988529935442092,1.7900090217590332,2019-07-26 15:22:16:648,-173.77089758678312,-143.05869927032373,0,-47.380706787109375,32.38681411743164,-21.291330337524414
0.2577780485153198,-0.015625741332769394,9.797953605651855,0.0021488966212808557,-0.001624658562185262,0.0003247186270405554,1.8000116348266602,2019-07-26 15:22:16:658,-173.86442578178014,-143.7969047022078,0,-47.380706787109375,32.38681411743164,-21.291330337524414
0.24101479351520538,-0.010836242698132992,9.812321662902832,0.0005506098557455085,-0.002157420817363711,0.0032549110630313164,1.810007095336914,2019-07-26 15:22:16:668,-173.95778557559663,-144.52001014251945,0,-47.380706787109375,32.38681411743164,-21.291330337524414
0.21706730127334595,-0.025204740464687347,9.826689720153809,-0.0015804392950054507,-0.003755707842973384,-0.0007408059808442149,1.8200066089630127,2019-07-26 15:22:16:678,-174.0512124808065,-145.22578338507918,0,-47.380706787109375,32.38681411743164,-21.291330337524414
0.2458042949438095,-0.04196798801422119,9.841058731079102,0.0005506098557455085,-0.0010918963070068127,0.002988529935442092,1.8300228118896484,2019-07-26 15:22:16:688,-174.1409580700492,-145.9166905652478,0,-47.380706787109375,32.38681411743164,-21.291330337524414
0.2074882984161377,-0.07309973239898682,9.824295043945312,-0.0005149147521392618,-0.009083330914906524,5.833747100570152e-05,1.8400180339813232,2019-07-26 15:22:16:698,-174.22884302254386,-146.58954149967101,0,-47.380706787109375,32.38681411743164,-21.291330337524414
0.21467255055904388,-0.029994240030646324,9.802742958068848,0.000816990983334733,0.0010391528437441464,0.0011238620423175197,1.8500072956085205,2019-07-26 15:22:16:708,-174.31975835655334,-147.2547026773569,0,-47.380706787109375,32.38681411743164,-21.291330337524414
0.24340954422950745,-0.0347837395966053,9.7500581741333,0.0013497532385131823,-0.007751424756811752,0.001656624297495969,1.8600070476531982,2019-07-26 15:22:16:718,-174.4004091185321,-147.90627840525806,0,-47.380706787109375,32.38681411743164,-21.291330337524414
0.226646289229393,-0.05394173786044121,9.774005889892578,0.0005506098557455085,-0.0010918963070068127,0.002189386552674418,1.870009422302246,2019-07-26 15:22:16:728,-174.48522018424865,-148.54213795063484,0,-47.380706787109375,32.38681411743164,-21.291330337524414
0.2458042949438095,-0.06591548770666122,9.774005889892578,-0.0013140581674162262,-0.0029565642001313846,-0.0020727116187903376,1.8800156116485596,2019-07-26 15:22:16:738,-174.5650423437961,-149.16282900332467,0,-47.380706787109375,32.38681411743164,-21.291330337524414
0.26975178718566895,-0.05394173786044121,9.79076862335205,0.0013497532385131823,-0.005087613480919507,-0.0007408059808442149,1.8900232315063477,2019-07-26 15:22:16:748,-174.6393187569213,-149.7740175860342,0,-47.380706787109375,32.38681411743164,-21.291330337524414
0.24101479351520538,-0.03238898888230324,9.81950569152832,0.007476519433139673,-0.0026901830725421603,0.0003247186270405554,1.9000065326690674,2019-07-26 15:22:16:758,-174.71690409826527,-150.3789485665981,0,-47.380706787109375,32.38681411743164,-21.291330337524414
0.22904103994369507,-0.03238898888230324,9.805137634277344,0.0016161343661024066,-0.006153137991276405,0.0011238620423175197,1.910008192062378,2019-07-26 15:22:16:768,-174.79234755844385,-150.96849195155744,0,-47.380706787109375,32.38681411743164,-21.291330337524414
0.21227779984474182,0.02269025333225727,9.809926986694336,0.0010833721109239577,-0.0008255151794175883,-0.0007408059808442149,1.920022964477539,2019-07-26 15:22:16:778,-174.87124370641354,-144.3523818085588,0,-47.380706787109375,32.38681411743164,-21.291330337524414
0.22904103994369507,-0.044362738728523254,9.817111015319824,-0.0013140581674162262,-0.0032229453277206094,0.0013902431699067445,1.9300072193145752,2019-07-26 15:22:16:788,-174.94528172568133,-145.0594192266951,0,-47.380706787109375,32.38681411743164,-21.291330337524414
0.21467255055904388,-0.04675748944282532,9.723715782165527,1.7847537580308712e-05,0.001305533971333371,-0.003937379641952073,1.9400076866149902,2019-07-26 15:22:16:798,-175.02181466669825,-145.7527306532563,0,-47.380706787109375,32.38681411743164,-21.291330337524414
0.226646289229393,-0.0347837395966053,9.762031555175781,0.0021488966212808557,-0.0029565642001313846,-0.0018063304912011133,1.9500067234039307,2019-07-26 15:22:16:808,-175.09311834183504,-146.43479945622974,0,-47.380706787109375,32.38681411743164,-21.291330337524414
0.25059378147125244,-0.051546987146139145,9.809926986694336,1.7847537580308712e-05,-0.001624658562185262,-0.0010071871084334394,1.960005760192871,2019-07-26 15:22:16:818,-175.16107786404447,-147.10009224467373,0,-47.380706787109375,32.38681411743164,-21.291330337524414
0.2458042949438095,-0.0347837395966053,9.77879524230957,-0.0034451073181671855,-0.0013582774345960375,0.0011238620423175197,1.9700143337249756,2019-07-26 15:22:16:828,-175.22829478489427,-147.75207824746232,0,-47.380706787109375,32.38681411743164,-21.291330337524414
0.26975178718566895,-0.02041524089872837,9.77879524230957,0.004812708157247427,-0.005620375736097956,0.0013902431699067445,1.9800078868865967,2019-07-26 15:22:16:838,-175.2889725872354,-148.39734493907682,0,-47.53064727783203,32.53675079345703,-22.64078140258789
0.25538328289985657,-0.04675748944282532,9.764426231384277,-0.0026459639353995116,-0.005620375736097956,-0.0010071871084334394,1.9900031089782715,2019-07-26 15:22:16:848,-175.35007483907248,-149.02242580742035,0,-47.53064727783203,32.53675079345703,-22.64078140258789
0.26975178718566895,0.0059270053170621395,9.797953605651855,0.0002842286956469933,-0.0013582774345960375,0.005119579216230213,2.0000202655792236,2019-07-26 15:22:16:858,-175.4107686222362,-142.44283034946488,0,-47.53064727783203,32.53675079345703,-22.64078140258789
0.2338305413722992,-0.022809991613030434,9.79076862335205,-0.0042442507009348585,-0.006685900246454855,0.005918722598997886,2.010004758834839,2019-07-26 15:22:16:868,-175.4714425260914,-143.18892461097974,0,-47.53064727783203,32.53675079345703,-22.64078140258789
0.23143579065799713,-0.025204740464687347,9.776400566101074,-0.0005149147521392618,-0.0005591340518283637,-0.0015399493636118885,2.0200071334838867,2019-07-26 15:22:16:878,-175.53457756411828,-143.92190262403662,0,-47.53064727783203,32.53675079345703,-22.64078140258789
0.2577780485153198,-0.058731235563755035,9.812321662902832,0.0018825154936916314,-0.0032229453277206094,-0.003404617386773623,2.030003309249878,2019-07-26 15:22:16:888,-175.591979769479,-144.63766244990376,0,-47.53064727783203,32.53675079345703,-22.64078140258789
0.23622529208660126,-0.0347837395966053,9.783584594726562,0.0016161343661024066,-0.001624658562185262,0.005918722598997886,2.040015459060669,2019-07-26 15:22:16:898,-175.6515639898606,-145.34174368527317,0,-47.53064727783203,32.53675079345703,-22.64078140258789
0.2601727843284607,-0.029994240030646324,9.817111015319824,0.006410994922782774,-0.006153137991276405,0.003521292450694866,2.050020933151245,2019-07-26 15:22:16:908,-175.70471392619936,-146.0350094396065,0,-47.53064727783203,32.53675079345703,-22.64078140258789
0.2673570513725281,-0.025204740464687347,9.783584594726562,0.0024152777488700805,-0.0026901830725421603,-0.0010071871084334394,2.0600037574768066,2019-07-26 15:22:16:918,-175.7578049428469,-146.71271096384442,0,-47.53064727783203,32.53675079345703,-22.64078140258789
0.2577780485153198,-0.03238898888230324,9.802742958068848,-0.00024853360829539187,-0.002157420817363711,-0.003670998514362848,2.07000732421875,2019-07-26 15:22:16:928,-175.81131037120974,-147.37453096729288,0,-47.53064727783203,32.53675079345703,-22.64078140258789
0.23622529208660126,-0.07549448311328888,9.80753231048584,0.0010833721109239577,-0.004554851225741058,0.0008574809147282953,2.0800235271453857,2019-07-26 15:22:16:938,-175.86492716482215,-148.0188290173054,0,-47.53064727783203,32.53675079345703,-22.64078140258789
0.27693602442741394,-0.06591548770666122,9.821900367736816,-0.0005149147521392618,-0.006153137991276405,0.002189386552674418,2.0900075435638428,2019-07-26 15:22:16:948,-175.91187775311428,-148.6504735677329,0,-47.53064727783203,32.53675079345703,-22.64078140258789
0.20269879698753357,-0.06831023842096329,9.81950569152832,-0.0005149147521392618,-0.001624658562185262,0.0013902431699067445,2.100003480911255,2019-07-26 15:22:16:958,-175.96907716223896,-149.26920355784074,0,-47.53064727783203,32.53675079345703,-22.64078140258789
0.23143579065799713,-0.008441492915153503,9.73808479309082,0.00294804000404853,-0.004554851225741058,5.833747100570152e-05,2.11000657081604,2019-07-26 15:22:16:968,-176.01990852676923,-149.88448197791814,0,-47.53064727783203,32.53675079345703,-22.64078140258789
0.2338305413722992,-0.008441492915153503,9.795557975769043,-0.002379582807810287,-0.0013582774345960375,-0.00020804367690182974,2.1200058460235596,2019-07-26 15:22:16:978,-176.07139869260314,-150.48446879019352,0,-47.53064727783203,32.53675079345703,-22.64078140258789
0.24101479351520538,-0.029994240030646324,9.757242202758789,0.0013497532385131823,-2.63717336631639e-05,-0.00020804367690182974,2.129997968673706,2019-07-26 15:22:16:988,-176.1216562809096,-151.0720141124768,0,-47.53064727783203,32.53675079345703,-22.64078140258789
0.2601727843284607,-0.029994240030646324,9.80753231048584,-0.002912345062988736,0.0005063905560564065,0.0032549110630313164,2.1399857997894287,2019-07-26 15:22:16:998,-176.1691155933052,-151.64543601555874,0,-47.53064727783203,32.53675079345703,-22.64078140258789
0.21706730127334595,-0.03957323729991913,9.718926429748535,0.004013564774479754,-0.003755707842973384,0.005119579216230213,2.149989604949951,2019-07-26 15:22:17:008,-176.21803446392033,-152.21011588450588,0,-47.53064727783203,32.53675079345703,-22.64078140258789
0.24101479351520538,-0.04675748944282532,9.805137634277344,0.0010833721109239577,-0.004288470098151833,0.0003247186270405554,2.1600022315979004,2019-07-26 15:22:17:018,-176.26310130251227,-152.76105819222198,0,-47.53064727783203,32.53675079345703,-22.64078140258789
0.26256754994392395,-0.006046743132174015,9.800348281860352,0.0005506098557455085,-0.0029565642001313846,-0.003404617386773623,2.1699891090393066,2019-07-26 15:22:17:028,-176.3054877155145,-153.30543876791737,0,-47.53064727783203,32.53675079345703,-22.64078140258789
0.19551454484462738,-0.025204740464687347,9.785979270935059,0.004013564774479754,-0.00588675686368718,-0.001273568236022664,2.1799888610839844,2019-07-26 15:22:17:038,-176.35318138061962,-153.83863213741975,0,-47.53064727783203,32.53675079345703,-22.64078140258789
0.21706730127334595,-0.04196798801422119,9.771611213684082,-0.002379582807810287,-0.0018910396897744866,0.0003247186270405554,2.1900031566619873,2019-07-26 15:22:17:048,-176.3996031502516,-154.3555999017884,0,-47.53064727783203,32.53675079345703,-22.64078140258789
0.219462051987648,-0.03238898888230324,9.802742958068848,0.0026816588764593053,-0.001624658562185262,-0.0010071871084334394,2.199998617172241,2019-07-26 15:22:17:058,-176.44504898983885,-154.86620679181254,0,-47.53064727783203,32.53675079345703,-22.64078140258789
0.23862004280090332,-0.02041524089872837,9.81950569152832,-0.0005149147521392618,-0.008017805884400977,0.0005910997871390706,2.2099990844726562,2019-07-26 15:22:17:068,-176.48380483653466,-155.3662111064387,0,-47.53064727783203,32.53675079345703,-22.64078140258789
0.18354080617427826,-0.044362738728523254,9.800348281860352,-0.0007812959122377771,-0.004288470098151833,0.0003247186270405554,2.220003366470337,2019-07-26 15:22:17:078,-176.5302615535244,-155.8532608774053,0,-47.53064727783203,32.53675079345703,-22.64078140258789
0.2865150272846222,-0.04915223643183708,9.785979270935059,0.005878232667604326,-0.004288470098151833,-0.0018063304912011133,2.229999303817749,2019-07-26 15:22:17:088,-176.5637086636646,-156.33373937351237,0,-47.380706787109375,33.28644561767578,-21.89108657836914
0.2984887957572937,-0.008441492915153503,9.788373947143555,1.7847537580308712e-05,-0.008017805884400977,0.0003247186270405554,2.2400548458099365,2019-07-26 15:22:17:099,-176.59297452543825,-156.80608642580177,0,-47.380706787109375,33.28644561767578,-21.89108657836914
0.2529885470867157,-0.0036519933491945267,9.730899810791016,1.7847537580308712e-05,-0.0018910396897744866,5.833747100570152e-05,2.2499959468841553,2019-07-26 15:22:17:108,-176.63027412549536,-157.26954459910027,0,-47.380706787109375,33.28644561767578,-21.89108657836914
0.2338305413722992,-0.05394173786044121,9.802742958068848,-0.0013140581674162262,-0.002423801944952936,0.0003247186270405554,2.2599992752075195,2019-07-26 15:22:17:118,-176.6689782185966,-157.71711003206215,0,-47.380706787109375,33.28644561767578,-21.89108657836914
0.2601727843284607,-0.07309973239898682,9.76682186126709,0.0018825154936916314,0.001305533971333371,-0.0007408059808442149,2.2699997425079346,2019-07-26 15:22:17:128,-176.7058135709454,-158.1552484709865,0,-47.380706787109375,33.28644561767578,-21.89108657836914
0.2649622857570648,-0.022809991613030434,9.797953605651855,0.0013497532385131823,-0.006153137991276405,0.0003247186270405554,2.2800114154815674,2019-07-26 15:22:17:138,-176.73725728465726,-158.59023454258426,0,-47.380706787109375,33.28644561767578,-21.89108657836914
0.2529885470867157,-0.010836242698132992,9.814716339111328,0.0005506098557455085,-0.0005591340518283637,0.00432043583346254,2.29003643989563,2019-07-26 15:22:17:149,-176.77266630338826,-159.01747460887077,0,-47.380706787109375,33.28644561767578,-21.89108657836914
0.2841202914714813,-0.0347837395966053,9.79076862335205,0.0018825154936916314,-0.004288470098151833,-0.00020804367690182974,2.3000078201293945,2019-07-26 15:22:17:158,-176.8015676725877,-159.43410803531268,0,-47.380706787109375,33.28644561767578,-21.89108657836914
0.26975178718566895,-0.010836242698132992,9.769216537475586,-0.0026459639353995116,-0.0018910396897744866,0.0005910997871390706,2.3100218772888184,2019-07-26 15:22:17:168,-176.83283953668,-159.8426670052158,0,-47.380706787109375,33.28644561767578,-21.89108657836914
0.23862004280090332,-0.022809991613030434,9.769216537475586,0.0032144211316377544,-0.0034893267153841595,0.001656624297495969,2.3200154304504395,2019-07-26 15:22:17:178,-176.86624052019195,-160.24494181900664,0,-47.380706787109375,33.28644561767578,-21.89108657836914
0.26975178718566895,-0.02041524089872837,9.843453407287598,0.0016161343661024066,-0.004554851225741058,0.0013902431699067445,2.330007553100586,2019-07-26 15:22:17:188,-176.89496516000483,-160.6385731089955,0,-47.380706787109375,33.28644561767578,-21.89108657836914
0.23862004280090332,-0.029994240030646324,9.812321662902832,0.004279945902068978,-0.004554851225741058,-0.002339092876416725,2.340024948120117,2019-07-26 15:22:17:199,-176.92664251358985,-161.02470619466314,0,-47.380706787109375,33.28644561767578,-21.89108657836914
0.2673570513725281,-0.02759948931634426,9.776400566101074,0.0005506098557455085,-0.00029275289172984846,-0.003404617386773623,2.3500008583068848,2019-07-26 15:22:17:208,-176.95661592001088,-161.40128549827898,0,-47.380706787109375,33.28644561767578,-21.89108657836914
0.23862004280090332,-0.037178490310907364,9.793163299560547,0.0005506098557455085,-0.0048212323533302825,0.0032549110630313164,2.3600001335144043,2019-07-26 15:22:17:218,-176.98686084720012,-161.769218631702,0,-47.380706787109375,33.28644561767578,-21.89108657836914
0.2458042949438095,-0.04915223643183708,9.774005889892578,0.004546327029658202,-0.0034893267153841595,0.0027221488078528673,2.3699967861175537,2019-07-26 15:22:17:228,-177.01635273139826,-162.13062354535782,0,-47.380706787109375,33.28644561767578,-21.89108657836914
0.25538328289985657,-0.018020492047071457,9.774005889892578,-0.003178726190577961,-0.0048212323533302825,5.833747100570152e-05,2.380002737045288,2019-07-26 15:22:17:238,-177.04338233425975,-162.4841124212364,0,-47.380706787109375,33.28644561767578,-21.89108657836914
0.2601727843284607,-0.04196798801422119,9.733294486999512,0.005079089284836651,-0.0005591340518283637,0.0027221488078528673,2.389998197555542,2019-07-26 15:22:17:248,-177.07157763084513,-162.83233985536134,0,-47.380706787109375,33.28644561767578,-21.89108657836914
0.2074882984161377,-0.03957323729991913,9.76682186126709,-0.0010476770398270016,-0.0008255151794175883,0.0008574809147282953,2.400036573410034,2019-07-26 15:22:17:259,-177.10534037725085,-163.17045953276616,0,-47.380706787109375,33.28644561767578,-21.89108657836914
0.22904103994369507,-0.029994240030646324,9.797953605651855,-0.002912345062988736,-0.0018910396897744866,0.005119579216230213,2.4099977016448975,2019-07-26 15:22:17:268,-177.13539335914854,-163.50191346802046,0,-47.380706787109375,33.28644561767578,-21.89108657836914
0.28890979290008545,-0.008441492915153503,9.793163299560547,-0.0010476770398270016,-0.0005591340518283637,-0.002339092876416725,2.4200024604797363,2019-07-26 15:22:17:278,-177.15857533903775,-163.83029889550895,0,-47.380706787109375,33.28644561767578,-21.89108657836914
0.2529885470867157,-0.006046743132174015,9.769216537475586,0.0026816588764593053,-0.003755707842973384,0.0005910997871390706,2.4300007820129395,2019-07-26 15:22:17:288,-177.18362678566635,-164.15448913815706,0,-47.380706787109375,33.28644561767578,-21.89108657836914
0.2673570513725281,-0.04675748944282532,9.812321662902832,0.0026816588764593053,-0.0026901830725421603,-0.0010071871084334394,2.440005302429199,2019-07-26 15:22:17:298,-177.20722790967457,-164.46744532991568,0,-47.380706787109375,33.28644561767578,-21.89108657836914
0.2577780485153198,-0.06352073699235916,9.776400566101074,0.0005506098557455085,-0.003755707842973384,-0.0007408059808442149,2.450011968612671,2019-07-26 15:22:17:308,-177.2307653306564,-164.770960481427,0,-47.380706787109375,33.28644561767578,-21.89108657836914
0.25059378147125244,-0.04196798801422119,9.829085350036621,0.00294804000404853,-0.001624658562185262,5.833747100570152e-05,2.460003614425659,2019-07-26 15:22:17:318,-177.25602960633876,-165.07230243676108,0,-47.380706787109375,33.28644561767578,-21.89108657836914
0.24819904565811157,-0.02759948931634426,9.805137634277344,0.000816990983334733,-0.002423801944952936,0.0003247186270405554,2.470003128051758,2019-07-26 15:22:17:328,-177.28054756400556,-165.36808959176827,0,-47.380706787109375,33.28644561767578,-21.89108657836914
0.22904103994369507,-0.02759948931634426,9.788373947143555,0.0056118515400151005,-0.002157420817363711,-0.005002904152308971,2.480029344558716,2019-07-26 15:22:17:339,-177.30691332433673,-165.66065607058604,0,-47.68058776855469,32.986568450927734,-22.190963745117188
0.20509354770183563,-0.058731235563755035,9.774005889892578,0.0037471836468905284,-0.0029565642001313846,0.002189386552674418,2.4899966716766357,2019-07-26 15:22:17:348,-177.3350785020518,-165.9426544790702,0,-47.68058776855469,32.986568450927734,-22.190963745117188
0.2338305413722992,-0.04196798801422119,9.800348281860352,0.0024152777488700805,0.0007727717161549218,-0.00047442482074569963,2.5000007152557373,2019-07-26 15:22:17:358,-177.36147533260748,-166.22025099378013,0,-47.68058776855469,32.986568450927734,-22.190963745117188
0.2601727843284607,-0.02041524089872837,9.795557975769043,0.0056118515400151005,-0.0034893267153841595,0.0008574809147282953,2.509997606277466,2019-07-26 15:22:17:368,-177.3818584953497,-166.49660780476867,0,-47.68058776855469,32.986568450927734,-22.190963745117188
0.22904103994369507,-0.051546987146139145,9.797953605651855,0.0021488966212808557,-0.004554851225741058,0.005119579216230213,2.5199975967407227,2019-07-26 15:22:17:378,-177.40488126330484,-166.76185364922088,0,-47.68058776855469,32.986568450927734,-22.190963745117188
0.27454128861427307,-0.05394173786044121,9.759636878967285,0.006144613795193549,-0.0048212323533302825,-0.005002904152308971,2.5299997329711914,2019-07-26 15:22:17:388,-177.42184951998038,-167.0237340681868,0,-47.68058776855469,32.986568450927734,-22.190963745117188
0.24819904565811157,-0.06831023842096329,9.785979270935059,0.006144613795193549,-0.0034893267153841595,-0.001273568236022664,2.540008306503296,2019-07-26 15:22:17:398,-177.44239429158281,-167.27871369577252,0,-47.68058776855469,32.986568450927734,-22.190963745117188
0.22904103994369507,-0.025204740464687347,9.79076862335205,0.0024152777488700805,-0.004554851225741058,0.004586816961051765,2.5499985218048096,2019-07-26 15:22:17:408,-177.46418919639058,-167.5315443033665,0,-47.68058776855469,32.986568450927734,-22.190963745117188
0.25059378147125244,-0.008441492915153503,9.73808479309082,0.0013497532385131823,0.0021046773541010446,-0.00047442482074569963,2.5600197315216064,2019-07-26 15:22:17:418,-177.48660792410357,-167.78067956866295,0,-47.68058776855469,32.986568450927734,-22.190963745117188
0.23143579065799713,-0.03238898888230324,9.73808479309082,0.00294804000404853,-0.005353994608508731,0.005652341471408663,2.5699973106384277,2019-07-26 15:22:17:428,-177.5066474860329,-168.02290627117975,0,-47.68058776855469,32.986568450927734,-22.190963745117188
0.27454128861427307,-0.018020492047071457,9.829085350036621,0.0016161343661024066,-0.005353994608508731,0.0019230054250851934,2.5800046920776367,2019-07-26 15:22:17:438,-177.52150721275626,-168.2612553713896,0,-47.68058776855469,32.986568450927734,-22.190963745117188
0.2721465528011322,-0.025204740464687347,9.771611213684082,0.0005506098557455085,-0.004554851225741058,-0.002339092876416725,2.589998483657837,2019-07-26 15:22:17:448,-177.53661477014307,-168.49338348858535,0,-47.68058776855469,32.986568450927734,-22.190963745117188
0.2865150272846222,-0.022809991613030434,9.879374504089355,0.0026816588764593053,-0.0032229453277206094,0.0013902431699067445,2.59999942779541,2019-07-26 15:22:17:458,-177.5508488576345,-168.72237596653412,0,-47.68058776855469,32.986568450927734,-22.190963745117188
0.23622529208660126,-0.018020492047071457,9.817111015319824,-0.00371148844575641,-0.005087613480919507,0.0005910997871390706,2.6100103855133057,2019-07-26 15:22:17:468,-177.56940366470027,-168.94373870390964,0,-47.68058776855469,32.986568450927734,-22.190963745117188
0.2529885470867157,-0.01323099248111248,9.812321662902832,0.0002842286956469933,-0.0010918963070068127,0.0013902431699067445,2.6199982166290283,2019-07-26 15:22:17:478,-177.58786493846065,-169.16347817123602,0,-47.68058776855469,32.986568450927734,-22.190963745117188
0.23862004280090332,-0.022809991613030434,9.833874702453613,0.0016161343661024066,-0.0026901830725421603,0.0008574809147282953,2.6300034523010254,2019-07-26 15:22:17:488,-177.6067960032188,-169.37845855652847,0,-47.68058776855469,32.986568450927734,-22.190963745117188
0.22425153851509094,-0.04196798801422119,9.79076862335205,0.0024152777488700805,-0.001624658562185262,0.0024557676802636425,2.639995574951172,2019-07-26 15:22:17:498,-177.62750665409047,-169.58733257175007,0,-47.68058776855469,32.986568450927734,-22.190963745117188
0.23143579065799713,-0.03238898888230324,9.769216537475586,0.0016161343661024066,-0.0026901830725421603,0.0005910997871390706,2.6500232219696045,2019-07-26 15:22:17:508,-177.646299789387,-169.7926967167252,0,-47.68058776855469,32.986568450927734,-22.190963745117188
0.24101479351520538,-0.029994240030646324,9.833874702453613,-0.0005149147521392618,-0.0008255151794175883,0.0008574809147282953,2.6599960327148438,2019-07-26 15:22:17:518,-177.66483232861972,-169.99305930539248,0,-47.68058776855469,32.986568450927734,-22.190963745117188
0.23862004280090332,-0.022809991613030434,9.857821464538574,0.0026816588764593053,-0.001624658562185262,0.0008574809147282953,2.67000150680542,2019-07-26 15:22:17:528,-177.68289013415182,-170.1920531644987,0,-47.68058776855469,32.986568450927734,-22.190963745117188
0.20269879698753357,-0.02041524089872837,9.812321662902832,-0.0042442507009348585,-0.002423801944952936,0.0019230054250851934,2.679999351501465,2019-07-26 15:22:17:538,-177.70420318932432,-170.383445317498,0,-47.68058776855469,32.986568450927734,-22.190963745117188
0.22904103994369507,-0.008441492915153503,9.795557975769043,0.0005506098557455085,-0.0032229453277206094,0.0013902431699067445,2.690006732940674,2019-07-26 15:22:17:548,-177.7215190408816,-170.57509829354268,0,-47.68058776855469,32.986568450927734,-22.190963745117188
0.2721465528011322,-0.02759948931634426,9.80753231048584,0.00294804000404853,-0.0048212323533302825,0.0013902431699067445,2.7000041007995605,2019-07-26 15:22:17:558,-177.73259271399618,-170.76202648670758,0,-47.68058776855469,32.986568450927734,-22.190963745117188
0.24819904565811157,0.008321755565702915,9.805137634277344,0.0013497532385131823,-0.0008255151794175883,-0.0007408059808442149,2.709995985031128,2019-07-26 15:22:17:568,-177.74847715534688,-163.74851578063365,0,-47.68058776855469,32.986568450927734,-22.190963745117188
0.2673570513725281,-0.025204740464687347,9.69976806640625,-0.0015804392950054507,0.00024000941221253666,0.002189386552674418,2.7200231552124023,2019-07-26 15:22:17:578,-177.76206559011572,-164.06967799705043,0,-47.68058776855469,32.986568450927734,-22.190963745117188
0.27693602442741394,-0.05394173786044121,9.730899810791016,0.0037471836468905284,-0.003755707842973384,-0.002871855131595174,2.7299931049346924,2019-07-26 15:22:17:588,-177.77211846723924,-164.38403001218094,0,-48.58021926879883,33.28644561767578,-20.991453170776367
0.2529885470867157,-0.04915223643183708,9.716531753540039,-0.0034451073181671855,-0.002157420817363711,-0.0007408059808442149,2.7399978637695312,2019-07-26 15:22:17:598,-177.78563476096298,-164.68861736686785,0,-48.58021926879883,33.28644561767578,-20.991453170776367
0.26256754994392395,-0.018020492047071457,9.785979270935059,-0.0005149147521392618,-0.002157420817363711,0.004054054705873315,2.7499988079071045,2019-07-26 15:22:17:608,-177.79797188319338,-164.99244571265157,0,-48.58021926879883,33.28644561767578,-20.991453170776367
0.2649622857570648,-0.02041524089872837,9.757242202758789,-0.0013140581674162262,-0.002423801944952936,-0.0026054740040059496,2.759995460510254,2019-07-26 15:22:17:618,-177.8095417336625,-165.28946158867225,0,-48.58021926879883,33.28644561767578,-20.991453170776367
0.27454128861427307,-0.03957323729991913,9.838664054870605,-0.0013140581674162262,-0.0010918963070068127,0.0019230054250851934,2.770007610321045,2019-07-26 15:22:17:628,-177.82076934917507,-165.57832452277617,0,-48.58021926879883,33.28644561767578,-20.991453170776367
0.27454128861427307,-0.03957323729991913,9.742874145507812,-0.0007812959122377771,0.00024000941221253666,0.0013902431699067445,2.779995918273926,2019-07-26 15:22:17:638,-177.83220672858218,-165.86166543769554,0,-48.58021926879883,33.28644561767578,-20.991453170776367
0.2577780485153198,-0.015625741332769394,9.759636878967285,0.0032144211316377544,-0.0032229453277206094,0.003521292450694866,2.7900047302246094,2019-07-26 15:22:17:648,-177.84349166725457,-166.144403937136,0,-48.58021926879883,33.28644561767578,-20.991453170776367
0.226646289229393,-0.015625741332769394,9.754847526550293,1.7847537580308712e-05,-0.0018910396897744866,-0.0015399493636118885,2.800001621246338,2019-07-26 15:22:17:658,-177.8589406803737,-166.41969030051405,0,-48.58021926879883,33.28644561767578,-20.991453170776367
0.24340954422950745,-0.08267873525619507,9.797953605651855,-0.0013140581674162262,-0.0048212323533302825,0.0003247186270405554,2.8100225925445557,2019-07-26 15:22:17:668,-177.87058706647574,-166.68088767767696,0,-48.58021926879883,33.28644561767578,-20.991453170776367
0.25538328289985657,-0.022809991613030434,9.80753231048584,-0.0034451073181671855,-0.005353994608508731,0.0013902431699067445,2.8200013637542725,2019-07-26 15:22:17:678,-177.88034311352467,-166.94267448480844,0,-48.58021926879883,33.28644561767578,-20.991453170776367
0.2601727843284607,-0.08507348597049713,9.809926986694336,0.000816990983334733,-0.002157420817363711,0.0013902431699067445,2.829998016357422,2019-07-26 15:22:17:688,-177.89114112964106,-167.19434223983305,0,-48.58021926879883,33.28644561767578,-20.991453170776367
0.2673570513725281,-0.02759948931634426,9.7500581741333,0.0013497532385131823,-0.0048212323533302825,0.001656624297495969,2.839999198913574,2019-07-26 15:22:17:698,-177.89919650918114,-167.44796963471168,0,-48.58021926879883,33.28644561767578,-20.991453170776367
0.25059378147125244,-0.06591548770666122,9.788373947143555,-0.00024853360829539187,-0.006153137991276405,-0.00047442482074569963,2.8499979972839355,2019-07-26 15:22:17:708,-177.90842764764534,-167.6911541609466,0,-48.58021926879883,33.28644561767578,-20.991453170776367
0.22185680270195007,-0.008441492915153503,9.754847526550293,0.004013564774479754,-0.0008255151794175883,0.004054054705873315,2.8600049018859863,2019-07-26 15:22:17:718,-177.92373791204926,-167.93859461117728,0,-48.58021926879883,33.28644561767578,-20.991453170776367
0.219462051987648,-0.015625741332769394,9.769216537475586,0.006144613795193549,-0.0082841870119902,-0.0015399493636118885,2.870000123977661,2019-07-26 15:22:17:728,-177.93487555045024,-168.1814383864812,0,-48.58021926879883,33.28644561767578,-20.991453170776367
0.21706730127334595,-0.07309973239898682,9.769216537475586,0.0026816588764593053,-0.004022088970562609,0.0008574809147282953,2.8800220489501953,2019-07-26 15:22:17:738,-177.94845718512957,-168.4107443304107,0,-48.58021926879883,33.28644561767578,-20.991453170776367
0.2529885470867157,-0.018020492047071457,9.723715782165527,-0.003178726190577961,-0.002157420817363711,-0.002871855131595174,2.8899953365325928,2019-07-26 15:22:17:748,-177.95847254533652,-168.63862569364372,0,-48.58021926879883,33.28644561767578,-20.991453170776367
0.22425153851509094,0.0011375061003491282,9.785979270935059,0.003480802519301304,-0.0032229453277206094,0.0019230054250851934,2.900006055831909,2019-07-26 15:22:17:758,-177.97123673251883,-161.66794294003813,0,-48.58021926879883,33.28644561767578,-20.991453170776367
0.24340954422950745,-0.01323099248111248,9.800348281860352,0.000816990983334733,-0.002157420817363711,-0.00020804367690182974,2.9099974632263184,2019-07-26 15:22:17:768,-177.98214659392147,-162.0334953802087,0,-48.58021926879883,33.28644561767578,-20.991453170776367
0.24101479351520538,-0.06591548770666122,9.793163299560547,0.004013564774479754,-0.005620375736097956,0.001656624297495969,2.920018434524536,2019-07-26 15:22:17:778,-177.99114532917326,-162.3873710369899,0,-48.58021926879883,33.28644561767578,-20.991453170776367
0.2458042949438095,-0.025204740464687347,9.721321105957031,0.00294804000404853,-0.006685900246454855,-0.001273568236022664,2.930021047592163,2019-07-26 15:22:17:788,-177.9985989330418,-162.73830832858164,0,-48.58021926879883,33.28644561767578,-20.991453170776367
0.27693602442741394,-0.02041524089872837,9.80753231048584,-0.004510631828524084,-2.63717336631639e-05,0.002988529935442092,2.9399988651275635,2019-07-26 15:22:17:798,-178.00626347091568,-163.07862974594087,0,-48.58021926879883,33.28644561767578,-20.991453170776367
0.24101479351520538,-0.0611259862780571,9.781189918518066,-0.0005149147521392618,-0.0032229453277206094,0.0024557676802636425,2.949995994567871,2019-07-26 15:22:17:808,-178.0160986589348,-163.4096069866016,0,-48.58021926879883,33.28644561767578,-20.991453170776367
0.2721465528011322,-0.0012572435662150383,9.797953605651855,0.0010833721109239577,-0.004288470098151833,-0.0007408059808442149,2.9600017070770264,2019-07-26 15:22:17:818,-178.02154673464085,-163.74187646593666,0,-48.58021926879883,33.28644561767578,-20.991453170776367
0.2601727843284607,-0.0012572435662150383,9.805137634277344,0.0013497532385131823,-0.001624658562185262,-0.003670998514362848,2.9700002670288086,2019-07-26 15:22:17:828,-178.0298047152096,-164.0676497794214,0,-48.58021926879883,33.28644561767578,-20.991453170776367
0.22904103994369507,-0.025204740464687347,9.721321105957031,0.000816990983334733,-0.0008255151794175883,-0.00047442482074569963,2.980008840560913,2019-07-26 15:22:17:838,-178.04175112906583,-164.38378487579445,0,-47.08082962036133,31.487178802490234,-21.591209411621094
0.23143579065799713,-0.03238898888230324,9.76682186126709,0.0010833721109239577,-0.003755707842973384,-0.0010071871084334394,2.9899988174438477,2019-07-26 15:22:17:848,-178.05166072170925,-164.69291677934865,0,-47.08082962036133,31.487178802490234,-21.591209411621094
0.24101479351520538,-0.03238898888230324,9.845848083496094,0.0021488966212808557,-0.0032229453277206094,-0.0015399493636118885,3.0000216960906982,2019-07-26 15:22:17:858,-178.06076862096745,-164.99649820637686,0,-47.08082962036133,31.487178802490234,-21.591209411621094
0.24819904565811157,-0.022809991613030434,9.771611213684082,0.0018825154936916314,-0.0034893267153841595,0.002189386552674418,3.010014533996582,2019-07-26 15:22:17:868,-178.06849538640265,-165.29494959515839,0,-47.08082962036133,31.487178802490234,-21.591209411621094
0.26256754994392395,-0.01323099248111248,9.785979270935059,0.0021488966212808557,-0.0018910396897744866,-0.002871855131595174,3.020001173019409,2019-07-26 15:22:17:878,-178.0753264018269,-165.5887062759017,0,-47.08082962036133,31.487178802490234,-21.591209411621094
0.226646289229393,-0.044362738728523254,9.824295043945312,-0.0018468204225946753,-0.0026901830725421603,-0.0020727116187903376,3.030000925064087,2019-07-26 15:22:17:888,-178.0858778159768,-165.8707207099404,0,-47.08082962036133,31.487178802490234,-21.591209411621094
0.2338305413722992,-0.0347837395966053,9.829085350036621,-0.0018468204225946753,0.0005063905560564065,-0.0018063304912011133,3.040011405944824,2019-07-26 15:22:17:898,-178.0971891006742,-166.14821300584308,0,-47.08082962036133,31.487178802490234,-21.591209411621094
0.2338305413722992,-0.03957323729991913,9.771611213684082,0.0037471836468905284,-0.006153137991276405,-0.0031382362591843983,3.0500011444091797,2019-07-26 15:22:17:908,-178.1043778401139,-166.4227099021005,0,-47.08082962036133,31.487178802490234,-21.591209411621094
0.2458042949438095,-0.02759948931634426,9.785979270935059,0.0005506098557455085,-0.006685900246454855,5.833747100570152e-05,3.0600011348724365,2019-07-26 15:22:17:918,-178.10975909822326,-166.6913330425075,0,-47.08082962036133,31.487178802490234,-21.591209411621094
0.26975178718566895,-0.018020492047071457,9.76682186126709,0.0010833721109239577,-0.005353994608508731,0.001656624297495969,3.0700011253356934,2019-07-26 15:22:17:928,-178.11291643270172,-166.956000398379,0,-47.08082962036133,31.487178802490234,-21.591209411621094
0.2601727843284607,-0.008441492915153503,9.843453407287598,-0.0013140581674162262,-0.007218662501633303,-0.002339092876416725,3.0799992084503174,2019-07-26 15:22:17:938,-178.1163249125275,-167.21515998242603,0,-47.08082962036133,31.487178802490234,-21.591209411621094
0.2458042949438095,-0.02759948931634426,9.795557975769043,-0.0007812959122377771,-0.0029565642001313846,0.0027221488078528673,3.0899972915649414,2019-07-26 15:22:17:948,-178.1235896891357,-167.46718950260347,0,-47.08082962036133,31.487178802490234,-21.591209411621094
0.25059378147125244,-0.03957323729991913,9.824295043945312,1.7847537580308712e-05,-0.006419519118865629,0.0013902431699067445,3.100006341934204,2019-07-26 15:22:17:958,-178.12828690956863,-167.7132399060141,0,-47.08082962036133,31.487178802490234,-21.591209411621094
0.21467255055904388,-0.02041524089872837,9.826689720153809,0.00294804000404853,-0.0010918963070068127,-0.001273568236022664,3.1100010871887207,2019-07-26 15:22:17:968,-178.14007885759747,-167.95824888813397,0,-47.08082962036133,31.487178802490234,-21.591209411621094
0.21227779984474182,-0.03238898888230324,9.7500581741333,0.0002842286956469933,-0.0018910396897744866,0.001656624297495969,3.1200175285339355,2019-07-26 15:22:17:978,-178.15126884002817,-168.19543713198684,0,-47.08082962036133,31.487178802490234,-21.591209411621094
0.24101479351520538,-0.044362738728523254,9.77879524230957,0.0032144211316377544,-0.005087613480919507,0.0003247186270405554,3.1299989223480225,2019-07-26 15:22:17:988,-178.15715479737435,-168.42813136919133,0,-47.08082962036133,31.487178802490234,-21.591209411621094
0.226646289229393,-0.04675748944282532,9.805137634277344,-0.002379582807810287,-0.0029565642001313846,0.0013902431699067445,3.1400022506713867,2019-07-26 15:22:17:998,-178.16586785701037,-168.65276770993697,0,-47.08082962036133,31.487178802490234,-21.591209411621094
0.219462051987648,-0.037178490310907364,9.759636878967285,-0.002379582807810287,-0.005087613480919507,0.0019230054250851934,3.1499991416931152,2019-07-26 15:22:18:008,-178.17393117874968,-168.8740113936814,0,-47.08082962036133,31.487178802490234,-21.591209411621094
0.24101479351520538,-0.03957323729991913,9.79076862335205,-0.0015804392950054507,0.00024000941221253666,-0.002339092876416725,3.1600072383880615,2019-07-26 15:22:18:018,-178.18238465438975,-169.0910113900191,0,-47.08082962036133,31.487178802490234,-21.591209411621094
0.25538328289985657,-0.02759948931634426,9.730899810791016,0.000816990983334733,-0.005087613480919507,-0.00020804367690182974,3.170020818710327,2019-07-26 15:22:18:028,-178.1858092335904,-169.30640040368507,0,-47.08082962036133,31.487178802490234,-21.591209411621094
0.24819904565811157,-0.03957323729991913,9.714137077331543,0.0021488966212808557,-0.003755707842973384,0.0005910997871390706,3.1800029277801514,2019-07-26 15:22:18:038,-178.190715886891,-169.51680865959068,0,-47.08082962036133,31.487178802490234,-21.591209411621094
0.2529885470867157,0.0011375061003491282,9.805137634277344,-0.0021132015501838996,-0.005087613480919507,0.0003247186270405554,3.1899986267089844,2019-07-26 15:22:18:048,-178.1944861765341,-162.52541937603104,0,-47.08082962036133,31.487178802490234,-21.591209411621094
0.2458042949438095,-0.03957323729991913,9.73808479309082,-0.0005149147521392618,-0.004554851225741058,-0.00047442482074569963,3.2000184059143066,2019-07-26 15:22:18:058,-178.1991153135615,-162.86996459266226,0,-47.08082962036133,31.487178802490234,-21.591209411621094
0.28890979290008545,0.025085002183914185,9.776400566101074,0.0005506098557455085,-0.0029565642001313846,0.0008574809147282953,3.2099967002868652,2019-07-26 15:22:18:068,-178.1996225399374,-156.0158140638411,0,-47.08082962036133,31.487178802490234,-21.591209411621094
0.28172552585601807,-0.015625741332769394,9.793163299560547,-0.00024853360829539187,-2.63717336631639e-05,0.0003247186270405554,3.220003604888916,2019-07-26 15:22:18:078,-178.20265915169114,-156.4935297404786,0,-47.08082962036133,31.487178802490234,-21.591209411621094
0.2577780485153198,-0.0347837395966053,9.742874145507812,-0.0015804392950054507,-0.004554851225741058,-0.0026054740040059496,3.2300009727478027,2019-07-26 15:22:18:088,-178.2057374085747,-156.95868086599538,0,-47.980464935302734,31.187301635742188,-20.991453170776367
0.2338305413722992,-0.0347837395966053,9.716531753540039,0.0026816588764593053,-0.0008255151794175883,0.002988529935442092,3.2399957180023193,2019-07-26 15:22:18:098,-178.21358798133127,-157.41691001527096,0,-47.980464935302734,31.187301635742188,-20.991453170776367
0.2577780485153198,-0.022809991613030434,9.805137634277344,0.0021488966212808557,-0.0034893267153841595,-0.0010071871084334394,3.2500011920928955,2019-07-26 15:22:18:108,-178.21723659947733,-157.86711330431763,0,-47.980464935302734,31.187301635742188,-20.991453170776367
0.24340954422950745,-0.006046743132174015,9.81950569152832,0.0026816588764593053,-0.0029565642001313846,0.0027221488078528673,3.260065793991089,2019-07-26 15:22:18:119,-178.22282147188608,-158.3105808713852,0,-47.980464935302734,31.187301635742188,-20.991453170776367
0.23143579065799713,-0.0036519933491945267,9.788373947143555,-0.0007812959122377771,-0.00029275289172984846,0.0032549110630313164,3.269995927810669,2019-07-26 15:22:18:128,-178.23111289070903,-158.74350608701752,0,-47.980464935302734,31.187301635742188,-20.991453170776367
0.24819904565811157,-0.02041524089872837,9.754847526550293,-0.00024853360829539187,-0.0082841870119902,0.0019230054250851934,3.2800283432006836,2019-07-26 15:22:18:139,-178.2326739950048,-159.16609775821644,0,-47.980464935302734,31.187301635742188,-20.991453170776367
0.2458042949438095,-0.018020492047071457,9.783584594726562,0.0010833721109239577,0.002371058611727432,-0.0020727116187903376,3.2899980545043945,2019-07-26 15:22:18:148,-178.2405637233888,-159.58127160038103,0,-47.980464935302734,31.187301635742188,-20.991453170776367
0.22185680270195007,-0.06831023842096329,9.752452850341797,0.0010833721109239577,-0.001624658562185262,-0.0010071871084334394,3.2999954223632812,2019-07-26 15:22:18:158,-178.24877671244747,-159.98222798179637,0,-47.980464935302734,31.187301635742188,-20.991453170776367
0.21467255055904388,-0.010836242698132992,9.769216537475586,0.00294804000404853,-0.0008255151794175883,-0.003670998514362848,3.309998035430908,2019-07-26 15:22:18:168,-178.25816078998432,-160.3829680993955,0,-47.980464935302734,31.187301635742188,-20.991453170776367
0.2601727843284607,-0.03238898888230324,9.829085350036621,-0.0021132015501838996,-0.005353994608508731,0.001656624297495969,3.319998025894165,2019-07-26 15:22:18:178,-178.25966637367964,-160.77034614957634,0,-47.980464935302734,31.187301635742188,-20.991453170776367
0.26256754994392395,-0.015625741332769394,9.747663497924805,0.0002842286956469933,-0.002157420817363711,-0.0015399493636118885,3.330021381378174,2019-07-26 15:22:18:188,-178.26239938054474,-161.15326226440112,0,-47.980464935302734,31.187301635742188,-20.991453170776367
0.2936992943286896,-0.05394173786044121,9.769216537475586,0.0032144211316377544,-2.63717336631639e-05,5.833747100570152e-05,3.340001344680786,2019-07-26 15:22:18:198,-178.26269646733823,-161.52567106883944,0,-47.980464935302734,31.187301635742188,-20.991453170776367
0.22904103994369507,-0.03957323729991913,9.821900367736816,-0.0007812959122377771,-0.005087613480919507,-0.0015399493636118885,3.3499996662139893,2019-07-26 15:22:18:208,-178.26786908235886,-161.8901020621554,0,-47.980464935302734,31.187301635742188,-20.991453170776367
0.25059378147125244,-0.03957323729991913,9.733294486999512,0.0032144211316377544,-0.0018910396897744866,0.003521292450694866,3.360018491744995,2019-07-26 15:22:18:218,-178.27195161399297,-162.24944931995847,0,-47.980464935302734,31.187301635742188,-20.991453170776367
0.25059378147125244,-0.018020492047071457,9.769216537475586,0.0010833721109239577,-0.0013582774345960375,0.0032549110630313164,3.3700008392333984,2019-07-26 15:22:18:228,-178.27636339759593,-162.60295379530237,0,-47.980464935302734,31.187301635742188,-20.991453170776367
0.226646289229393,-0.0012572435662150383,9.812321662902832,-0.0018468204225946753,0.0021046773541010446,-0.0026054740040059496,3.3800206184387207,2019-07-26 15:22:18:238,-178.28555643806322,-162.94970885607557,0,-47.980464935302734,31.187301635742188,-20.991453170776367
0.23862004280090332,-0.01323099248111248,9.752452850341797,-0.00024853360829539187,-0.005353994608508731,-0.0007408059808442149,3.389998435974121,2019-07-26 15:22:18:248,-178.28881339709716,-163.28902079333824,0,-47.980464935302734,31.187301635742188,-20.991453170776367
0.219462051987648,-0.05633648484945297,9.735690116882324,0.0013497532385131823,-0.004288470098151833,0.001656624297495969,3.400001287460327,2019-07-26 15:22:18:258,-178.29480160239177,-163.61736760405637,0,-47.980464935302734,31.187301635742188,-20.991453170776367
0.25059378147125244,-0.03957323729991913,9.72850513458252,0.004812708157247427,-0.0005591340518283637,0.001656624297495969,3.4100208282470703,2019-07-26 15:22:18:268,-178.29908021764018,-163.94306657616707,0,-47.980464935302734,31.187301635742188,-20.991453170776367
0.23862004280090332,-0.015625741332769394,9.793163299560547,0.0024152777488700805,-0.0010918963070068127,0.0008574809147282953,3.419997453689575,2019-07-26 15:22:18:278,-178.30457111287248,-164.26372985536543,0,-47.980464935302734,31.187301635742188,-20.991453170776367
0.2721465528011322,-0.025204740464687347,9.742874145507812,-0.0026459639353995116,-0.0048212323533302825,-0.0010071871084334394,3.4299988746643066,2019-07-26 15:22:18:288,-178.30377178669016,-164.5740048737905,0,-47.980464935302734,31.187301635742188,-20.991453170776367
0.28890979290008545,-0.02759948931634426,9.805137634277344,0.0010833721109239577,-0.002423801944952936,0.004054054705873315,3.440006971359253,2019-07-26 15:22:18:298,-178.30257948590796,-164.8799080675413,0,-47.980464935302734,31.187301635742188,-20.991453170776367
0.2793307900428772,-0.04915223643183708,9.805137634277344,0.0010833721109239577,-0.002157420817363711,0.001656624297495969,3.449998140335083,2019-07-26 15:22:18:308,-178.30268132368536,-165.17717336156466,0,-47.980464935302734,31.187301635742188,-20.991453170776367
0.2913045287132263,-0.08267873525619507,9.759636878967285,0.0026816588764593053,0.0005063905560564065,-0.0015399493636118885,3.46002197265625,2019-07-26 15:22:18:318,-178.30271970631776,-165.46543184233735,0,-47.980464935302734,31.187301635742188,-20.991453170776367
0.2865150272846222,-0.03238898888230324,9.793163299560547,1.7847537580308712e-05,-0.002157420817363711,-0.00020804367690182974,3.4700005054473877,2019-07-26 15:22:18:328,-178.30194044750263,-165.75234332552296,0,-47.980464935302734,31.187301635742188,-20.991453170776367
0.27454128861427307,-0.03238898888230324,9.752452850341797,0.0018825154936916314,-0.0013582774345960375,0.001656624297495969,3.4801158905029297,2019-07-26 15:22:18:339,-178.302880016504,-166.0345599853387,0,-47.53064727783203,31.936996459960938,-21.14139175415039
0.2577780485153198,-0.058731235563755035,9.726110458374023,0.0005506098557455085,-0.0018910396897744866,0.002988529935442092,3.4901516437530518,2019-07-26 15:22:18:349,-178.305392893063,-166.30725951664843,0,-47.53064727783203,31.936996459960938,-21.14139175415039
0.26256754994392395,-0.04196798801422119,9.757242202758789,-0.0005149147521392618,-0.002423801944952936,0.006451484854176337,3.5000061988830566,2019-07-26 15:22:18:358,-178.30711470080394,-166.57590060961044,0,-47.53064727783203,31.936996459960938,-21.14139175415039
0.2793307900428772,-0.0347837395966053,9.76682186126709,0.0005506098557455085,-0.002157420817363711,0.005119579216230213,3.510016441345215,2019-07-26 15:22:18:368,-178.30699555957835,-166.8406110130922,0,-47.53064727783203,31.936996459960938,-21.14139175415039
0.21467255055904388,-0.058731235563755035,9.795557975769043,-0.0015804392950054507,-0.004288470098151833,0.0008574809147282953,3.5200037956237793,2019-07-26 15:22:18:378,-178.31334166347253,-167.09604201573183,0,-47.53064727783203,31.936996459960938,-21.14139175415039
0.25059378147125244,-0.03957323729991913,9.762031555175781,-0.002379582807810287,-0.002157420817363711,0.0013902431699067445,3.529999017715454,2019-07-26 15:22:18:388,-178.31645454029479,-167.348140404247,0,-47.53064727783203,31.936996459960938,-21.14139175415039
0.2601727843284607,-0.015625741332769394,9.762031555175781,0.0021488966212808557,-0.0026901830725421603,-0.0015399493636118885,3.540022850036621,2019-07-26 15:22:18:398,-178.31807817389395,-167.60055284899926,0,-47.53064727783203,31.936996459960938,-21.14139175415039
0.2601727843284607,-0.022809991613030434,9.79076862335205,-0.0010476770398270016,-0.0013582774345960375,0.0024557676802636425,3.5500340461730957,2019-07-26 15:22:18:409,-178.32050952025114,-167.84528317817424,0,-47.53064727783203,31.936996459960938,-21.14139175415039
0.226646289229393,-0.006046743132174015,9.783584594726562,-0.0013140581674162262,-0.004022088970562609,0.002189386552674418,3.5600085258483887,2019-07-26 15:22:18:418,-178.32530518967985,-168.08693332284932,0,-47.53064727783203,31.936996459960938,-21.14139175415039
0.219462051987648,-0.006046743132174015,9.742874145507812,-0.0007812959122377771,-0.0026901830725421603,0.0013902431699067445,3.5700104236602783,2019-07-26 15:22:18:428,-178.3314804323916,-168.32404468432003,0,-47.53064727783203,31.936996459960938,-21.14139175415039
0.25538328289985657,-0.02041524089872837,9.795557975769043,0.0010833721109239577,-0.0026901830725421603,0.0011238620423175197,3.5800178050994873,2019-07-26 15:22:18:438,-178.333470390472,-168.55578431513604,0,-47.53064727783203,31.936996459960938,-21.14139175415039
0.24340954422950745,-0.037178490310907364,9.785979270935059,-0.0010476770398270016,-0.0026901830725421603,0.0005910997871390706,3.590015411376953,2019-07-26 15:22:18:448,-178.33679399001892,-168.7797270059405,0,-47.53064727783203,31.936996459960938,-21.14139175415039
0.24101479351520538,0.013111254200339317,9.795557975769043,0.0024152777488700805,-0.0013582774345960375,-0.0018063304912011133,3.6000313758850098,2019-07-26 15:22:18:459,-178.34110523051098,-161.8070246014437,0,-47.53064727783203,31.936996459960938,-21.14139175415039
0.21706730127334595,0.02269025333225727,9.735690116882324,0.000816990983334733,-0.002157420817363711,0.005918722598997886,3.6100027561187744,2019-07-26 15:22:18:468,-178.34753006067865,-154.97401223176817,0,-47.53064727783203,31.936996459960938,-21.14139175415039
0.28172552585601807,-0.0012572435662150383,9.783584594726562,-0.0010476770398270016,-0.004288470098151833,0.005385960343819439,3.620020866394043,2019-07-26 15:22:18:478,-178.34517876074494,-155.47379539617495,0,-47.53064727783203,31.936996459960938,-21.14139175415039
0.21706730127334595,-0.02041524089872837,9.76682186126709,0.004546327029658202,-0.0008255151794175883,5.833747100570152e-05,3.6300156116485596,2019-07-26 15:22:18:488,-178.35234815841457,-155.96447564010725,0,-47.53064727783203,31.936996459960938,-21.14139175415039
0.22904103994369507,-0.0611259862780571,9.788373947143555,-0.003178726190577961,-0.006419519118865629,-0.001273568236022664,3.6400270462036133,2019-07-26 15:22:18:499,-178.35488379865546,-156.4362433681563,0,-47.53064727783203,31.936996459960938,-21.14139175415039
0.21467255055904388,-0.02759948931634426,9.800348281860352,0.0021488966212808557,-0.0034893267153841595,0.0003247186270405554,3.650028705596924,2019-07-26 15:22:18:509,-178.3607297546376,-156.9054982139992,0,-47.53064727783203,31.936996459960938,-21.14139175415039
0.25059378147125244,-0.008441492915153503,9.697373390197754,0.0037471836468905284,-0.005353994608508731,0.0024557676802636425,3.6600117683410645,2019-07-26 15:22:18:518,-178.3609085072293,-157.36849121364978,0,-47.53064727783203,31.936996459960938,-21.14139175415039
0.219462051987648,-0.02041524089872837,9.857821464538574,0.0024152777488700805,-0.004022088970562609,-0.0031382362591843983,3.6700124740600586,2019-07-26 15:22:18:528,-178.36592478029024,-157.82010450818748,0,-47.53064727783203,31.936996459960938,-21.14139175415039
0.26975178718566895,-0.037178490310907364,9.80753231048584,0.00294804000404853,-0.0048212323533302825,0.0013902431699067445,3.6800191402435303,2019-07-26 15:22:18:538,-178.3643874133311,-158.26101491461606,0,-47.53064727783203,31.936996459960938,-21.14139175415039
0.2458042949438095,-0.06831023842096329,9.833874702453613,0.0032144211316377544,-0.008816949267168651,0.003521292450694866,3.6900038719177246,2019-07-26 15:22:18:548,-178.36351955304045,-158.68963686900733,0,-47.53064727783203,31.936996459960938,-21.14139175415039
0.2649622857570648,-0.058731235563755035,9.800348281860352,0.0021488966212808557,-0.002157420817363711,0.0003247186270405554,3.70002818107605,2019-07-26 15:22:18:559,-178.3640613914676,-159.11018654065995,0,-47.53064727783203,31.936996459960938,-21.14139175415039
0.2913045287132263,-0.058731235563755035,9.831480026245117,-0.0007812959122377771,-0.004022088970562609,0.0013902431699067445,3.71000599861145,2019-07-26 15:22:18:568,-178.36058348705043,-159.52069970423906,0,-47.53064727783203,31.936996459960938,-21.14139175415039
0.29609403014183044,-0.025204740464687347,9.821900367736816,0.004279945902068978,-0.003755707842973384,-0.0026054740040059496,3.7200045585632324,2019-07-26 15:22:18:578,-178.35672863139365,-159.92974793144887,0,-47.53064727783203,31.936996459960938,-21.14139175415039
0.26256754994392395,-0.029994240030646324,9.77879524230957,0.0018825154936916314,-0.005620375736097956,0.002988529935442092,3.730008363723755,2019-07-26 15:22:18:588,-178.3556757738245,-160.328695579363,0,-47.53064727783203,32.836631774902344,-22.340904235839844
0.24819904565811157,-0.008441492915153503,9.79076862335205,-0.0018468204225946753,-0.0013582774345960375,-0.004203760769541297,3.7400269508361816,2019-07-26 15:22:18:599,-178.35875507168845,-160.72009475760078,0,-47.53064727783203,32.836631774902344,-22.340904235839844
0.2793307900428772,-0.03957323729991913,9.805137634277344,-0.0005149147521392618,-0.0026901830725421603,-0.002339092876416725,3.7500014305114746,2019-07-26 15:22:18:608,-178.35743703762066,-161.10077962100823,0,-47.53064727783203,32.836631774902344,-22.340904235839844
0.24819904565811157,-0.051546987146139145,9.814716339111328,0.0018825154936916314,-0.0026901830725421603,-0.003937379641952073,3.7600257396698,2019-07-26 15:22:18:619,-178.35980182696767,-161.47380532336442,0,-47.53064727783203,32.836631774902344,-22.340904235839844
0.25538328289985657,-0.051546987146139145,9.781189918518066,0.0018825154936916314,-0.0026901830725421603,0.002189386552674418,3.7706146240234375,2019-07-26 15:22:18:629,-178.36109366338616,-161.8394095607445,0,-47.53064727783203,32.836631774902344,-22.340904235839844
0.2577780485153198,-0.010836242698132992,9.776400566101074,-0.0015804392950054507,-0.003755707842973384,0.0005910997871390706,3.779987335205078,2019-07-26 15:22:18:638,-178.36168745929947,-162.20051947980275,0,-47.53064727783203,32.836631774902344,-22.340904235839844
0.24101479351520538,-0.008441492915153503,9.788373947143555,0.0002842286956469933,-0.0074850436292225285,-0.002339092876416725,3.790024995803833,2019-07-26 15:22:18:649,-178.36202536840943,-162.5556810480041,0,-47.53064727783203,32.836631774902344,-22.340904235839844
0.2577780485153198,-0.04675748944282532,9.800348281860352,-0.002912345062988736,-0.004288470098151833,5.833747100570152e-05,3.8000054359436035,2019-07-26 15:22:18:658,-178.3622475910818,-162.89746822278565,0,-47.53064727783203,32.836631774902344,-22.340904235839844
0.2649622857570648,-0.03238898888230324,9.742874145507812,-0.0018468204225946753,-0.005087613480919507,0.0005910997871390706,3.810023307800293,2019-07-26 15:22:18:668,-178.36098478344144,-163.2346705762343,0,-47.53064727783203,32.836631774902344,-22.340904235839844
0.24340954422950745,-0.029994240030646324,9.72850513458252,0.0026816588764593053,-0.001624658562185262,-0.00047442482074569963,3.8199973106384277,2019-07-26 15:22:18:678,-178.36419011197322,-163.56794600317065,0,-47.53064727783203,32.836631774902344,-22.340904235839844
0.28172552585601807,-0.029994240030646324,9.757242202758789,0.003480802519301304,-0.002423801944952936,-0.0026054740040059496,3.829993963241577,2019-07-26 15:22:18:688,-178.36246842422563,-163.89501830524063,0,-47.53064727783203,32.836631774902344,-22.340904235839844
0.23143579065799713,-0.01323099248111248,9.793163299560547,-0.0018468204225946753,-0.0008255151794175883,0.002189386552674418,3.8400111198425293,2019-07-26 15:22:18:698,-178.36767905790828,-164.2145309916616,0,-47.53064727783203,32.836631774902344,-22.340904235839844
0.2458042949438095,-0.04196798801422119,9.829085350036621,-0.0005149147521392618,-0.002157420817363711,-0.0020727116187903376,3.8500235080718994,2019-07-26 15:22:18:708,-178.37046167336564,-164.52505811711998,0,-47.53064727783203,32.836631774902344,-22.340904235839844
0.24101479351520538,-0.018020492047071457,9.812321662902832,-0.0021132015501838996,-0.0029565642001313846,0.004853198088640989,3.8600175380706787,2019-07-26 15:22:18:718,-178.37325247260367,-164.8312666126713,0,-47.53064727783203,32.836631774902344,-22.340904235839844
0.2338305413722992,-0.02041524089872837,9.795557975769043,0.005878232667604326,-0.0048212323533302825,0.005119579216230213,3.870018720626831,2019-07-26 15:22:18:728,-178.37573093963687,-165.13555405389315,0,-47.53064727783203,32.836631774902344,-22.340904235839844
0.23622529208660126,-0.02041524089872837,9.795557975769043,0.00294804000404853,-0.003755707842973384,0.0024557676802636425,3.880019426345825,2019-07-26 15:22:18:738,-178.37847831481184,-165.4321101735996,0,-47.53064727783203,32.836631774902344,-22.340904235839844
0.21467255055904388,-0.03957323729991913,9.754847526550293,0.0037471836468905284,-0.0018910396897744866,0.002988529935442092,3.8900184631347656,2019-07-26 15:22:18:748,-178.3846332194451,-165.72092310791876,0,-47.53064727783203,32.836631774902344,-22.340904235839844
0.24819904565811157,-0.025204740464687347,9.81950569152832,0.003480802519301304,-0.0034893267153841595,5.833747100570152e-05,3.900024652481079,2019-07-26 15:22:18:759,-178.38602195129587,-166.00551898776672,0,-47.53064727783203,32.836631774902344,-22.340904235839844
0.26256754994392395,-0.05633648484945297,9.809926986694336,-0.00024853360829539187,-0.0008255151794175883,0.004853198088640989,3.910020589828491,2019-07-26 15:22:18:768,-178.38717449814246,-166.27868841749154,0,-47.53064727783203,32.836631774902344,-22.340904235839844
0.2793307900428772,-0.006046743132174015,9.797953605651855,0.0032144211316377544,-0.0034893267153841595,-0.0026054740040059496,3.920018434524536,2019-07-26 15:22:18:778,-178.38481200831194,-166.55421195898452,0,-47.53064727783203,32.836631774902344,-22.340904235839844
0.26975178718566895,-0.037178490310907364,9.757242202758789,0.0016161343661024066,-0.0018910396897744866,-0.005802047535076645,3.9300198554992676,2019-07-26 15:22:18:788,-178.38438152577652,-166.81966898971848,0,-47.53064727783203,32.836631774902344,-22.340904235839844
0.25538328289985657,-0.015625741332769394,9.795557975769043,0.000816990983334733,-0.0029565642001313846,0.002189386552674418,3.9400224685668945,2019-07-26 15:22:18:798,-178.38516457054303,-167.08190652165163,0,-47.53064727783203,32.836631774902344,-22.340904235839844
0.20988304913043976,-0.022809991613030434,9.785979270935059,0.004013564774479754,-0.002157420817363711,0.0019230054250851934,3.9500184059143066,2019-07-26 15:22:18:808,-178.391677329007,-167.3398500942702,0,-47.53064727783203,32.836631774902344,-22.340904235839844
0.23862004280090332,-0.0347837395966053,9.764426231384277,-0.0005149147521392618,-0.0032229453277206094,0.005385960343819439,3.960017204284668,2019-07-26 15:22:18:818,-178.39403636056048,-167.58868193426918,0,-47.53064727783203,32.836631774902344,-22.340904235839844
0.24101479351520538,-0.051546987146139145,9.860217094421387,1.7847537580308712e-05,-0.003755707842973384,0.0027221488078528673,3.970017671585083,2019-07-26 15:22:18:828,-178.39604249635764,-167.83092778419572,0,-47.53064727783203,32.836631774902344,-22.340904235839844
0.2673570513725281,-0.037178490310907364,9.774005889892578,0.0021488966212808557,0.0007727717161549218,0.0032549110630313164,3.980018138885498,2019-07-26 15:22:18:838,-178.39721814591965,-168.0711570598701,0,-48.28034210205078,32.38681411743164,-19.791940689086914
0.2649622857570648,-0.058731235563755035,9.7500581741333,0.0037471836468905284,-0.0029565642001313846,0.0019230054250851934,3.990025758743286,2019-07-26 15:22:18:849,-178.39647929398913,-168.30493701449663,0,-48.28034210205078,32.38681411743164,-19.791940689086914
0.27454128861427307,-0.029994240030646324,9.769216537475586,0.0013497532385131823,-0.002157420817363711,0.00432043583346254,4.000021934509277,2019-07-26 15:22:18:858,-178.39514394264978,-168.53607759715834,0,-48.28034210205078,32.38681411743164,-19.791940689086914
0.23143579065799713,-0.0012572435662150383,9.814716339111328,0.0026816588764593053,-0.007218662501633303,-0.0007408059808442149,4.010018348693848,2019-07-26 15:22:18:868,-178.39617300704052,-168.76671446382704,0,-48.28034210205078,32.38681411743164,-19.791940689086914
0.2577780485153198,-0.006046743132174015,9.781189918518066,0.0010833721109239577,0.0029038208669058814,-0.0010071871084334394,4.020021200180054,2019-07-26 15:22:18:878,-178.3996874974729,-168.99128025369808,0,-48.28034210205078,32.38681411743164,-19.791940689086914
0.226646289229393,-0.0036519933491945267,9.764426231384277,0.0024152777488700805,-0.0013582774345960375,-0.00020804367690182974,4.030019998550415,2019-07-26 15:22:18:888,-178.4043376047737,-169.21238207692696,0,-48.28034210205078,32.38681411743164,-19.791940689086914
0.24340954422950745,-0.029994240030646324,9.802742958068848,-0.0005149147521392618,0.0010391528437441464,-0.0018063304912011133,4.040027856826782,2019-07-26 15:22:18:899,-178.4083866864359,-169.4243388452195,0,-48.28034210205078,32.38681411743164,-19.791940689086914
0.26256754994392395,-0.04196798801422119,9.762031555175781,-0.0007812959122377771,-0.003755707842973384,-0.00020804367690182974,4.050021648406982,2019-07-26 15:22:18:908,-178.40729738753285,-169.63048726424196,0,-48.28034210205078,32.38681411743164,-19.791940689086914
0.2601727843284607,-0.0036519933491945267,9.76682186126709,-0.0005149147521392618,-0.005087613480919507,0.0024557676802636425,4.060018062591553,2019-07-26 15:22:18:918,-178.40577760300795,-169.8371600199186,0,-48.28034210205078,32.38681411743164,-19.791940689086914
0.2601727843284607,0.015506003983318806,9.862611770629883,-0.0018468204225946753,-0.006153137991276405,0.0027221488078528673,4.07001805305481,2019-07-26 15:22:18:928,-178.40398517001645,-162.84118144103053,0,-48.28034210205078,32.38681411743164,-19.791940689086914
0.23143579065799713,-0.0611259862780571,9.733294486999512,0.003480802519301304,-0.004288470098151833,0.002988529935442092,4.0800275802612305,2019-07-26 15:22:18:939,-178.40625304739643,-163.1791177792538,0,-48.28034210205078,32.38681411743164,-19.791940689086914
0.20988304913043976,-0.015625741332769394,9.805137634277344,0.0005506098557455085,-0.0029565642001313846,0.004054054705873315,4.090018272399902,2019-07-26 15:22:18:948,-178.41194437033775,-163.51401814102476,0,-48.28034210205078,32.38681411743164,-19.791940689086914
0.27454128861427307,-0.04915223643183708,9.788373947143555,-0.0010476770398270016,-0.008550568139579426,0.0008574809147282953,4.100017309188843,2019-07-26 15:22:18:958,-178.40677295051967,-163.83739540861936,0,-48.28034210205078,32.38681411743164,-19.791940689086914
0.24819904565811157,-0.051546987146139145,9.711742401123047,0.0018825154936916314,-0.0018910396897744866,0.005918722598997886,4.110020160675049,2019-07-26 15:22:18:968,-178.40829604781317,-164.15562271598455,0,-48.28034210205078,32.38681411743164,-19.791940689086914
0.2458042949438095,-0.05394173786044121,9.7500581741333,0.0013497532385131823,-0.005353994608508731,-0.00047442482074569963,4.120016574859619,2019-07-26 15:22:18:978,-178.40824190393369,-164.46692821513045,0,-48.28034210205078,32.38681411743164,-19.791940689086914
0.22904103994369507,-0.02041524089872837,9.776400566101074,0.004546327029658202,-0.005353994608508731,0.002189386552674418,4.1300249099731445,2019-07-26 15:22:18:989,-178.4102267544633,-164.77775161866367,0,-48.28034210205078,32.38681411743164,-19.791940689086914
0.23143579065799713,-0.010836242698132992,9.76682186126709,-0.0007812959122377771,-0.003755707842973384,-0.00047442482074569963,4.140019655227661,2019-07-26 15:22:18:998,-178.41276582903274,-165.0804867328125,0,-48.28034210205078,32.38681411743164,-19.791940689086914
0.24340954422950745,-0.006046743132174015,9.764426231384277,-0.003178726190577961,-0.0032229453277206094,-0.004470141897130521,4.15002179145813,2019-07-26 15:22:19:008,-178.4141407512799,-165.37638214396245,0,-48.28034210205078,32.38681411743164,-19.791940689086914
0.26975178718566895,0.0059270053170621395,9.800348281860352,0.004279945902068978,-0.0074850436292225285,-0.0018063304912011133,4.16002082824707,2019-07-26 15:22:19:018,-178.4101224615891,-158.4719504743856,0,-48.28034210205078,32.38681411743164,-19.791940689086914
0.2793307900428772,-0.04675748944282532,9.747663497924805,-0.0007812959122377771,-0.004288470098151833,-0.006334809790255094,4.170016765594482,2019-07-26 15:22:19:028,-178.40668444228544,-158.89657627287568,0,-48.28034210205078,32.38681411743164,-19.791940689086914
0.2577780485153198,-0.018020492047071457,9.860217094421387,-0.00024853360829539187,-0.0034893267153841595,-0.002871855131595174,4.180028200149536,2019-07-26 15:22:19:039,-178.40663813385024,-159.31641076829527,0,-48.28034210205078,32.38681411743164,-19.791940689086914
0.2841202914714813,-0.044362738728523254,9.800348281860352,-0.0026459639353995116,-0.003755707842973384,0.0027221488078528673,4.190022706985474,2019-07-26 15:22:19:048,-178.4031859559902,-159.7234105414391,0,-48.28034210205078,32.38681411743164,-19.791940689086914
0.24340954422950745,0.0059270053170621395,9.797953605651855,0.0024152777488700805,-0.002157420817363711,-0.002871855131595174,4.2000203132629395,2019-07-26 15:22:19:058,-178.40544913027782,-152.930991371507,0,-48.28034210205078,32.38681411743164,-19.791940689086914
0.2673570513725281,-0.06352073699235916,9.788373947143555,0.0005506098557455085,-0.0005591340518283637,-0.0007408059808442149,4.210017681121826,2019-07-26 15:22:19:068,-178.40573482262977,-153.46524442175044,0,-48.28034210205078,32.38681411743164,-19.791940689086914
0.2913045287132263,-0.06352073699235916,9.785979270935059,0.0005506098557455085,-0.0010918963070068127,-0.002871855131595174,4.22002649307251,2019-07-26 15:22:19:079,-178.40290546953477,-153.9888109451775,0,-48.28034210205078,32.38681411743164,-19.791940689086914
0.24819904565811157,-0.04915223643183708,9.771611213684082,0.0018825154936916314,-0.005353994608508731,-0.006867572045433543,4.230020523071289,2019-07-26 15:22:19:088,-178.4027428810172,-154.50432709728372,0,-47.53064727783203,32.236873626708984,-21.14139175415039
0.24340954422950745,-0.051546987146139145,9.771611213684082,-0.00371148844575641,-0.004288470098151833,-0.00047442482074569963,4.240010738372803,2019-07-26 15:22:19:098,-178.403743705246,-155.0061137462709,0,-47.53064727783203,32.236873626708984,-21.14139175415039
0.3056730329990387,-0.0347837395966053,9.757242202758789,0.003480802519301304,-0.0029565642001313846,0.0019230054250851934,4.250017881393433,2019-07-26 15:22:19:108,-178.39812024952755,-155.50386225887135,0,-47.53064727783203,32.236873626708984,-21.14139175415039
0.25538328289985657,-0.025204740464687347,9.754847526550293,0.0016161343661024066,-0.005620375736097956,5.833747100570152e-05,4.260016202926636,2019-07-26 15:22:19:118,-178.39700916050313,-155.99173148908167,0,-47.53064727783203,32.236873626708984,-21.14139175415039
0.2649622857570648,-0.02759948931634426,9.769216537475586,-0.0007812959122377771,-0.00029275289172984846,0.0011238620423175197,4.270027160644531,2019-07-26 15:22:19:129,-178.39783232461383,-156.46822030867992,0,-47.53064727783203,32.236873626708984,-21.14139175415039
0.226646289229393,-0.0347837395966053,9.759636878967285,-0.0007812959122377771,-0.003755707842973384,0.002189386552674418,4.2799952030181885,2019-07-26 15:22:19:138,-178.40116698353214,-156.93433453578083,0,-47.53064727783203,32.236873626708984,-21.14139175415039
0.219462051987648,-0.05394173786044121,9.77879524230957,-0.0010476770398270016,-0.004288470098151833,-0.0010071871084334394,4.290010213851929,2019-07-26 15:22:19:148,-178.40501899622913,-157.38873766347214,0,-47.53064727783203,32.236873626708984,-21.14139175415039
0.2649622857570648,-0.05394173786044121,9.797953605651855,0.00294804000404853,-0.002157420817363711,0.0011238620423175197,4.300016164779663,2019-07-26 15:22:19:158,-178.40472550328988,-157.8363105459355,0,-47.53064727783203,32.236873626708984,-21.14139175415039
0.22425153851509094,-0.0611259862780571,9.800348281860352,-0.0005149147521392618,-0.0029565642001313846,0.0005910997871390706,4.309995174407959,2019-07-26 15:22:19:168,-178.4087581089966,-158.27214869315375,0,-47.53064727783203,32.236873626708984,-21.14139175415039
0.2649622857570648,-0.02759948931634426,9.800348281860352,0.0013497532385131823,-0.004288470098151833,0.0011238620423175197,4.3200364112854,2019-07-26 15:22:19:179,-178.4071916101008,-158.70423963963137,0,-47.53064727783203,32.236873626708984,-21.14139175415039
0.219462051987648,-0.029994240030646324,9.802742958068848,0.0016161343661024066,-0.0018910396897744866,0.0019230054250851934,4.330018758773804,2019-07-26 15:22:19:188,-178.41233756811064,-159.12755446316146,0,-47.53064727783203,32.236873626708984,-21.14139175415039
0.2673570513725281,-0.0347837395966053,9.754847526550293,0.00294804000404853,-0.002423801944952936,-0.00047442482074569963,4.34001350402832,2019-07-26 15:22:19:198,-178.4113316239123,-159.54257174726988,0,-47.53064727783203,32.236873626708984,-21.14139175415039
0.23862004280090332,-0.044362738728523254,9.745268821716309,0.0024152777488700805,-0.0026901830725421603,0.003787673578284091,4.35002064704895,2019-07-26 15:22:19:208,-178.4135404015311,-159.94786101696238,0,-47.53064727783203,32.236873626708984,-21.14139175415039
0.26975178718566895,-0.04196798801422119,9.70934772491455,0.006943757177961223,-0.004022088970562609,0.0027221488078528673,4.360023021697998,2019-07-26 15:22:19:218,-178.41118223092005,-160.34785052217472,0,-47.53064727783203,32.236873626708984,-21.14139175415039
0.25538328289985657,-0.058731235563755035,9.757242202758789,0.004279945902068978,-0.0018910396897744866,0.005385960343819439,4.370027780532837,2019-07-26 15:22:19:229,-178.4119102421666,-160.73640037528446,0,-47.53064727783203,32.236873626708984,-21.14139175415039
0.22904103994369507,-0.058731235563755035,9.793163299560547,-0.00024853360829539187,-0.005353994608508731,0.00432043583346254,4.380026340484619,2019-07-26 15:22:19:239,-178.4138705918977,-161.11466067184023,0,-47.53064727783203,32.236873626708984,-21.14139175415039
0.25059378147125244,-0.022809991613030434,9.771611213684082,0.0002842286956469933,0.001305533971333371,0.003521292450694866,4.390023946762085,2019-07-26 15:22:19:248,-178.41694539941167,-161.48985209430268,0,-47.53064727783203,32.236873626708984,-21.14139175415039
0.2458042949438095,-0.029994240030646324,9.77879524230957,0.0016161343661024066,-0.0032229453277206094,0.0027221488078528673,4.400024175643921,2019-07-26 15:22:19:258,-178.41799857352763,-161.8574477048723,0,-47.53064727783203,32.236873626708984,-21.14139175415039
0.226646289229393,-0.05394173786044121,9.812321662902832,-0.00024853360829539187,-0.004288470098151833,0.0013902431699067445,4.41002893447876,2019-07-26 15:22:19:269,-178.42076568351422,-162.21385970081306,0,-47.53064727783203,32.236873626708984,-21.14139175415039
0.226646289229393,-0.01323099248111248,9.77879524230957,0.000816990983334733,-0.006685900246454855,0.002189386552674418,4.4200263023376465,2019-07-26 15:22:19:279,-178.42204273334642,-162.56849066942152,0,-47.53064727783203,32.236873626708984,-21.14139175415039
0.2338305413722992,-0.03238898888230324,9.80753231048584,0.0013497532385131823,0.0005063905560564065,0.002189386552674418,4.430025100708008,2019-07-26 15:22:19:289,-178.42657051282893,-162.91409432225822,0,-47.53064727783203,32.236873626708984,-21.14139175415039
0.25538328289985657,-0.025204740464687347,9.785979270935059,0.000816990983334733,0.0005063905560564065,0.006717865981765561,4.440026521682739,2019-07-26 15:22:19:299,-178.42842547355755,-163.25331982990505,0,-47.53064727783203,32.236873626708984,-21.14139175415039
0.2601727843284607,-0.029994240030646324,9.776400566101074,0.0002842286956469933,-0.0048212323533302825,-0.0018063304912011133,4.4500226974487305,2019-07-26 15:22:19:308,-178.42666259778846,-163.58489727980654,0,-47.53064727783203,32.236873626708984,-21.14139175415039
0.2673570513725281,-0.04915223643183708,9.829085350036621,0.0016161343661024066,-0.0010918963070068127,-0.0015399493636118885,4.460019588470459,2019-07-26 15:22:19:318,-178.4263545265393,-163.90837618524463,0,-47.53064727783203,32.236873626708984,-21.14139175415039
0.28172552585601807,-0.05633648484945297,9.829085350036621,0.0002842286956469933,-0.0018910396897744866,-0.005002904152308971,4.470096111297607,2019-07-26 15:22:19:329,-178.42392175260582,-164.22380160737575,0,-47.53064727783203,32.236873626708984,-21.14139175415039
