ACCELEROMETER X (m/s²),ACCELEROMETER Y (m/s²),ACCELEROMETER Z (m/s²),GYROSCOPE X (rad/s),GYROSCOPE Y (rad/s),GYROSCOPE Z (rad/s),Time since start in ms ,YYYY-MO-DD HH-MI-SS_SSS,Pitch (Deg),Roll (Deg),Heading (Deg),MagX,MagY,MagZ
0.14373527467250824,-0.4810549318790436,9.804438591003418,0.002507179432944107,0.003980799830767698,0.002915275320410799,0.0,2019-07-25 12:18:56:587,-3.583201823105565,-3.543820686418347,0,-49.77973175048828,36.28522491455078,-40.18363952636719
0.17007751762866974,-0.47626543045043945,9.830780029296875,0.0003761301846652757,-0.0005476796633420271,0.0037144187031784726,0.010198354721069336,2019-07-25 12:18:56:597,-7.091401217761237,-7.01768759974748,0,-49.77973175048828,36.28522491455078,-40.18363952636719
0.15091952681541443,-0.46908116340637207,9.852333068847656,-0.0017549189985949741,-0.0010804419185204762,0.0007842261046412585,0.020914316177368164,2019-07-25 12:18:56:608,-10.531371156306784,-10.421760693349984,0,-49.77973175048828,36.28522491455078,-40.18363952636719
0.16289326548576355,-0.4930286705493927,9.737384796142578,0.001974417047728495,-0.0018795853663067313,0.006378230239145044,0.029967546463012695,2019-07-25 12:18:56:617,-13.900620440543474,-13.75635802144992,0,-49.77973175048828,36.28522491455078,-40.18363952636719
0.17486701905727386,-0.45710742473602295,9.897833824157715,-0.003619587021756709,0.0031816564480000235,0.0007842261046412585,0.03995203971862793,2019-07-25 12:18:56:627,-17.204148742205557,-17.026317865977674,0,-49.77973175048828,36.28522491455078,-40.18363952636719
0.1652880162000656,-0.4403441846370697,9.761332511901855,0.000642511344763791,-1.491734416091191e-05,-0.0005476796633420271,0.04995441436767578,2019-07-25 12:18:56:637,-20.440655528432654,-20.234493904411355,0,-49.77973175048828,36.28522491455078,-40.18363952636719
0.14373527467250824,-0.5050024390220642,9.811622619628906,0.0017080359201392707,0.0023825130652323496,-0.0034778722618792413,0.06001758575439453,2019-07-25 12:18:56:647,-23.616402767535902,-23.37184107638371,0,-49.77973175048828,36.28522491455078,-40.18363952636719
0.16768276691436768,-0.48344966769218445,9.794858932495117,-0.001222156743416525,0.0002514638006988733,-0.0016132042387175067,0.06997084617614746,2019-07-25 12:18:56:657,-26.72459970051139,-26.447207566181554,0,-49.77973175048828,36.28522491455078,-40.18363952636719
0.1652880162000656,-0.4882391691207886,9.749359130859375,0.0030399416881225563,0.0031816564480000235,0.0037144187031784726,0.07993054389953613,2019-07-25 12:18:56:667,-29.772461318163558,-29.462624934154558,0,-49.77973175048828,36.28522491455078,-40.18363952636719
0.14373527467250824,-0.5241604447364807,9.739779472351074,0.0011752736649608213,0.004247180958356922,0.003980799830767698,0.09000301361083984,2019-07-25 12:18:56:677,-32.7625044824029,-32.412427445146704,0,-49.03003692626953,35.53553009033203,-40.93333435058594
0.1533142775297165,-0.4547126889228821,9.828385353088379,-0.00308682476657826,0.0031816564480000235,0.0023825130652323496,0.09997224807739258,2019-07-25 12:18:56:687,-35.69116155373112,-35.30947268941893,0,-49.03003692626953,35.53553009033203,-40.93333435058594
0.11739302426576614,-0.4858444333076477,9.790069580078125,0.0003761301846652757,0.005312705728788145,0.003980799830767698,0.1099705696105957,2019-07-25 12:18:56:697,-38.5665808485565,-38.146673518937305,0,-49.03003692626953,35.53553009033203,-40.93333435058594
0.17486701905727386,-0.49542343616485596,9.794858932495117,-0.0014885378710057496,-0.0016132042387175067,-0.004543397032310465,0.11996126174926758,2019-07-25 12:18:56:707,-41.37388847467203,-40.92499401734157,0,-49.03003692626953,35.53553009033203,-40.93333435058594
0.14373527467250824,-0.4547126889228821,9.787674903869629,-0.00042301326312097924,-0.0029451100067007917,-0.0005476796633420271,0.12997078895568848,2019-07-25 12:18:56:717,-44.127928510849806,-43.65305805809345,0,-49.03003692626953,35.53553009033203,-40.93333435058594
0.16768276691436768,-0.4882391691207886,9.766121864318848,-0.0014885378710057496,0.001316988424838289,0.001050607232230483,0.13996219635009766,2019-07-25 12:18:56:727,-46.82643553618232,-46.32192153161211,0,-49.03003692626953,35.53553009033203,-40.93333435058594
0.12457727640867233,-0.44513368606567383,9.782885551452637,-0.00015663211927710938,0.0005178449445427432,0.0002514638006988733,0.14995527267456055,2019-07-25 12:18:56:737,-49.475605857280605,-48.94329054082489,0,-49.03003692626953,35.53553009033203,-40.93333435058594
0.1461300253868103,-0.4523179233074188,9.818806648254395,0.0003761301846652757,0.0002514638006988733,-0.002412347751522343,0.15996742248535156,2019-07-25 12:18:56:747,-52.06918208760109,-51.51188517178277,0,-49.03003692626953,35.53553009033203,-40.93333435058594
0.14373527467250824,-0.4786601662635803,9.792464256286621,0.0003761301846652757,-0.0013468231111282822,0.0031816564480000235,0.16995906829833984,2019-07-25 12:18:56:757,-54.61022412333653,-54.02589015295638,0,-49.03003692626953,35.53553009033203,-40.93333435058594
0.14134052395820618,-0.42358094453811646,9.802042961120605,0.002507179432944107,0.0005178449445427432,-0.0016132042387175067,0.17995953559875488,2019-07-25 12:18:56:767,-57.10178804292892,-56.4972919175936,0,-49.03003692626953,35.53553009033203,-40.93333435058594
0.16289326548576355,-0.4355546832084656,9.842754364013672,-0.0020213001261841987,0.003980799830767698,-0.005342540415078138,0.19021320343017578,2019-07-25 12:18:56:777,-59.54308152686516,-58.915507136136554,0,-49.03003692626953,35.53553009033203,-40.93333435058594
0.1652880162000656,-0.4738706648349762,9.816411972045898,-0.0028204436389890346,0.0026488941928215744,0.001316988424838289,0.20056653022766113,2019-07-25 12:18:56:787,-61.934466780386934,-61.280283136782955,0,-49.03003692626953,35.53553009033203,-40.93333435058594
0.17007751762866974,-0.4882391691207886,9.725411415100098,0.004371847326068679,0.001849750680016738,0.00904204151503729,0.20996737480163574,2019-07-25 12:18:56:797,-64.27671617395423,-63.59950570282631,0,-49.629791259765625,35.83540725708008,-41.233211517333984
0.15810376405715942,-0.46908116340637207,9.785280227661133,0.0003761301846652757,0.0005178449445427432,-1.491734416091191e-05,0.2199714183807373,2019-07-25 12:18:56:807,-66.57295943968248,-65.87283664512364,0,-49.629791259765625,35.83540725708008,-41.233211517333984
0.14134052395820618,-0.44992318749427795,9.775701522827148,-0.0006893944232194946,0.004513562346020471,-0.0002812985032435118,0.2299809455871582,2019-07-25 12:18:56:817,-68.82747012905041,-68.10228928385365,0,-49.629791259765625,35.83540725708008,-41.233211517333984
0.19641976058483124,-0.4738706648349762,9.756543159484863,-0.0006893944232194946,0.0023825130652323496,0.0031816564480000235,0.23997759819030762,2019-07-25 12:18:56:827,-71.0291914784051,-70.28424366081208,0,-49.629791259765625,35.83540725708008,-41.233211517333984
0.17726176977157593,-0.46908116340637207,9.790069580078125,-0.0025540625113998103,-0.0002812985032435118,0.0005178449445427432,0.24998116493225098,2019-07-25 12:18:56:837,-73.18770363878475,-72.42226075938632,0,-49.629791259765625,35.83540725708008,-41.233211517333984
0.179656520485878,-0.4738706648349762,9.70146369934082,0.002507179432944107,0.001050607232230483,-0.0002812985032435118,0.2599766254425049,2019-07-25 12:18:56:847,-75.30332100429362,-74.51929457118145,0,-49.629791259765625,35.83540725708008,-41.233211517333984
0.1461300253868103,-0.48344966769218445,9.82120132446289,-0.000955775550808719,0.001050607232230483,0.0015833695524275135,0.26997876167297363,2019-07-25 12:18:56:857,-77.38079576146835,-76.57200957771636,0,-49.629791259765625,35.83540725708008,-41.233211517333984
0.14852477610111237,-0.46908116340637207,9.802042961120605,-0.000955775550808719,0.0015833695524275135,-0.0002812985032435118,0.27997875213623047,2019-07-25 12:18:56:867,-79.41670682741326,-78.58523622044589,0,-49.629791259765625,35.83540725708008,-41.233211517333984
0.12457727640867233,-0.49542343616485596,9.761332511901855,-0.0017549189985949741,0.003448037575589248,0.002116131807605963,0.2899775505065918,2019-07-25 12:18:56:877,-81.4156847758938,-80.55443667086512,0,-49.629791259765625,35.83540725708008,-41.233211517333984
0.12936677038669586,-0.47626543045043945,9.825990676879883,-0.0006893944232194946,-0.0018795853663067313,-0.0005476796633420271,0.29998111724853516,2019-07-25 12:18:56:887,-83.3712293255094,-82.48746165087832,0,-49.629791259765625,35.83540725708008,-41.233211517333984
0.14134052395820618,-0.48344966769218445,9.787674903869629,0.00010974903269408318,0.006378230239145044,-0.002145966493895956,0.3099808692932129,2019-07-25 12:18:56:897,-85.29083938597208,-84.38121897048207,0,-49.629791259765625,35.83540725708008,-41.233211517333984
0.11260352283716202,-0.4618969261646271,9.828385353088379,-0.003619587021756709,0.004247180958356922,-0.0029451100067007917,0.3199770450592041,2019-07-25 12:18:56:907,-87.17427832565168,-86.23774887334848,0,-49.629791259765625,35.83540725708008,-41.233211517333984
0.16768276691436768,-0.46429166197776794,9.871491432189941,-0.002287681383810586,-0.0002812985032435118,0.0002514638006988733,0.3299844264984131,2019-07-25 12:18:56:917,-89.01117139183832,-88.05785158573822,0,-49.629791259765625,35.83540725708008,-41.233211517333984
0.1341562718153,-0.4666864275932312,9.778096199035645,-0.00042301326312097924,0.003980799830767698,-0.002145966493895956,0.3399789333343506,2019-07-25 12:18:56:927,-90.81746088153804,-89.84180667403082,0,-49.32991409301758,35.53553009033203,-40.63345718383789
0.14134052395820618,-0.4523179233074188,9.749359130859375,0.0011752736649608213,0.003448037575589248,-0.0008140607909312516,0.3499774932861328,2019-07-25 12:18:56:937,-92.58643580117123,-91.59250412419576,0,-49.32991409301758,35.53553009033203,-40.63345718383789
0.1724722683429718,-0.4858444333076477,9.845149040222168,0.0038390850708902298,0.004779943473609696,-0.0005476796633420271,0.35997891426086426,2019-07-25 12:18:56:947,-94.31731872637212,-93.3063064836437,0,-49.32991409301758,35.53553009033203,-40.63345718383789
0.14134052395820618,-0.44513368606567383,9.833174705505371,-0.003619587021756709,0.0002514638006988733,-0.0026787288791115674,0.3699769973754883,2019-07-25 12:18:56:957,-96.01464344309714,-94.98630978918303,0,-49.32991409301758,35.53553009033203,-40.63345718383789
0.14852477610111237,-0.5169761776924133,9.797253608703613,-0.0028204436389890346,-0.0016132042387175067,-0.002145966493895956,0.3799862861633301,2019-07-25 12:18:56:967,-97.676073356944,-96.62458742122439,0,-49.32991409301758,35.53553009033203,-40.63345718383789
0.1389457732439041,-0.4618969261646271,9.825990676879883,-0.0038859681493459333,-0.0005476796633420271,-1.491734416091191e-05,0.3899803161621094,2019-07-25 12:18:56:977,-99.30604165483192,-98.23608781216821,0,-49.32991409301758,35.53553009033203,-40.63345718383789
0.15570901334285736,-0.4666864275932312,9.816411972045898,0.0033063228157117807,0.0037144187031784726,0.002915275320410799,0.3999817371368408,2019-07-25 12:18:56:987,-100.90383164342924,-99.81878531873508,0,-49.32991409301758,35.53553009033203,-40.63345718383789
0.16289326548576355,-0.49542343616485596,9.768516540527344,-0.0006893944232194946,0.005845467983966595,-0.0034778722618792413,0.4099769592285156,2019-07-25 12:18:56:997,-102.46992891154609,-101.3639558065116,0,-49.32991409301758,35.53553009033203,-40.63345718383789
0.14852477610111237,-0.4978181719779968,9.825990676879883,0.000642511344763791,0.0023825130652323496,0.006378230239145044,0.4199833869934082,2019-07-25 12:18:57:007,-104.00454920129519,-102.87903129872694,0,-49.32991409301758,35.53553009033203,-40.63345718383789
0.09344552457332611,-0.46908116340637207,9.83796501159668,0.0027735605605333316,0.0005178449445427432,0.004779943473609696,0.4299781322479248,2019-07-25 12:18:57:017,-105.51386472676258,-104.3684104844153,0,-49.32991409301758,35.53553009033203,-40.63345718383789
0.11739302426576614,-0.4666864275932312,9.818806648254395,0.00010974903269408318,0.003448037575589248,0.001849750680016738,0.43997621536254883,2019-07-25 12:18:57:027,-106.99182328875564,-105.8266796467139,0,-49.32991409301758,35.53553009033203,-40.63345718383789
0.12218252569437027,-0.4978181719779968,9.768516540527344,-0.0017549189985949741,0.0015833695524275135,-0.0029451100067007917,0.4499795436859131,2019-07-25 12:18:57:037,-108.4385440578024,-107.25081324927825,0,-49.32991409301758,35.53553009033203,-40.63345718383789
0.14852477610111237,-0.43794941902160645,9.785280227661133,0.000642511344763791,0.006111849111555819,-0.002412347751522343,0.4599788188934326,2019-07-25 12:18:57:047,-109.85581290739567,-108.65490540030686,0,-49.92966842651367,35.235652923583984,-42.13284683227539
0.18684077262878418,-0.4523179233074188,9.778096199035645,-0.0028204436389890346,-0.00480977815989969,0.0002514638006988733,0.469984769821167,2019-07-25 12:18:57:057,-111.23410076073307,-110.02725234996348,0,-49.92966842651367,35.235652923583984,-42.13284683227539
0.18684077262878418,-0.4331599175930023,9.79964828491211,0.0057037529640148014,-0.0026787288791115674,0.002116131807605963,0.47997546195983887,2019-07-25 12:18:57:067,-112.58607058371436,-111.37928864274434,0,-49.92966842651367,35.235652923583984,-42.13284683227539
0.14373527467250824,-0.43794941902160645,9.806833267211914,-0.00308682476657826,-0.0026787288791115674,-0.0008140607909312516,0.4899790287017822,2019-07-25 12:18:57:077,-113.9160504573168,-112.69882916720739,0,-49.92966842651367,35.235652923583984,-42.13284683227539
0.15570901334285736,-0.4978181719779968,9.806833267211914,-0.001222156743416525,-1.491734416091191e-05,-0.0005476796633420271,0.49997878074645996,2019-07-25 12:18:57:087,-115.21952820725073,-113.9860468486998,0,-49.92966842651367,35.235652923583984,-42.13284683227539
0.11020877212285995,-0.49063393473625183,9.802042961120605,-0.002287681383810586,0.0023825130652323496,-0.002145966493895956,0.5099787712097168,2019-07-25 12:18:57:097,-116.5035919188151,-115.24773126470448,0,-49.92966842651367,35.235652923583984,-42.13284683227539
0.15570901334285736,-0.47626543045043945,9.897833824157715,0.0017080359201392707,0.004247180958356922,-0.0034778722618792413,0.5199770927429199,2019-07-25 12:18:57:107,-117.75787883867852,-116.48863869929991,0,-49.92966842651367,35.235652923583984,-42.13284683227539
0.1652880162000656,-0.4523179233074188,9.739779472351074,-0.003619587021756709,0.0015833695524275135,-0.0016132042387175067,0.5299804210662842,2019-07-25 12:18:57:117,-118.98416583088064,-117.70365444189937,0,-49.92966842651367,35.235652923583984,-42.13284683227539
0.14134052395820618,-0.4858444333076477,9.794858932495117,-0.002287681383810586,0.002116131807605963,-0.0016132042387175067,0.5399777889251709,2019-07-25 12:18:57:127,-120.18913590923997,-118.89150402134071,0,-49.92966842651367,35.235652923583984,-42.13284683227539
0.10781402885913849,-0.4786601662635803,9.742175102233887,-0.0025540625113998103,0.004247180958356922,-0.0018795853663067313,0.5499866008758545,2019-07-25 12:18:57:137,-121.37505905721169,-120.05598179300917,0,-49.92966842651367,35.235652923583984,-42.13284683227539
0.16289326548576355,-0.4666864275932312,9.742175102233887,0.0009088924723530155,0.0037144187031784726,0.004513562346020471,0.5599808692932129,2019-07-25 12:18:57:147,-122.5304839163,-121.20052051865638,0,-49.92966842651367,35.235652923583984,-42.13284683227539
0.14373527467250824,-0.5073971748352051,9.876280784606934,-0.0006893944232194946,-0.0005476796633420271,0.001316988424838289,0.569976806640625,2019-07-25 12:18:57:157,-123.66289084087158,-122.31730309504127,0,-49.92966842651367,35.235652923583984,-42.13284683227539
0.1916302591562271,-0.4858444333076477,9.840359687805176,0.0011752736649608213,0.0007842261046412585,0.003980799830767698,0.5799803733825684,2019-07-25 12:18:57:167,-124.76776088851136,-123.41508622170278,0,-49.92966842651367,35.235652923583984,-42.13284683227539
0.1652880162000656,-0.4666864275932312,9.756543159484863,-0.0006893944232194946,0.0031816564480000235,0.002116131807605963,0.5899782180786133,2019-07-25 12:18:57:177,-125.85478039830733,-124.49162645354615,0,-49.17997741699219,35.985347747802734,-40.78339385986328
0.12936677038669586,-0.48344966769218445,9.802042961120605,-0.0028204436389890346,0.0023825130652323496,-1.491734416091191e-05,0.5999784469604492,2019-07-25 12:18:57:187,-126.92389975214427,-125.54373790862914,0,-49.17997741699219,35.985347747802734,-40.78339385986328
0.13176152110099792,-0.4283704161643982,9.864306449890137,-0.00042301326312097924,0.001316988424838289,-0.0008140607909312516,0.6099774837493896,2019-07-25 12:18:57:197,-127.97085562644146,-126.5828940142296,0,-49.17997741699219,35.985347747802734,-40.78339385986328
0.12218252569437027,-0.4738706648349762,9.79964828491211,0.00010974903269408318,-0.0008140607909312516,-0.0034778722618792413,0.6199817657470703,2019-07-25 12:18:57:207,-128.99669462910424,-127.59592915096765,0,-49.17997741699219,35.985347747802734,-40.78339385986328
0.16768276691436768,-0.46429166197776794,9.778096199035645,-0.00042301326312097924,0.0015833695524275135,0.0002514638006988733,0.6299762725830078,2019-07-25 12:18:57:217,-129.99800013905107,-128.58940270097347,0,-49.17997741699219,35.985347747802734,-40.78339385986328
0.11260352283716202,-0.45710742473602295,9.766121864318848,-0.000955775550808719,-0.0005476796633420271,0.0002514638006988733,0.6399834156036377,2019-07-25 12:18:57:227,-130.98452055774865,-129.56348165328237,0,-49.17997741699219,35.985347747802734,-40.78339385986328
0.15570901334285736,-0.4523179233074188,9.79964828491211,-0.0017549189985949741,-0.002412347751522343,0.0007842261046412585,0.6499741077423096,2019-07-25 12:18:57:237,-131.94527067579017,-130.5183735589151,0,-49.17997741699219,35.985347747802734,-40.78339385986328
0.1533142775297165,-0.4595021903514862,9.761332511901855,-0.0025540625113998103,0.003448037575589248,-0.0018795853663067313,0.6599793434143066,2019-07-25 12:18:57:247,-132.89030574640816,-131.45266852115194,0,-49.17997741699219,35.985347747802734,-40.78339385986328
0.14852477610111237,-0.48344966769218445,9.814017295837402,-0.0017549189985949741,0.002116131807605963,0.0007842261046412585,0.669978141784668,2019-07-25 12:18:57:257,-133.81634679668667,-132.3662263721787,0,-49.17997741699219,35.985347747802734,-40.78339385986328
0.16768276691436768,-0.45710742473602295,9.83796501159668,-0.001222156743416525,0.002116131807605963,0.004513562346020471,0.6799795627593994,2019-07-25 12:18:57:267,-134.72167861732643,-133.265010391943,0,-49.17997741699219,35.985347747802734,-40.78339385986328
0.18205127120018005,-0.4547126889228821,9.792464256286621,-0.0017549189985949741,0.001316988424838289,0.0002514638006988733,0.6899757385253906,2019-07-25 12:18:57:277,-135.6066830370219,-134.14555282626344,0,-49.17997741699219,35.985347747802734,-40.78339385986328
0.1652880162000656,-0.4786601662635803,9.785280227661133,-0.0014885378710057496,0.0015833695524275135,0.0005178449445427432,0.6999771595001221,2019-07-25 12:18:57:287,-136.47608417512123,-135.00579647873187,0,-49.17997741699219,35.985347747802734,-40.78339385986328
0.14852477610111237,-0.4547126889228821,9.768516540527344,-0.001222156743416525,-0.0005476796633420271,-0.0005476796633420271,0.7099778652191162,2019-07-25 12:18:57:297,-137.32883329166916,-135.8516917459599,0,-49.92966842651367,35.53553009033203,-41.83296585083008
0.15091952681541443,-0.4666864275932312,9.775701522827148,-0.004152349276935158,0.0026488941928215744,0.003980799830767698,0.7199890613555908,2019-07-25 12:18:57:307,-138.16605613861174,-136.6776599060544,0,-49.92966842651367,35.53553009033203,-41.83296585083008
0.12457727640867233,-0.4331599175930023,9.79964828491211,-0.0014885378710057496,0.0005178449445427432,0.0015833695524275135,0.7299771308898926,2019-07-25 12:18:57:317,-138.98845885885868,-137.49265356434105,0,-49.92966842651367,35.53553009033203,-41.83296585083008
0.14134052395820618,-0.44513368606567383,9.773306846618652,-0.00015663211927710938,-1.491734416091191e-05,0.0007842261046412585,0.7399773597717285,2019-07-25 12:18:57:327,-139.79211035124155,-138.29055687326982,0,-49.92966842651367,35.53553009033203,-41.83296585083008
0.179656520485878,-0.4666864275932312,9.87867546081543,0.003572703943301005,0.0015833695524275135,-0.002145966493895956,0.7499773502349854,2019-07-25 12:18:57:337,-140.57631953967413,-139.07265690402195,0,-49.92966842651367,35.53553009033203,-41.83296585083008
0.1916302591562271,-0.4714759290218353,9.828385353088379,-0.00015663211927710938,-0.002145966493895956,0.001050607232230483,0.7599775791168213,2019-07-25 12:18:57:347,-141.34124835200652,-139.8361873865071,0,-49.92966842651367,35.53553009033203,-41.83296585083008
0.15810376405715942,-0.4714759290218353,9.811622619628906,0.00010974903269408318,-0.0002812985032435118,0.001316988424838289,0.7701361179351807,2019-07-25 12:18:57:357,-142.09579933070594,-140.58450411218922,0,-49.92966842651367,35.53553009033203,-41.83296585083008
0.14134052395820618,-0.4714759290218353,9.811622619628906,-0.0028204436389890346,-1.491734416091191e-05,0.003980799830767698,0.7799720764160156,2019-07-25 12:18:57:367,-142.8373688541955,-141.31623420603097,0,-49.92966842651367,35.53553009033203,-41.83296585083008
0.15810376405715942,-0.4882391691207886,9.842754364013672,-0.0020213001261841987,0.001050607232230483,-0.0018795853663067313,0.7899789810180664,2019-07-25 12:18:57:377,-143.56280658616936,-142.0319784313786,0,-49.92966842651367,35.53553009033203,-41.83296585083008
0.12457727640867233,-0.4523179233074188,9.823596000671387,-0.00042301326312097924,0.002915275320410799,0.0026488941928215744,0.799976110458374,2019-07-25 12:18:57:387,-144.2786558346017,-142.73837607985192,0,-49.92966842651367,35.53553009033203,-41.83296585083008
0.14134052395820618,-0.4475284218788147,9.83796501159668,-0.0020213001261841987,0.002116131807605963,0.002116131807605963,0.8099827766418457,2019-07-25 12:18:57:397,-144.9778096553696,-143.4303811267674,0,-49.92966842651367,35.53553009033203,-41.83296585083008
0.1604985147714615,-0.44992318749427795,9.778096199035645,-0.000955775550808719,0.004779943473609696,-0.0016132042387175067,0.8199789524078369,2019-07-25 12:18:57:407,-145.662128899168,-144.10854676617862,0,-49.92966842651367,35.53553009033203,-41.83296585083008
0.1197877749800682,-0.4786601662635803,9.86191177368164,-0.000955775550808719,0.0026488941928215744,0.005845467983966595,0.8299791812896729,2019-07-25 12:18:57:417,-146.33645551906093,-144.7702643251013,0,-49.92966842651367,35.53553009033203,-41.83296585083008
0.12218252569437027,-0.47626543045043945,9.818806648254395,0.0014416547925500459,-0.0018795853663067313,0.0005178449445427432,0.8399777412414551,2019-07-25 12:18:57:427,-146.99441245397028,-145.42012881185877,0,-49.32991409301758,35.83540725708008,-40.63345718383789
0.13655102252960205,-0.4786601662635803,9.83796501159668,0.0014416547925500459,0.002915275320410799,0.006111849111555819,0.8499789237976074,2019-07-25 12:18:57:437,-147.64025702655124,-146.056825928891,0,-49.32991409301758,35.83540725708008,-40.63345718383789
0.16768276691436768,-0.4523179233074188,9.790069580078125,0.0011752736649608213,0.001849750680016738,-0.0005476796633420271,0.8599810600280762,2019-07-25 12:18:57:447,-148.26886559792558,-146.683443832523,0,-49.32991409301758,35.83540725708008,-40.63345718383789
0.14373527467250824,-0.4810549318790436,9.84993839263916,0.0003761301846652757,0.001849750680016738,-0.0029451100067007917,0.8699765205383301,2019-07-25 12:18:57:457,-148.88780585482363,-147.2940658392479,0,-49.32991409301758,35.83540725708008,-40.63345718383789
0.15091952681541443,-0.4882391691207886,9.723016738891602,0.004904609581247128,0.004247180958356922,-1.491734416091191e-05,0.8799915313720703,2019-07-25 12:18:57:467,-149.49465276450752,-147.89344897741393,0,-49.32991409301758,35.83540725708008,-40.63345718383789
0.14373527467250824,-0.4547126889228821,9.864306449890137,0.0003761301846652757,0.001849750680016738,0.0007842261046412585,0.8899760246276855,2019-07-25 12:18:57:477,-150.0891004902504,-148.483005223973,0,-49.32991409301758,35.83540725708008,-40.63345718383789
0.17726176977157593,-0.4403441846370697,9.782885551452637,-0.0020213001261841987,0.0023825130652323496,0.0023825130652323496,0.899977445602417,2019-07-25 12:18:57:487,-150.6678952119695,-149.0606651988378,0,-49.32991409301758,35.83540725708008,-40.63345718383789
0.18444602191448212,-0.4259756803512573,9.792464256286621,0.001974417047728495,0.0071773736219127166,0.001050607232230483,0.9099769592285156,2019-07-25 12:18:57:497,-151.23698584889422,-149.63074414373423,0,-49.32991409301758,35.83540725708008,-40.63345718383789
0.1652880162000656,-0.44992318749427795,9.854727745056152,0.00010974903269408318,0.001316988424838289,-0.005076159287488914,0.9199790954589844,2019-07-25 12:18:57:507,-151.79376775691418,-150.18590977669768,0,-49.32991409301758,35.83540725708008,-40.63345718383789
0.14852477610111237,-0.4211861789226532,9.847543716430664,-0.001222156743416525,0.00557908685637737,0.0037144187031784726,0.9299795627593994,2019-07-25 12:18:57:517,-152.3437433296213,-150.73252356971457,0,-49.32991409301758,35.83540725708008,-40.63345718383789
0.1461300253868103,-0.44992318749427795,9.845149040222168,-0.000955775550808719,0.003448037575589248,0.0026488941928215744,0.9399795532226562,2019-07-25 12:18:57:527,-152.8817971305069,-151.26500451535128,0,-49.32991409301758,35.83540725708008,-40.63345718383789
0.1461300253868103,-0.49063393473625183,9.814017295837402,0.0027735605605333316,0.0026488941928215744,0.004247180958356922,0.9499788284301758,2019-07-25 12:18:57:537,-153.4085870890733,-151.78402135360517,0,-49.32991409301758,35.83540725708008,-40.63345718383789
0.1197877749800682,-0.509791910648346,9.775701522827148,0.0011752736649608213,0.003448037575589248,0.006111849111555819,0.9599807262420654,2019-07-25 12:18:57:547,-153.9283108665846,-152.28929683151983,0,-50.07960891723633,36.28522491455078,-41.08327102661133
0.1461300253868103,-0.4786601662635803,9.706253051757812,-0.00042301326312097924,0.003980799830767698,0.003980799830767698,0.9699876308441162,2019-07-25 12:18:57:557,-154.43473066867634,-152.78680856243076,0,-50.07960891723633,36.28522491455078,-41.08327102661133
0.1724722683429718,-0.47626543045043945,9.785280227661133,-0.001222156743416525,0.0005178449445427432,0.0026488941928215744,0.9799776077270508,2019-07-25 12:18:57:567,-154.92613107686276,-153.27465725138188,0,-50.07960891723633,36.28522491455078,-41.08327102661133
0.13176152110099792,-0.45710742473602295,9.797253608703613,-0.001222156743416525,0.004247180958356922,0.0007842261046412585,0.989976167678833,2019-07-25 12:18:57:577,-155.41458261233478,-153.7550520815115,0,-50.07960891723633,36.28522491455078,-41.08327102661133
0.1604985147714615,-0.43794941902160645,9.842754364013672,0.000642511344763791,0.0026488941928215744,0.003980799830767698,0.9999792575836182,2019-07-25 12:18:57:587,-155.8890948281144,-154.2293584723239,0,-50.07960891723633,36.28522491455078,-41.08327102661133
0.17486701905727386,-0.43794941902160645,9.797253608703613,0.0009088924723530155,0.004247180958356922,0.0002514638006988733,1.0099773406982422,2019-07-25 12:18:57:597,-156.3532464715066,-154.69409177279965,0,-50.07960891723633,36.28522491455078,-41.08327102661133
0.14852477610111237,-0.47626543045043945,9.790069580078125,-0.0006893944232194946,0.0005178449445427432,0.001050607232230483,1.0199816226959229,2019-07-25 12:18:57:607,-156.80908912719948,-155.1441203095466,0,-50.07960891723633,36.28522491455078,-41.08327102661133
0.11739302426576614,-0.4858444333076477,9.830780029296875,0.0022407983053548824,0.002915275320410799,0.0031816564480000235,1.029979944229126,2019-07-25 12:18:57:617,-157.2608608363822,-155.58590993854617,0,-50.07960891723633,36.28522491455078,-41.08327102661133
0.15810376405715942,-0.4618969261646271,9.830780029296875,-0.0006893944232194946,-0.0010804419185204762,0.0015833695524275135,1.0399837493896484,2019-07-25 12:18:57:627,-157.69660909483594,-156.0200034859782,0,-50.07960891723633,36.28522491455078,-41.08327102661133
0.13655102252960205,-0.45710742473602295,9.825990676879883,-0.0038859681493459333,-0.002412347751522343,-0.003744253389468466,1.0499866008758545,2019-07-25 12:18:57:637,-158.12539832257713,-156.4441509678033,0,-50.07960891723633,36.28522491455078,-41.08327102661133
0.11739302426576614,-0.4882391691207886,9.833174705505371,0.000642511344763791,0.004779943473609696,-0.004010634517057691,1.05997896194458,2019-07-25 12:18:57:647,-158.55189241294494,-156.85877785211989,0,-50.07960891723633,36.28522491455078,-41.08327102661133
0.14134052395820618,-0.48344966769218445,9.842754364013672,-0.00015663211927710938,0.0015833695524275135,-0.0018795853663067313,1.0699763298034668,2019-07-25 12:18:57:657,-158.96528933988873,-157.26527526911423,0,-50.07960891723633,36.28522491455078,-41.08327102661133
0.17726176977157593,-0.46908116340637207,9.816411972045898,-0.0014885378710057496,0.001849750680016738,0.003448037575589248,1.0799751281738281,2019-07-25 12:18:57:667,-159.3663317156821,-157.66441764037313,0,-50.07960891723633,36.28522491455078,-41.08327102661133
0.13655102252960205,-0.44992318749427795,9.787674903869629,0.00010974903269408318,-0.002412347751522343,-0.003744253389468466,1.0899782180786133,2019-07-25 12:18:57:677,-159.761664130438,-158.05855214670112,0,-48.730159759521484,34.93577575683594,-40.93333435058594
0.11260352283716202,-0.41879144310951233,9.845149040222168,-0.002287681383810586,0.002915275320410799,-0.0016132042387175067,1.099977970123291,2019-07-25 12:18:57:687,-160.15496193524876,-158.44738119246927,0,-48.730159759521484,34.93577575683594,-40.93333435058594
0.11499827355146408,-0.4595021903514862,9.756543159484863,-0.004685111532113607,0.0023825130652323496,-0.0013468231111282822,1.1099796295166016,2019-07-25 12:18:57:697,-160.53969466147473,-158.82187331416984,0,-48.730159759521484,34.93577575683594,-40.93333435058594
0.15570901334285736,-0.4475284218788147,9.775701522827148,-0.0006893944232194946,0.0007842261046412585,-0.002412347751522343,1.1199767589569092,2019-07-25 12:18:57:707,-160.91109019137332,-159.19262582554998,0,-48.730159759521484,34.93577575683594,-40.93333435058594
0.13655102252960205,-0.4858444333076477,9.73020076751709,-0.0020213001261841987,0.001849750680016738,-0.0013468231111282822,1.1299874782562256,2019-07-25 12:18:57:717,-161.27782771755417,-159.55046722305235,0,-48.730159759521484,34.93577575683594,-40.93333435058594
0.1269720196723938,-0.4523179233074188,9.80922794342041,-0.005217873787292057,-0.0032114911342900165,-0.004010634517057691,1.1399762630462646,2019-07-25 12:18:57:727,-161.63563787420455,-159.90372888553165,0,-48.730159759521484,34.93577575683594,-40.93333435058594
0.16289326548576355,-0.4738706648349762,9.814017295837402,-0.003353205894167484,-0.0002812985032435118,-0.003744253389468466,1.1499786376953125,2019-07-25 12:18:57:737,-161.9837489457571,-160.24848334798796,0,-48.730159759521484,34.93577575683594,-40.93333435058594
0.1341562718153,-0.46429166197776794,9.82120132446289,0.0003761301846652757,-0.0005476796633420271,0.0005178449445427432,1.1599781513214111,2019-07-25 12:18:57:747,-162.32811438306584,-160.58959266694754,0,-48.730159759521484,34.93577575683594,-40.93333435058594
0.1461300253868103,-0.4618969261646271,9.785280227661133,-0.003619587021756709,0.002915275320410799,-0.00480977815989969,1.1701202392578125,2019-07-25 12:18:57:757,-162.6661008380137,-160.92168873504698,0,-48.730159759521484,34.93577575683594,-40.93333435058594
0.1461300253868103,-0.46908116340637207,9.816411972045898,-0.0017549189985949741,0.0005178449445427432,-0.0034778722618792413,1.179973840713501,2019-07-25 12:18:57:767,-162.99600815359406,-161.24756758980047,0,-48.730159759521484,34.93577575683594,-40.93333435058594
0.12457727640867233,-0.4595021903514862,9.811622619628906,0.001974417047728495,0.001050607232230483,-0.0016132042387175067,1.1899781227111816,2019-07-25 12:18:57:777,-163.32212935382748,-161.57009850970016,0,-48.730159759521484,34.93577575683594,-40.93333435058594
0.16768276691436768,-0.4618969261646271,9.785280227661133,0.000642511344763791,0.0031816564480000235,0.004513562346020471,1.1999783515930176,2019-07-25 12:18:57:787,-163.6378385574062,-161.88500650949035,0,-48.730159759521484,34.93577575683594,-40.93333435058594
0.1341562718153,-0.4810549318790436,9.754148483276367,-0.0028204436389890346,-0.0005476796633420271,-0.0018795853663067313,1.2099847793579102,2019-07-25 12:18:57:797,-163.94901440646595,-162.18925319258506,0,-49.03003692626953,35.53553009033203,-40.33357620239258
0.17486701905727386,-0.4618969261646271,9.854727745056152,-0.0020213001261841987,0.0037144187031784726,0.0023825130652323496,1.219980001449585,2019-07-25 12:18:57:807,-164.2517872203765,-162.49066325034866,0,-49.03003692626953,35.53553009033203,-40.33357620239258
0.13655102252960205,-0.4738706648349762,9.797253608703613,-0.0006893944232194946,0.006644611366734268,0.0005178449445427432,1.2299790382385254,2019-07-25 12:18:57:817,-164.5545116818031,-162.7850807829817,0,-49.03003692626953,35.53553009033203,-40.33357620239258
0.15091952681541443,-0.4523179233074188,9.845149040222168,0.0014416547925500459,0.0002514638006988733,0.001316988424838289,1.2399778366088867,2019-07-25 12:18:57:827,-164.8459978866615,-163.07757849174112,0,-49.03003692626953,35.53553009033203,-40.33357620239258
0.14134052395820618,-0.46908116340637207,9.749359130859375,-0.0014885378710057496,0.0026488941928215744,0.001849750680016738,1.24997878074646,2019-07-25 12:18:57:837,-165.1339537674998,-163.36009887560851,0,-49.03003692626953,35.53553009033203,-40.33357620239258
0.12457727640867233,-0.4618969261646271,9.787674903869629,0.0011752736649608213,-1.491734416091191e-05,-0.0026787288791115674,1.2599782943725586,2019-07-25 12:18:57:847,-165.41668191962796,-163.63951917764717,0,-49.03003692626953,35.53553009033203,-40.33357620239258
0.15810376405715942,-0.4523179233074188,9.751753807067871,-0.003353205894167484,0.004247180958356922,-1.491734416091191e-05,1.2699780464172363,2019-07-25 12:18:57:857,-165.69215607345458,-163.9117328115393,0,-49.03003692626953,35.53553009033203,-40.33357620239258
0.17007751762866974,-0.4547126889228821,9.78049087524414,-0.0028204436389890346,-0.0002812985032435118,-0.0002812985032435118,1.2799763679504395,2019-07-25 12:18:57:867,-165.95823017731524,-164.1786773952234,0,-49.03003692626953,35.53553009033203,-40.33357620239258
0.18205127120018005,-0.5193709135055542,9.754148483276367,0.005170990708836353,0.003448037575589248,0.005046324601198921,1.2899789810180664,2019-07-25 12:18:57:877,-166.21961728071264,-164.4370500747526,0,-49.03003692626953,35.53553009033203,-40.33357620239258
0.1604985147714615,-0.49063393473625183,9.797253608703613,-0.00015663211927710938,0.001849750680016738,0.0023825130652323496,1.299978256225586,2019-07-25 12:18:57:887,-166.47749279312728,-164.69088304352857,0,-49.03003692626953,35.53553009033203,-40.33357620239258
0.17486701905727386,-0.4595021903514862,9.790069580078125,0.0011752736649608213,0.001849750680016738,0.0007842261046412585,1.3099761009216309,2019-07-25 12:18:57:897,-166.72851555290242,-164.9439804317698,0,-49.03003692626953,35.53553009033203,-40.33357620239258
0.15810376405715942,-0.46429166197776794,9.806833267211914,0.000642511344763791,0.001050607232230483,-0.0026787288791115674,1.3199803829193115,2019-07-25 12:18:57:907,-166.9760627920566,-165.19125035521057,0,-49.03003692626953,35.53553009033203,-40.33357620239258
0.14373527467250824,-0.4666864275932312,9.814017295837402,0.0027735605605333316,0.004779943473609696,-0.0002812985032435118,1.3299782276153564,2019-07-25 12:18:57:917,-167.22244310566688,-165.43453160309878,0,-49.03003692626953,35.53553009033203,-40.33357620239258
0.1461300253868103,-0.46908116340637207,9.816411972045898,0.00010974903269408318,-0.0005476796633420271,-0.002145966493895956,1.3399720191955566,2019-07-25 12:18:57:927,-167.46062973301818,-165.67118614490713,0,-49.479854583740234,34.18608093261719,-40.483516693115234
0.13176152110099792,-0.45710742473602295,9.785280227661133,0.00010974903269408318,0.005312705728788145,0.001050607232230483,1.349980115890503,2019-07-25 12:18:57:937,-167.69897349087805,-165.90433293386153,0,-49.479854583740234,34.18608093261719,-40.483516693115234
0.12218252569437027,-0.4714759290218353,9.80922794342041,0.002507179432944107,0.001050607232230483,-0.002412347751522343,1.359978199005127,2019-07-25 12:18:57:947,-167.93131117825374,-166.13261824404606,0,-49.479854583740234,34.18608093261719,-40.483516693115234
0.13176152110099792,-0.46429166197776794,9.785280227661133,0.0030399416881225563,0.004513562346020471,0.0007842261046412585,1.3699769973754883,2019-07-25 12:18:57:957,-168.15978986944435,-166.35734197828683,0,-49.479854583740234,34.18608093261719,-40.483516693115234
0.1269720196723938,-0.44273892045021057,9.80922794342041,0.0022407983053548824,0.001316988424838289,-0.0008140607909312516,1.3799858093261719,2019-07-25 12:18:57:967,-168.38250214741925,-166.57976869894458,0,-49.479854583740234,34.18608093261719,-40.483516693115234
0.1389457732439041,-0.4355546832084656,9.814017295837402,0.0030399416881225563,-0.0002812985032435118,0.0037144187031784726,1.389979600906372,2019-07-25 12:18:57:977,-168.59847159127025,-166.7990558016018,0,-49.479854583740234,34.18608093261719,-40.483516693115234
0.16289326548576355,-0.5050024390220642,9.756543159484863,-0.0025540625113998103,0.001050607232230483,-0.0002812985032435118,1.399977445602417,2019-07-25 12:18:57:987,-168.80796174996416,-167.00238074314626,0,-49.479854583740234,34.18608093261719,-40.483516693115234
0.17486701905727386,-0.4595021903514862,9.845149040222168,-0.004152349276935158,0.0031816564480000235,0.0026488941928215744,1.4099783897399902,2019-07-25 12:18:57:997,-169.01323785975086,-167.2065568884842,0,-49.479854583740234,34.18608093261719,-40.483516693115234
0.13176152110099792,-0.4810549318790436,9.833174705505371,-0.00015663211927710938,0.002915275320410799,0.0015833695524275135,1.4199767112731934,2019-07-25 12:18:58:007,-169.21925575285368,-167.40632241777755,0,-49.479854583740234,34.18608093261719,-40.483516693115234
0.1533142775297165,-0.45710742473602295,9.864306449890137,-0.0014885378710057496,0.002915275320410799,0.0007842261046412585,1.4299798011779785,2019-07-25 12:18:58:017,-169.41869930566702,-167.60429665778898,0,-49.479854583740234,34.18608093261719,-40.483516693115234
0.18444602191448212,-0.4882391691207886,9.787674903869629,-0.0006893944232194946,0.005046324601198921,-0.0005476796633420271,1.4399800300598145,2019-07-25 12:18:58:027,-169.61156698266814,-167.79470918782278,0,-49.479854583740234,34.18608093261719,-40.483516693115234
0.1389457732439041,-0.4523179233074188,9.835570335388184,-0.0025540625113998103,0.0026488941928215744,0.0005178449445427432,1.4499869346618652,2019-07-25 12:18:58:037,-169.80463690249152,-167.98471868170574,0,-49.479854583740234,34.18608093261719,-40.483516693115234
0.17486701905727386,-0.44513368606567383,9.811622619628906,-0.002287681383810586,0.002116131807605963,0.004779943473609696,1.4599781036376953,2019-07-25 12:18:58:047,-169.9893104746329,-168.17178863914322,0,-49.32991409301758,35.53553009033203,-40.93333435058594
0.17486701905727386,-0.45710742473602295,9.732595443725586,-0.0038859681493459333,0.0031816564480000235,0.001050607232230483,1.4699783325195312,2019-07-25 12:18:58:057,-170.17072417757404,-168.35239055248536,0,-49.32991409301758,35.53553009033203,-40.93333435058594
0.1724722683429718,-0.4666864275932312,9.78049087524414,0.0041054661984794545,0.002116131807605963,0.003448037575589248,1.479978084564209,2019-07-25 12:18:58:067,-170.3482925261126,-168.5330107693343,0,-49.32991409301758,35.53553009033203,-40.93333435058594
0.15570901334285736,-0.4523179233074188,9.787674903869629,0.000642511344763791,-0.0026787288791115674,0.001050607232230483,1.4899787902832031,2019-07-25 12:18:58:077,-170.52159399710922,-168.70979278969958,0,-49.32991409301758,35.53553009033203,-40.93333435058594
0.14852477610111237,-0.4858444333076477,9.782885551452637,-0.004152349276935158,0.0007842261046412585,-0.002145966493895956,1.4999806880950928,2019-07-25 12:18:58:087,-170.69420647059738,-168.8764024173428,0,-49.32991409301758,35.53553009033203,-40.93333435058594
0.1724722683429718,-0.4978181719779968,9.792464256286621,-0.001222156743416525,0.0026488941928215744,0.001050607232230483,1.5099766254425049,2019-07-25 12:18:58:097,-170.8616284440743,-169.03998376021522,0,-49.32991409301758,35.53553009033203,-40.93333435058594
0.13176152110099792,-0.4523179233074188,9.833174705505371,0.003572703943301005,0.003980799830767698,0.003980799830767698,1.5199804306030273,2019-07-25 12:18:58:107,-171.0312779413401,-169.20851687555847,0,-49.32991409301758,35.53553009033203,-40.93333435058594
0.13176152110099792,-0.4355546832084656,9.84993839263916,-0.0006893944232194946,0.0002514638006988733,-0.0032114911342900165,1.529984474182129,2019-07-25 12:18:58:117,-171.19546576608357,-169.37332100358816,0,-49.32991409301758,35.53553009033203,-40.93333435058594
0.1604985147714615,-0.4259756803512573,9.864306449890137,-0.0017549189985949741,-0.0016132042387175067,-0.0010804419185204762,1.5399794578552246,2019-07-25 12:18:58:127,-171.35200796563228,-169.53541572612045,0,-49.32991409301758,35.53553009033203,-40.93333435058594
0.13176152110099792,-0.49542343616485596,9.857122421264648,0.0014416547925500459,-0.0002812985032435118,0.001050607232230483,1.5499763488769531,2019-07-25 12:18:58:137,-171.5094932064593,-169.68797083384763,0,-49.32991409301758,35.53553009033203,-40.93333435058594
0.12457727640867233,-0.4547126889228821,9.773306846618652,-0.000955775550808719,0.002915275320410799,-0.0010804419185204762,1.5599775314331055,2019-07-25 12:18:58:147,-171.66633462349287,-169.84039825976507,0,-49.32991409301758,35.53553009033203,-40.93333435058594
0.11739302426576614,-0.4403441846370697,9.77091121673584,-0.0017549189985949741,-0.0005476796633420271,-1.491734416091191e-05,1.5699794292449951,2019-07-25 12:18:58:157,-171.81893336255445,-169.99099683755753,0,-49.32991409301758,35.53553009033203,-40.93333435058594
0.1197877749800682,-0.4283704161643982,9.79964828491211,0.002507179432944107,0.0002514638006988733,-0.0002812985032435118,1.5799767971038818,2019-07-25 12:18:58:167,-171.96868924562855,-170.1425249565258,0,-49.32991409301758,35.53553009033203,-40.93333435058594
0.11260352283716202,-0.44992318749427795,9.77091121673584,-0.004418730404524382,0.002116131807605963,-0.0018795853663067313,1.5899817943572998,2019-07-25 12:18:58:177,-172.11729889754844,-170.2844631389584,0,-49.77973175048828,35.38559341430664,-41.08327102661133
0.14373527467250824,-0.4595021903514862,9.818806648254395,0.0011752736649608213,0.002116131807605963,0.0015833695524275135,1.599977970123291,2019-07-25 12:18:58:187,-172.25936707103244,-170.42584588228388,0,-49.77973175048828,35.38559341430664,-41.08327102661133
0.1389457732439041,-0.4786601662635803,9.828385353088379,-0.0017549189985949741,0.0023825130652323496,-0.0013468231111282822,1.609990119934082,2019-07-25 12:18:58:197,-172.39932018294644,-170.56057827872746,0,-49.77973175048828,35.38559341430664,-41.08327102661133
0.15810376405715942,-0.44273892045021057,9.787674903869629,-0.00015663211927710938,-0.0002812985032435118,0.0007842261046412585,1.61997652053833,2019-07-25 12:18:58:207,-172.53266727648258,-170.6974794700568,0,-49.77973175048828,35.38559341430664,-41.08327102661133
0.2059987634420395,-0.4738706648349762,9.842754364013672,0.000642511344763791,0.006910992494323493,0.0002514638006988733,1.629976749420166,2019-07-25 12:18:58:217,-172.66191519426297,-170.8287641355413,0,-49.77973175048828,35.38559341430664,-41.08327102661133
0.18444602191448212,-0.4403441846370697,9.78049087524414,0.00010974903269408318,0.0026488941928215744,-0.0026787288791115674,1.639977216720581,2019-07-25 12:18:58:227,-172.7885565481634,-170.96069307421538,0,-49.77973175048828,35.38559341430664,-41.08327102661133
0.2251567542552948,-0.5002129077911377,9.80922794342041,-0.00308682476657826,-1.491734416091191e-05,-0.0018795853663067313,1.6499788761138916,2019-07-25 12:18:58:237,-172.90647880929967,-171.08136129718721,0,-49.77973175048828,35.38559341430664,-41.08327102661133
0.17486701905727386,-0.4738706648349762,9.787674903869629,-0.00042301326312097924,0.002116131807605963,-0.0013468231111282822,1.6599783897399902,2019-07-25 12:18:58:247,-173.02906658131238,-171.2040603005746,0,-49.77973175048828,35.38559341430664,-41.08327102661133
0.1652880162000656,-0.4547126889228821,9.823596000671387,0.0011752736649608213,0.001316988424838289,0.0015833695524275135,1.6699814796447754,2019-07-25 12:18:58:257,-173.14994605327087,-171.3276351297002,0,-49.77973175048828,35.38559341430664,-41.08327102661133
0.17486701905727386,-0.4666864275932312,9.778096199035645,-0.000955775550808719,-0.0008140607909312516,-0.0008140607909312516,1.6799781322479248,2019-07-25 12:18:58:267,-173.26599934295243,-171.44589545098327,0,-49.77973175048828,35.38559341430664,-41.08327102661133
0.13176152110099792,-0.48344966769218445,9.825990676879883,-0.002287681383810586,0.003448037575589248,0.0005178449445427432,1.689988136291504,2019-07-25 12:18:58:277,-173.3872521389272,-171.55935683389026,0,-49.77973175048828,35.38559341430664,-41.08327102661133
0.17486701905727386,-0.4786601662635803,9.835570335388184,-0.0025540625113998103,0.001849750680016738,-0.0002812985032435118,1.6999797821044922,2019-07-25 12:18:58:287,-173.5001737256439,-171.67101336062962,0,-49.77973175048828,35.38559341430664,-41.08327102661133
0.14134052395820618,-0.45710742473602295,9.766121864318848,-0.0025540625113998103,0.0026488941928215744,-0.0005476796633420271,1.7099790573120117,2019-07-25 12:18:58:297,-173.6150743500055,-171.78256315107672,0,-49.479854583740234,36.28522491455078,-40.18363952636719
0.15091952681541443,-0.44992318749427795,9.754148483276367,-0.00015663211927710938,0.0023825130652323496,0.0037144187031784726,1.7199795246124268,2019-07-25 12:18:58:307,-173.72638211940625,-171.89400447998563,0,-49.479854583740234,36.28522491455078,-40.18363952636719
0.18205127120018005,-0.4978181719779968,9.785280227661133,0.0014416547925500459,0.004513562346020471,-1.491734416091191e-05,1.7299790382385254,2019-07-25 12:18:58:317,-173.8330718654614,-171.99868653160655,0,-49.479854583740234,36.28522491455078,-40.18363952636719
0.13176152110099792,-0.47626543045043945,9.835570335388184,-0.001222156743416525,-0.0005476796633420271,-0.004010634517057691,1.7399795055389404,2019-07-25 12:18:58:327,-173.94075263361523,-172.1025814457423,0,-49.479854583740234,36.28522491455078,-40.18363952636719
0.10541927814483643,-0.4595021903514862,9.816411972045898,-0.0025540625113998103,-1.491734416091191e-05,0.002915275320410799,1.7499794960021973,2019-07-25 12:18:58:337,-174.04962359351725,-172.2054950060315,0,-49.479854583740234,36.28522491455078,-40.18363952636719
0.14852477610111237,-0.5050024390220642,9.854727745056152,-0.00042301326312097924,-0.0005476796633420271,-0.002145966493895956,1.7599904537200928,2019-07-25 12:18:58:347,-174.15105399152128,-172.3024765594017,0,-49.479854583740234,36.28522491455078,-40.18363952636719
0.1533142775297165,-0.4475284218788147,9.790069580078125,0.004904609581247128,0.009308423162775165,-1.491734416091191e-05,1.7699847221374512,2019-07-25 12:18:58:357,-174.25531280226335,-172.4068331717547,0,-49.479854583740234,36.28522491455078,-40.18363952636719
0.14373527467250824,-0.4331599175930023,9.857122421264648,-0.001222156743416525,-0.0002812985032435118,0.0031816564480000235,1.7799768447875977,2019-07-25 12:18:58:367,-174.35334031427348,-172.5076872417288,0,-49.479854583740234,36.28522491455078,-40.18363952636719
0.14852477610111237,-0.4714759290218353,9.79964828491211,0.0003761301846652757,0.0015833695524275135,-0.0018795853663067313,1.789978265762329,2019-07-25 12:18:58:377,-174.44979637433502,-172.60265546712262,0,-49.479854583740234,36.28522491455078,-40.18363952636719
0.09584027528762817,-0.5002129077911377,9.811622619628906,-0.0025540625113998103,-1.491734416091191e-05,-0.0032114911342900165,1.7999780178070068,2019-07-25 12:18:58:387,-174.5495990831279,-172.6907981356512,0,-49.479854583740234,36.28522491455078,-40.18363952636719
0.13655102252960205,-0.4810549318790436,9.823596000671387,-0.0017549189985949741,0.0002514638006988733,-0.0005476796633420271,1.80997896194458,2019-07-25 12:18:58:397,-174.64282075605936,-172.77992676439337,0,-49.479854583740234,36.28522491455078,-40.18363952636719
0.16768276691436768,-0.4618969261646271,9.804438591003418,0.0014416547925500459,0.0015833695524275135,0.0015833695524275135,1.819981575012207,2019-07-25 12:18:58:407,-174.7312572468927,-172.87119258216836,0,-49.479854583740234,36.28522491455078,-40.18363952636719
0.12936677038669586,-0.4738706648349762,9.823596000671387,0.0033063228157117807,0.001849750680016738,-0.002412347751522343,1.8299803733825684,2019-07-25 12:18:58:417,-174.82258093877266,-172.96039113695414,0,-49.479854583740234,36.28522491455078,-40.18363952636719
0.14134052395820618,-0.4858444333076477,9.727806091308594,0.0011752736649608213,-0.0016132042387175067,0.0005178449445427432,1.839979648590088,2019-07-25 12:18:58:427,-174.90857512152976,-173.04465921876408,0,-49.32991409301758,35.83540725708008,-40.63345718383789
0.18205127120018005,-0.48344966769218445,9.737384796142578,-0.00015663211927710938,-0.002145966493895956,0.0026488941928215744,1.8499844074249268,2019-07-25 12:18:58:437,-174.98777641385175,-173.12683136508093,0,-49.32991409301758,35.83540725708008,-40.63345718383789
0.17007751762866974,-0.4810549318790436,9.749359130859375,0.005170990708836353,0.004779943473609696,-0.0026787288791115674,1.8599767684936523,2019-07-25 12:18:58:447,-175.0707143032991,-173.2106998354469,0,-49.32991409301758,35.83540725708008,-40.63345718383789
0.15570901334285736,-0.4523179233074188,9.787674903869629,-0.0017549189985949741,-0.0013468231111282822,0.0002514638006988733,1.869978427886963,2019-07-25 12:18:58:457,-175.15031518268583,-173.2925817316402,0,-49.32991409301758,35.83540725708008,-40.63345718383789
0.14373527467250824,-0.4547126889228821,9.857122421264648,-0.00042301326312097924,0.0002514638006988733,-0.0026787288791115674,1.8799803256988525,2019-07-25 12:18:58:467,-175.23074169477093,-173.37366847101225,0,-49.32991409301758,35.83540725708008,-40.63345718383789
0.14852477610111237,-0.4738706648349762,9.833174705505371,0.001974417047728495,-0.004277015644646915,0.0005178449445427432,1.8899774551391602,2019-07-25 12:18:58:477,-175.30641889377327,-173.45212327089652,0,-49.32991409301758,35.83540725708008,-40.63345718383789
0.18684077262878418,-0.41879144310951233,9.80922794342041,0.002507179432944107,-0.0010804419185204762,0.003448037575589248,1.8999841213226318,2019-07-25 12:18:58:487,-175.37785931467405,-173.53559593027364,0,-49.32991409301758,35.83540725708008,-40.63345718383789
0.1652880162000656,-0.4595021903514862,9.847543716430664,-0.003353205894167484,0.003448037575589248,0.003980799830767698,1.909977912902832,2019-07-25 12:18:58:497,-175.45300495721943,-173.60957085638327,0,-49.32991409301758,35.83540725708008,-40.63345718383789
0.1461300253868103,-0.4595021903514862,9.835570335388184,0.000642511344763791,0.0031816564480000235,0.0037144187031784726,1.9199767112731934,2019-07-25 12:18:58:507,-175.52870717928968,-173.68424371077754,0,-49.32991409301758,35.83540725708008,-40.63345718383789
0.1269720196723938,-0.49063393473625183,9.794858932495117,-0.0020213001261841987,0.003448037575589248,-0.004010634517057691,1.9299757480621338,2019-07-25 12:18:58:517,-175.6052150980189,-173.75207190643945,0,-49.32991409301758,35.83540725708008,-40.63345718383789
0.1461300253868103,-0.4738706648349762,9.790069580078125,-0.0028204436389890346,0.0031816564480000235,0.0026488941928215744,1.9399783611297607,2019-07-25 12:18:58:527,-175.67779468918962,-173.82002365708368,0,-49.32991409301758,35.83540725708008,-40.63345718383789
0.1724722683429718,-0.49542343616485596,9.825990676879883,-0.000955775550808719,0.0023825130652323496,0.0037144187031784726,1.9499766826629639,2019-07-25 12:18:58:537,-175.74546454785136,-173.8853587791502,0,-49.32991409301758,35.83540725708008,-40.63345718383789
0.1461300253868103,-0.4882391691207886,9.806833267211914,0.0003761301846652757,0.0037144187031784726,-0.004010634517057691,1.959977149963379,2019-07-25 12:18:58:547,-175.8155671574037,-173.95085976915635,0,-50.82930374145508,35.235652923583984,-40.63345718383789
0.14373527467250824,-0.4858444333076477,9.782885551452637,-0.003619587021756709,0.0002514638006988733,0.001050607232230483,1.9699857234954834,2019-07-25 12:18:58:557,-175.88256195162842,-174.0129459024951,0,-50.82930374145508,35.235652923583984,-40.63345718383789
0.12218252569437027,-0.4738706648349762,9.811622619628906,-0.002287681383810586,0.0031816564480000235,0.002915275320410799,1.9799845218658447,2019-07-25 12:18:58:567,-175.9524278325296,-174.07610144376537,0,-50.82930374145508,35.235652923583984,-40.63345718383789
0.15570901334285736,-0.4738706648349762,9.857122421264648,-0.0020213001261841987,0.002915275320410799,-0.004010634517057691,1.9899778366088867,2019-07-25 12:18:58:577,-176.0169150406628,-174.13839892428769,0,-50.82930374145508,35.235652923583984,-40.63345718383789
0.1461300253868103,-0.46429166197776794,9.766121864318848,0.001974417047728495,0.002915275320410799,0.005845467983966595,1.9999825954437256,2019-07-25 12:18:58:587,-176.0810694399507,-174.20230306582278,0,-50.82930374145508,35.235652923583984,-40.63345718383789
0.1604985147714615,-0.4786601662635803,9.840359687805176,-0.001222156743416525,-1.491734416091191e-05,-0.0002812985032435118,2.009979248046875,2019-07-25 12:18:58:597,-176.1407511898734,-174.2618746410058,0,-50.82930374145508,35.235652923583984,-40.63345718383789
0.21318301558494568,-0.4331599175930023,9.734990119934082,-0.0025540625113998103,0.002915275320410799,-0.0008140607909312516,2.0199856758117676,2019-07-25 12:18:58:607,-176.19448416186802,-174.3242480380953,0,-50.82930374145508,35.235652923583984,-40.63345718383789
0.1916302591562271,-0.4738706648349762,9.840359687805176,-0.000955775550808719,0.002915275320410799,-0.0005476796633420271,2.0299782752990723,2019-07-25 12:18:58:617,-176.24991755585702,-174.3820868907236,0,-50.82930374145508,35.235652923583984,-40.63345718383789
0.1652880162000656,-0.44992318749427795,9.816411972045898,0.0030399416881225563,0.002116131807605963,-0.0002812985032435118,2.039976119995117,2019-07-25 12:18:58:627,-176.30681413527196,-174.44366680604008,0,-50.82930374145508,35.235652923583984,-40.63345718383789
0.1341562718153,-0.4714759290218353,9.881070137023926,-0.00015663211927710938,-0.0008140607909312516,0.0015833695524275135,2.049976348876953,2019-07-25 12:18:58:637,-176.36466349404242,-174.5000695180137,0,-50.82930374145508,35.235652923583984,-40.63345718383789
0.12457727640867233,-0.46908116340637207,9.818806648254395,-0.004685111532113607,0.0037144187031784726,-0.0010804419185204762,2.0599775314331055,2019-07-25 12:18:58:647,-176.42491795165645,-174.55273404534435,0,-50.82930374145508,35.235652923583984,-40.63345718383789
0.1269720196723938,-0.44273892045021057,9.814017295837402,-0.00042301326312097924,-0.0002812985032435118,0.0037144187031784726,2.0699782371520996,2019-07-25 12:18:58:657,-176.4814368066811,-174.60978126167055,0,-50.82930374145508,35.235652923583984,-40.63345718383789
0.12936677038669586,-0.48344966769218445,9.79964828491211,-0.0006893944232194946,-0.002145966493895956,-0.0026787288791115674,2.0799882411956787,2019-07-25 12:18:58:667,-176.53547536613425,-174.6607120733942,0,-50.82930374145508,35.235652923583984,-40.63345718383789
0.14373527467250824,-0.4666864275932312,9.830780029296875,0.0022407983053548824,0.0002514638006988733,-0.004277015644646915,2.089980125427246,2019-07-25 12:18:58:677,-176.5881537679663,-174.71439696231502,0,-50.07960891723633,35.985347747802734,-40.18363952636719
0.14852477610111237,-0.46429166197776794,9.79964828491211,0.0014416547925500459,0.001050607232230483,-0.0002812985032435118,2.0999863147735596,2019-07-25 12:18:58:687,-176.63961465242153,-174.76666793185564,0,-50.07960891723633,35.985347747802734,-40.18363952636719
0.15810376405715942,-0.4618969261646271,9.842754364013672,-0.001222156743416525,0.004247180958356922,-0.0026787288791115674,2.109976291656494,2019-07-25 12:18:58:697,-176.69079954261653,-174.81691336559953,0,-50.07960891723633,35.985347747802734,-40.18363952636719
0.13655102252960205,-0.46908116340637207,9.794858932495117,0.002507179432944107,0.002116131807605963,0.0026488941928215744,2.119978666305542,2019-07-25 12:18:58:707,-176.74219776003446,-174.8671465817425,0,-50.07960891723633,35.985347747802734,-40.18363952636719
0.15570901334285736,-0.4666864275932312,9.804438591003418,-0.00042301326312097924,0.0023825130652323496,-0.0016132042387175067,2.129981517791748,2019-07-25 12:18:58:717,-176.79049465633148,-174.9150621842261,0,-50.07960891723633,35.985347747802734,-40.18363952636719
0.15091952681541443,-0.4714759290218353,9.75893783569336,-0.005484254914881281,0.0015833695524275135,-0.0018795853663067313,2.139979124069214,2019-07-25 12:18:58:727,-176.83785372547453,-174.958363565055,0,-50.07960891723633,35.985347747802734,-40.18363952636719
0.1724722683429718,-0.4738706648349762,9.754148483276367,-0.0049514926597028315,-0.0002812985032435118,-0.0002812985032435118,2.149977684020996,2019-07-25 12:18:58:737,-176.88067882550854,-175.0007899331128,0,-50.07960891723633,35.985347747802734,-40.18363952636719
0.1652880162000656,-0.46429166197776794,9.725411415100098,0.0017080359201392707,0.002915275320410799,0.002915275320410799,2.159979820251465,2019-07-25 12:18:58:747,-176.92522901335636,-175.04706883119766,0,-50.07960891723633,35.985347747802734,-40.18363952636719
0.18444602191448212,-0.46908116340637207,9.802042961120605,0.0017080359201392707,0.006111849111555819,0.0005178449445427432,2.1699798107147217,2019-07-25 12:18:58:757,-176.96859596107197,-175.09229001394723,0,-50.07960891723633,35.985347747802734,-40.18363952636719
0.1389457732439041,-0.48344966769218445,9.842754364013672,-0.0017549189985949741,0.001316988424838289,0.003980799830767698,2.179985284805298,2019-07-25 12:18:58:767,-177.0137886289789,-175.13321918923938,0,-50.07960891723633,35.985347747802734,-40.18363952636719
0.15570901334285736,-0.4666864275932312,9.852333068847656,-0.0014885378710057496,0.004513562346020471,0.0037144187031784726,2.189974069595337,2019-07-25 12:18:58:777,-177.05793551193975,-175.17548061353833,0,-50.07960891723633,35.985347747802734,-40.18363952636719
0.14852477610111237,-0.4930286705493927,9.778096199035645,-0.001222156743416525,0.0015833695524275135,-0.005875302670256588,2.1999716758728027,2019-07-25 12:18:58:787,-177.10026105734607,-175.21355475316108,0,-50.07960891723633,35.985347747802734,-40.18363952636719
0.19402500987052917,-0.4858444333076477,9.79964828491211,0.00010974903269408318,0.0026488941928215744,0.0037144187031784726,2.2099649906158447,2019-07-25 12:18:58:797,-177.13705696615014,-175.25257981193235,0,-48.58021926879883,35.38559341430664,-41.08327102661133
0.13655102252960205,-0.47626543045043945,9.792464256286621,-0.000955775550808719,0.001316988424838289,-0.0005476796633420271,2.219975471496582,2019-07-25 12:18:58:807,-177.17907790417814,-175.29130221870676,0,-48.58021926879883,35.38559341430664,-41.08327102661133
0.12218252569437027,-0.4810549318790436,9.80922794342041,-0.003619587021756709,0.0005178449445427432,-0.0010804419185204762,2.2299716472625732,2019-07-25 12:18:58:817,-177.22151435987115,-175.327292630432,0,-48.58021926879883,35.38559341430664,-41.08327102661133
0.1006297767162323,-0.509791910648346,9.794858932495117,-0.0006893944232194946,0.0015833695524275135,-1.491734416091191e-05,2.239966869354248,2019-07-25 12:18:58:827,-177.26620028978436,-175.36077229648595,0,-48.58021926879883,35.38559341430664,-41.08327102661133
0.15091952681541443,-0.4020281732082367,9.835570335388184,-0.000955775550808719,0.001050607232230483,0.0002514638006988733,2.2499682903289795,2019-07-25 12:18:58:837,-177.30388443788684,-175.40620695647817,0,-48.58021926879883,35.38559341430664,-41.08327102661133
0.12218252569437027,-0.4547126889228821,9.79964828491211,0.00010974903269408318,0.001050607232230483,-0.0018795853663067313,2.259963274002075,2019-07-25 12:18:58:847,-177.34410977268547,-175.44501098459878,0,-48.58021926879883,35.38559341430664,-41.08327102661133
0.14852477610111237,-0.4858444333076477,9.845149040222168,-0.0006893944232194946,-0.0002812985032435118,0.0026488941928215744,2.26997447013855,2019-07-25 12:18:58:857,-177.3797833805395,-175.47921973205803,0,-48.58021926879883,35.38559341430664,-41.08327102661133
0.12457727640867233,-0.44992318749427795,9.804438591003418,-0.0014885378710057496,0.002116131807605963,-0.0026787288791115674,2.2800886631011963,2019-07-25 12:18:58:867,-177.4188300234669,-175.51624107307634,0,-48.58021926879883,35.38559341430664,-41.08327102661133
0.14134052395820618,-0.4140019416809082,9.814017295837402,-0.00015663211927710938,0.002915275320410799,0.001050607232230483,2.289978265762329,2019-07-25 12:18:58:877,-177.45557005075963,-175.55751774637156,0,-48.58021926879883,35.38559341430664,-41.08327102661133
0.15091952681541443,-0.46908116340637207,9.816411972045898,0.004904609581247128,0.004779943473609696,-0.005608921542667363,2.299968957901001,2019-07-25 12:18:58:887,-177.49152393037775,-175.59440234792515,0,-48.58021926879883,35.38559341430664,-41.08327102661133
0.1269720196723938,-0.4714759290218353,9.814017295837402,0.002507179432944107,0.002915275320410799,0.0037144187031784726,2.3099520206451416,2019-07-25 12:18:58:897,-177.5285027763283,-175.62891097201296,0,-48.58021926879883,35.38559341430664,-41.08327102661133
0.15810376405715942,-0.4547126889228821,9.802042961120605,0.0009088924723530155,-0.002145966493895956,0.003448037575589248,2.319977045059204,2019-07-25 12:18:58:907,-177.55824310518761,-175.66372390789658,0,-48.58021926879883,35.38559341430664,-41.08327102661133
0.15810376405715942,-0.4523179233074188,9.782885551452637,-0.0014885378710057496,0.001050607232230483,0.0015833695524275135,2.330092430114746,2019-07-25 12:18:58:917,-177.5891571358112,-175.69665954457653,0,-48.58021926879883,35.38559341430664,-41.08327102661133
0.1533142775297165,-0.46429166197776794,9.711043357849121,-0.00015663211927710938,0.0015833695524275135,-0.0034778722618792413,2.339980125427246,2019-07-25 12:18:58:927,-177.62016328955454,-175.7278940681829,0,-48.58021926879883,35.38559341430664,-41.08327102661133
0.16768276691436768,-0.4714759290218353,9.86191177368164,0.0057037529640148014,-0.0005476796633420271,0.0037144187031784726,2.349954605102539,2019-07-25 12:18:58:937,-177.6479710825872,-175.76178868386674,0,-48.58021926879883,35.38559341430664,-41.08327102661133
0.17007751762866974,-0.46908116340637207,9.814017295837402,0.001974417047728495,-0.0005476796633420271,0.001849750680016738,2.3599579334259033,2019-07-25 12:18:58:947,-177.67484723791742,-175.79293216903525,0,-48.58021926879883,35.38559341430664,-41.08327102661133
0.15570901334285736,-0.4882391691207886,9.80922794342041,-0.00042301326312097924,0.007443754749501942,0.0005178449445427432,2.369957208633423,2019-07-25 12:18:58:957,-177.7073412239085,-175.81984687355268,0,-48.58021926879883,35.38559341430664,-41.08327102661133
0.13176152110099792,-0.4714759290218353,9.854727745056152,-0.0006893944232194946,0.0002514638006988733,0.0002514638006988733,2.379960060119629,2019-07-25 12:18:58:967,-177.73801521455525,-175.8482809066839,0,-48.58021926879883,35.38559341430664,-41.08327102661133
0.13655102252960205,-0.4738706648349762,9.78049087524414,0.004904609581247128,0.0002514638006988733,-0.0013468231111282822,2.3899569511413574,2019-07-25 12:18:58:977,-177.7673983199191,-175.87859144729077,0,-48.58021926879883,35.38559341430664,-41.08327102661133
0.1724722683429718,-0.4858444333076477,9.79964828491211,0.0022407983053548824,-0.0026787288791115674,-0.006408064925435037,2.399968385696411,2019-07-25 12:18:58:987,-177.79037867887044,-175.90551383334503,0,-48.58021926879883,35.38559341430664,-41.08327102661133
0.17486701905727386,-0.5002129077911377,9.792464256286621,0.0003761301846652757,-0.002412347751522343,-0.002145966493895956,2.409978151321411,2019-07-25 12:18:58:997,-177.8127544632325,-175.9291308047845,0,-48.58021926879883,35.38559341430664,-41.08327102661133
0.17007751762866974,-0.4547126889228821,9.833174705505371,-0.0006893944232194946,-0.0002812985032435118,-0.0034778722618792413,2.4199767112731934,2019-07-25 12:18:59:007,-177.83652332684795,-175.9572086259676,0,-48.58021926879883,35.38559341430664,-41.08327102661133
0.11499827355146408,-0.4523179233074188,9.869096755981445,0.0003761301846652757,-0.0005476796633420271,0.0015833695524275135,2.4299354553222656,2019-07-25 12:18:59:017,-177.86613459031338,-175.98579219474894,0,-48.58021926879883,35.38559341430664,-41.08327102661133
0.16768276691436768,-0.4618969261646271,9.823596000671387,-0.002287681383810586,0.0002514638006988733,-0.0013468231111282822,2.439969301223755,2019-07-25 12:18:59:027,-177.889395395082,-176.01094717378803,0,-48.58021926879883,35.38559341430664,-41.08327102661133
0.14373527467250824,-0.4738706648349762,9.842754364013672,0.0014416547925500459,0.0007842261046412585,-0.005342540415078138,2.449974536895752,2019-07-25 12:18:59:037,-177.91531526518236,-176.03641161871994,0,-48.58021926879883,35.38559341430664,-41.08327102661133
0.1724722683429718,-0.4810549318790436,9.77091121673584,-0.0025540625113998103,0.002116131807605963,-0.0013468231111282822,2.4599969387054443,2019-07-25 12:18:59:047,-177.9379746774866,-176.05787429716793,0,-48.28034210205078,35.68547058105469,-41.08327102661133
0.13655102252960205,-0.4810549318790436,9.79964828491211,0.0033063228157117807,0.0031816564480000235,-0.0026787288791115674,2.469970703125,2019-07-25 12:18:59:057,-177.96503051976075,-176.08236170498185,0,-48.28034210205078,35.68547058105469,-41.08327102661133
0.15810376405715942,-0.45710742473602295,9.790069580078125,0.00010974903269408318,0.001316988424838289,-0.005076159287488914,2.479957103729248,2019-07-25 12:18:59:067,-177.9879641485426,-176.10731097921726,0,-48.28034210205078,35.68547058105469,-41.08327102661133
0.1197877749800682,-0.4714759290218353,9.833174705505371,0.0009088924723530155,0.0015833695524275135,-1.491734416091191e-05,2.489966869354248,2019-07-25 12:18:59:077,-178.01513593565429,-176.13077388374455,0,-48.28034210205078,35.68547058105469,-41.08327102661133
0.16768276691436768,-0.4163966774940491,9.876280784606934,-0.0020213001261841987,0.0002514638006988733,-0.004543397032310465,2.4999923706054688,2019-07-25 12:18:59:087,-178.03552090822637,-176.15873587836302,0,-48.28034210205078,35.68547058105469,-41.08327102661133
0.11260352283716202,-0.4978181719779968,9.83796501159668,0.002507179432944107,0.0023825130652323496,0.0023825130652323496,2.509969711303711,2019-07-25 12:18:59:097,-178.06302987199942,-176.17902983839707,0,-48.28034210205078,35.68547058105469,-41.08327102661133
0.1652880162000656,-0.4714759290218353,9.84993839263916,-0.004685111532113607,-1.491734416091191e-05,-0.0008140607909312516,2.5199711322784424,2019-07-25 12:18:59:107,-178.08253353446113,-176.19800976301235,0,-48.28034210205078,35.68547058105469,-41.08327102661133
0.12936677038669586,-0.4475284218788147,9.82120132446289,-0.0006893944232194946,0.001849750680016738,0.0007842261046412585,2.5300087928771973,2019-07-25 12:18:59:117,-178.10683205810003,-176.221480506316,0,-48.28034210205078,35.68547058105469,-41.08327102661133
0.14373527467250824,-0.5073971748352051,9.864306449890137,0.0030399416881225563,0.002116131807605963,0.0026488941928215744,2.539999008178711,2019-07-25 12:18:59:127,-178.12918621856966,-176.23986479623753,0,-48.28034210205078,35.68547058105469,-41.08327102661133
0.09344552457332611,-0.5050024390220642,9.830780029296875,-0.0028204436389890346,0.0037144187031784726,0.0023825130652323496,2.549999713897705,2019-07-25 12:18:59:137,-178.15779622114258,-176.25467027736997,0,-48.28034210205078,35.68547058105469,-41.08327102661133
0.15810376405715942,-0.4810549318790436,9.814017295837402,-0.0014885378710057496,0.003980799830767698,0.0037144187031784726,2.560042381286621,2019-07-25 12:18:59:147,-178.17842595049237,-176.2726129246626,0,-48.28034210205078,35.68547058105469,-41.08327102661133
0.16768276691436768,-0.4786601662635803,9.842754364013672,0.0038390850708902298,0.004247180958356922,0.0005178449445427432,2.570011615753174,2019-07-25 12:18:59:157,-178.1977147645025,-176.2936268506309,0,-48.28034210205078,35.68547058105469,-41.08327102661133
0.1341562718153,-0.47626543045043945,9.792464256286621,0.0014416547925500459,-0.004010634517057691,-0.0005476796633420271,2.5800020694732666,2019-07-25 12:18:59:167,-178.21581264881877,-176.31287426022155,0,-48.28034210205078,35.68547058105469,-41.08327102661133
0.1652880162000656,-0.4163966774940491,9.73020076751709,-0.0025540625113998103,0.004779943473609696,-1.491734416091191e-05,2.5900418758392334,2019-07-25 12:18:59:177,-178.2347270862158,-176.33616826431447,0,-48.58021926879883,34.485958099365234,-40.483516693115234
0.1724722683429718,-0.45710742473602295,9.742175102233887,0.004904609581247128,0.0031816564480000235,0.0026488941928215744,2.599989414215088,2019-07-25 12:18:59:187,-178.25152487380177,-176.35845689059784,0,-48.58021926879883,34.485958099365234,-40.483516693115234
0.14134052395820618,-0.5073971748352051,9.749359130859375,0.0011752736649608213,-0.0013468231111282822,-0.0026787288791115674,2.609959840774536,2019-07-25 12:18:59:197,-178.2691287211019,-176.37236126305137,0,-48.58021926879883,34.485958099365234,-40.483516693115234
0.1533142775297165,-0.4858444333076477,9.775701522827148,0.0033063228157117807,0.0026488941928215744,0.006111849111555819,2.6200504302978516,2019-07-25 12:18:59:207,-178.28727682138745,-176.38988309698948,0,-48.58021926879883,34.485958099365234,-40.483516693115234
0.1604985147714615,-0.46908116340637207,9.833174705505371,-0.003619587021756709,0.0002514638006988733,-0.0008140607909312516,2.6299877166748047,2019-07-25 12:18:59:217,-178.3029694550039,-176.40544251031955,0,-48.58021926879883,34.485958099365234,-40.483516693115234
0.19641976058483124,-0.4666864275932312,9.773306846618652,0.00010974903269408318,0.0023825130652323496,0.0023825130652323496,2.639991521835327,2019-07-25 12:18:59:227,-178.31522132903484,-176.4227180778637,0,-48.58021926879883,34.485958099365234,-40.483516693115234
0.15570901334285736,-0.4738706648349762,9.828385353088379,-0.004418730404524382,0.0037144187031784726,0.001849750680016738,2.6499924659729004,2019-07-25 12:18:59:237,-178.33284976273393,-176.4365753784088,0,-48.58021926879883,34.485958099365234,-40.483516693115234
0.1461300253868103,-0.47626543045043945,9.763727188110352,-0.0025540625113998103,-0.0013468231111282822,-0.004010634517057691,2.6599998474121094,2019-07-25 12:18:59:247,-178.34828676351427,-176.45055629504208,0,-48.58021926879883,34.485958099365234,-40.483516693115234
0.14852477610111237,-0.4738706648349762,9.818806648254395,0.000642511344763791,0.0002514638006988733,0.004513562346020471,2.6699888706207275,2019-07-25 12:18:59:257,-178.3641296298294,-176.4666447762584,0,-48.58021926879883,34.485958099365234,-40.483516693115234
0.1389457732439041,-0.4666864275932312,9.830780029296875,-0.0038859681493459333,-0.0010804419185204762,0.002116131807605963,2.6799874305725098,2019-07-25 12:18:59:267,-178.3800454534155,-176.48077217543855,0,-48.58021926879883,34.485958099365234,-40.483516693115234
0.14134052395820618,-0.49063393473625183,9.842754364013672,0.004904609581247128,0.001316988424838289,0.0037144187031784726,2.6899898052215576,2019-07-25 12:18:59:277,-178.3967301565246,-176.4968378515632,0,-48.58021926879883,34.485958099365234,-40.483516693115234
0.1341562718153,-0.4930286705493927,9.773306846618652,-0.0028204436389890346,0.0031816564480000235,-1.491734416091191e-05,2.6999900341033936,2019-07-25 12:18:59:287,-178.4148533186867,-176.5075589675365,0,-48.58021926879883,34.485958099365234,-40.483516693115234
0.19402500987052917,-0.48344966769218445,9.804438591003418,0.004638228453657903,0.001316988424838289,0.0007842261046412585,2.709991931915283,2019-07-25 12:18:59:297,-178.4246217344385,-176.52355411327352,0,-48.880096435546875,34.78583526611328,-40.483516693115234
0.14852477610111237,-0.49542343616485596,9.80922794342041,0.0017080359201392707,0.0026488941928215744,-0.0026787288791115674,2.7199866771698,2019-07-25 12:18:59:307,-178.4402665061301,-176.5362152763623,0,-48.880096435546875,34.78583526611328,-40.483516693115234
0.1652880162000656,-0.47626543045043945,9.823596000671387,-0.0020213001261841987,-1.491734416091191e-05,-0.0032114911342900165,2.73000431060791,2019-07-25 12:18:59:317,-178.45217387305095,-176.54884145004488,0,-48.880096435546875,34.78583526611328,-40.483516693115234
0.1461300253868103,-0.45710742473602295,9.797253608703613,0.00010974903269408318,0.006111849111555819,0.001316988424838289,2.7399890422821045,2019-07-25 12:18:59:327,-178.4694664206158,-176.5645002665709,0,-48.880096435546875,34.78583526611328,-40.483516693115234
0.1341562718153,-0.4714759290218353,9.790069580078125,0.0011752736649608213,0.0037144187031784726,0.002915275320410799,2.7499868869781494,2019-07-25 12:18:59:337,-178.48646044008052,-176.57872696043754,0,-48.880096435546875,34.78583526611328,-40.483516693115234
0.1724722683429718,-0.4547126889228821,9.912201881408691,-0.001222156743416525,0.001050607232230483,-0.0016132042387175067,2.7599895000457764,2019-07-25 12:18:59:347,-178.49738438569042,-176.59393506001095,0,-48.880096435546875,34.78583526611328,-40.483516693115234
0.14134052395820618,-0.4786601662635803,9.787674903869629,-0.0028204436389890346,-0.0010804419185204762,-1.491734416091191e-05,2.7699904441833496,2019-07-25 12:18:59:357,-178.51028334220675,-176.60447685535317,0,-48.880096435546875,34.78583526611328,-40.483516693115234
0.14134052395820618,-0.46429166197776794,9.845149040222168,0.00010974903269408318,-0.0016132042387175067,0.001316988424838289,2.780226945877075,2019-07-25 12:18:59:367,-178.52270039177438,-176.61844967733697,0,-48.880096435546875,34.78583526611328,-40.483516693115234
0.179656520485878,-0.46908116340637207,9.835570335388184,-0.002287681383810586,0.0007842261046412585,0.0015833695524275135,2.789992570877075,2019-07-25 12:18:59:377,-178.53174743941054,-176.63021626690423,0,-48.880096435546875,34.78583526611328,-40.483516693115234
0.1604985147714615,-0.4978181719779968,9.840359687805176,0.0009088924723530155,0.0015833695524275135,-0.005076159287488914,2.799994945526123,2019-07-25 12:18:59:387,-178.5433132735783,-176.64020056917258,0,-48.880096435546875,34.78583526611328,-40.483516693115234
0.17007751762866974,-0.49063393473625183,9.82120132446289,0.0027735605605333316,0.002915275320410799,0.0023825130652323496,2.8099923133850098,2019-07-25 12:18:59:397,-178.55424122307178,-176.65175499000748,0,-48.880096435546875,34.78583526611328,-40.483516693115234
0.16768276691436768,-0.4618969261646271,9.82120132446289,0.0011752736649608213,-0.002145966493895956,-0.0016132042387175067,2.8200032711029053,2019-07-25 12:18:59:407,-178.56238717519673,-176.66552712000035,0,-48.880096435546875,34.78583526611328,-40.483516693115234
0.1269720196723938,-0.4475284218788147,9.842754364013672,0.0009088924723530155,0.0015833695524275135,0.002915275320410799,2.8299803733825684,2019-07-25 12:18:59:417,-178.57724490772765,-176.68065934553857,0,-48.880096435546875,34.78583526611328,-40.483516693115234
0.14852477610111237,-0.41879144310951233,9.75893783569336,0.0003761301846652757,0.0005178449445427432,-0.004543397032310465,2.839984178543091,2019-07-25 12:18:59:427,-178.5885521353194,-176.69811219193082,0,-50.07960891723633,35.985347747802734,-40.483516693115234
0.1604985147714615,-0.4666864275932312,9.785280227661133,0.00010974903269408318,0.002116131807605963,-0.00480977815989969,2.8499913215637207,2019-07-25 12:18:59:437,-178.59917648337247,-176.70960118878202,0,-50.07960891723633,35.985347747802734,-40.483516693115234
0.18444602191448212,-0.44992318749427795,9.775701522827148,0.0022407983053548824,0.004779943473609696,0.0037144187031784726,2.8600049018859863,2019-07-25 12:18:59:447,-178.60826218447002,-176.7239659133443,0,-50.07960891723633,35.985347747802734,-40.483516693115234
0.18684077262878418,-0.47626543045043945,9.823596000671387,0.0033063228157117807,0.0037144187031784726,0.004513562346020471,2.8699910640716553,2019-07-25 12:18:59:457,-178.61638747803264,-176.73582795965496,0,-50.07960891723633,35.985347747802734,-40.483516693115234
0.12457727640867233,-0.47626543045043945,9.842754364013672,-0.0028204436389890346,0.0015833695524275135,0.001050607232230483,2.8799946308135986,2019-07-25 12:18:59:467,-178.63044631323146,-176.74412248171546,0,-50.07960891723633,35.985347747802734,-40.483516693115234
0.1533142775297165,-0.4666864275932312,9.89064884185791,-0.001222156743416525,-1.491734416091191e-05,0.0002514638006988733,2.889993190765381,2019-07-25 12:18:59:477,-178.64006767465165,-176.75452438219284,0,-50.07960891723633,35.985347747802734,-40.483516693115234
0.14373527467250824,-0.4475284218788147,9.77091121673584,-0.002287681383810586,0.005046324601198921,-0.0010804419185204762,2.899991750717163,2019-07-25 12:18:59:487,-178.65324360857016,-176.76570084496814,0,-50.07960891723633,35.985347747802734,-40.483516693115234
0.1604985147714615,-0.4547126889228821,9.847543716430664,0.001974417047728495,0.001050607232230483,-0.002412347751522343,2.909994125366211,2019-07-25 12:18:59:497,-178.66209393430356,-176.77862035517762,0,-50.07960891723633,35.985347747802734,-40.483516693115234
0.14373527467250824,-0.4930286705493927,9.79964828491211,-0.0028204436389890346,0.002116131807605963,0.0031816564480000235,2.919994354248047,2019-07-25 12:18:59:507,-178.67323390086963,-176.78386081384048,0,-50.07960891723633,35.985347747802734,-40.483516693115234
0.1604985147714615,-0.4547126889228821,9.787674903869629,-0.0025540625113998103,-0.002145966493895956,0.0002514638006988733,2.929990291595459,2019-07-25 12:18:59:517,-178.6797756892889,-176.79355174632695,0,-50.07960891723633,35.985347747802734,-40.483516693115234
0.1341562718153,-0.4738706648349762,9.816411972045898,0.00010974903269408318,0.003980799830767698,0.001316988424838289,2.9399948120117188,2019-07-25 12:18:59:527,-178.6927566866748,-176.80246813731495,0,-50.07960891723633,35.985347747802734,-40.483516693115234
0.11499827355146408,-0.44992318749427795,9.840359687805176,-0.0049514926597028315,0.001316988424838289,-0.0002812985032435118,2.949981927871704,2019-07-25 12:18:59:537,-178.70624908135125,-176.81128474870792,0,-50.07960891723633,35.985347747802734,-40.483516693115234
0.1533142775297165,-0.44992318749427795,9.857122421264648,0.0014416547925500459,-1.491734416091191e-05,-0.0029451100067007917,2.960022211074829,2019-07-25 12:18:59:547,-178.71429395164753,-176.82360336404764,0,-49.629791259765625,35.53553009033203,-39.733821868896484
0.12457727640867233,-0.44273892045021057,9.773306846618652,-0.0014885378710057496,0.001050607232230483,0.005046324601198921,2.970015287399292,2019-07-25 12:18:59:557,-178.72599174317014,-176.83442060140231,0,-49.629791259765625,35.53553009033203,-39.733821868896484
0.15091952681541443,-0.48344966769218445,9.854727745056152,0.004371847326068679,0.0023825130652323496,-0.003744253389468466,2.9800195693969727,2019-07-25 12:18:59:567,-178.735262587963,-176.84401714683906,0,-49.629791259765625,35.53553009033203,-39.733821868896484
0.15091952681541443,-0.4810549318790436,9.787674903869629,0.0009088924723530155,0.0023825130652323496,-0.002412347751522343,2.9900147914886475,2019-07-25 12:18:59:577,-178.74422660825462,-176.85137152262897,0,-49.629791259765625,35.53553009033203,-39.733821868896484
0.15810376405715942,-0.4930286705493927,9.778096199035645,-0.00015663211927710938,0.002915275320410799,-0.0029451100067007917,3.000039577484131,2019-07-25 12:18:59:587,-178.75245615942606,-176.85652575244012,0,-49.629791259765625,35.53553009033203,-39.733821868896484
0.13176152110099792,-0.4714759290218353,9.814017295837402,0.00010974903269408318,-0.0016132042387175067,0.0005178449445427432,3.009967803955078,2019-07-25 12:18:59:597,-178.76112375940215,-176.86444769662288,0,-49.629791259765625,35.53553009033203,-39.733821868896484
0.13176152110099792,-0.4523179233074188,9.840359687805176,0.0017080359201392707,0.0015833695524275135,0.001316988424838289,3.0199832916259766,2019-07-25 12:18:59:607,-178.77144893238395,-176.87548365279034,0,-49.629791259765625,35.53553009033203,-39.733821868896484
0.1724722683429718,-0.42358094453811646,9.82120132446289,0.0011752736649608213,0.004513562346020471,0.001050607232230483,3.0299785137176514,2019-07-25 12:18:59:617,-178.77843149550753,-176.88924172094417,0,-49.629791259765625,35.53553009033203,-39.733821868896484
0.1604985147714615,-0.4738706648349762,9.845149040222168,0.003572703943301005,-1.491734416091191e-05,0.0005178449445427432,3.0399792194366455,2019-07-25 12:18:59:627,-178.78417509066944,-176.89834996186335,0,-49.629791259765625,35.53553009033203,-39.733821868896484
0.16289326548576355,-0.44273892045021057,9.82120132446289,0.0038390850708902298,0.0026488941928215744,-0.0013468231111282822,3.0499813556671143,2019-07-25 12:18:59:637,-178.7909749812455,-176.91091623716153,0,-49.629791259765625,35.53553009033203,-39.733821868896484
0.179656520485878,-0.4595021903514862,9.766121864318848,0.0022407983053548824,-0.003744253389468466,-0.0005476796633420271,3.05998158454895,2019-07-25 12:18:59:647,-178.7919752786008,-176.92007982850285,0,-49.629791259765625,35.53553009033203,-39.733821868896484
0.14373527467250824,-0.4618969261646271,9.80922794342041,0.00010974903269408318,0.0026488941928215744,-0.0002812985032435118,3.0699803829193115,2019-07-25 12:18:59:657,-178.80083296842508,-176.92782080272391,0,-49.629791259765625,35.53553009033203,-39.733821868896484
0.15570901334285736,-0.45710742473602295,9.857122421264648,-0.001222156743416525,-0.0016132042387175067,0.001316988424838289,3.0799825191497803,2019-07-25 12:18:59:667,-178.80581023955304,-176.9354761413197,0,-49.629791259765625,35.53553009033203,-39.733821868896484
0.1604985147714615,-0.4738706648349762,9.794858932495117,-0.002287681383810586,0.001849750680016738,-0.0010804419185204762,3.0899646282196045,2019-07-25 12:18:59:677,-178.8119555215649,-176.94008872212893,0,-49.32991409301758,34.93577575683594,-40.33357620239258
0.16768276691436768,-0.41879144310951233,9.79964828491211,-0.00308682476657826,0.0023825130652323496,-0.0008140607909312516,3.099968671798706,2019-07-25 12:18:59:687,-178.81744876638615,-176.95061166951388,0,-49.32991409301758,34.93577575683594,-40.33357620239258
0.15810376405715942,-0.4666864275932312,9.797253608703613,-0.0025540625113998103,0.0026488941928215744,0.001849750680016738,3.109966993331909,2019-07-25 12:18:59:697,-178.82409621576596,-176.95562178640725,0,-49.32991409301758,34.93577575683594,-40.33357620239258
0.16768276691436768,-0.43794941902160645,9.792464256286621,0.0057037529640148014,0.002116131807605963,-1.491734416091191e-05,3.119985580444336,2019-07-25 12:18:59:707,-178.82918436089955,-176.96850317601135,0,-49.32991409301758,34.93577575683594,-40.33357620239258
0.17486701905727386,-0.4666864275932312,9.814017295837402,-0.000955775550808719,0.0002514638006988733,0.0002514638006988733,3.129967212677002,2019-07-25 12:18:59:717,-178.83232574703285,-176.974146671725,0,-49.32991409301758,34.93577575683594,-40.33357620239258
0.19641976058483124,-0.48344966769218445,9.775701522827148,-0.00308682476657826,0.001316988424838289,0.0015833695524275135,3.1399848461151123,2019-07-25 12:18:59:727,-178.83339863874173,-176.97630320768536,0,-49.32991409301758,34.93577575683594,-40.33357620239258
0.14373527467250824,-0.44513368606567383,9.845149040222168,0.0014416547925500459,0.0031816564480000235,-0.0008140607909312516,3.149963855743408,2019-07-25 12:18:59:737,-178.84178468678306,-176.98580933413527,0,-49.32991409301758,34.93577575683594,-40.33357620239258
0.18684077262878418,-0.4618969261646271,9.794858932495117,0.0022407983053548824,-0.0010804419185204762,0.0031816564480000235,3.1599717140197754,2019-07-25 12:18:59:747,-178.84248571136774,-176.99335431362238,0,-49.32991409301758,34.93577575683594,-40.33357620239258
0.21318301558494568,-0.4475284218788147,9.828385353088379,-0.0006893944232194946,-0.0002812985032435118,0.0002514638006988733,3.169971466064453,2019-07-25 12:18:59:757,-178.8406264177984,-177.00095772187223,0,-49.32991409301758,34.93577575683594,-40.33357620239258
0.1604985147714615,-0.4714759290218353,9.792464256286621,-0.0020213001261841987,-0.0016132042387175067,0.004779943473609696,3.1799755096435547,2019-07-25 12:18:59:767,-178.84412783317006,-177.00467354214038,0,-49.32991409301758,34.93577575683594,-40.33357620239258
0.179656520485878,-0.4403441846370697,9.811622619628906,-0.00308682476657826,0.0037144187031784726,-1.491734416091191e-05,3.1899609565734863,2019-07-25 12:18:59:777,-178.8483478454318,-177.01145530957984,0,-49.32991409301758,34.93577575683594,-40.33357620239258
0.15810376405715942,-0.49542343616485596,9.86670207977295,-0.005750636042470505,-0.0032114911342900165,0.002116131807605963,3.1999754905700684,2019-07-25 12:18:59:787,-178.85121447108656,-177.01050250073038,0,-49.32991409301758,34.93577575683594,-40.33357620239258
0.1604985147714615,-0.4930286705493927,9.871491432189941,0.00010974903269408318,0.002915275320410799,0.0015833695524275135,3.2099742889404297,2019-07-25 12:18:59:797,-178.85719734760428,-177.013169174878,0,-49.479854583740234,35.38559341430664,-40.78339385986328
0.11260352283716202,-0.4978181719779968,9.794858932495117,0.0011752736649608213,0.0007842261046412585,0.00557908685637737,3.219985246658325,2019-07-25 12:18:59:807,-178.86732114628225,-177.01537598642395,0,-49.479854583740234,35.38559341430664,-40.78339385986328
0.08147177845239639,-0.5121866464614868,9.77091121673584,0.0011752736649608213,0.0031816564480000235,0.007443754749501942,3.2299716472625732,2019-07-25 12:18:59:817,-178.8822041415717,-177.0157140468604,0,-49.479854583740234,35.38559341430664,-40.78339385986328
0.08386652916669846,-0.5121866464614868,9.89064884185791,-0.0006893944232194946,0.0007842261046412585,0.005845467983966595,3.239971876144409,2019-07-25 12:18:59:827,-178.89528399456495,-177.01572445363524,0,-49.479854583740234,35.38559341430664,-40.78339385986328
0.04555053263902664,-0.4595021903514862,9.842754364013672,0.00010974903269408318,0.002915275320410799,0.0031816564480000235,3.2499687671661377,2019-07-25 12:18:59:837,-178.91371167133045,-177.0220141043051,0,-49.479854583740234,35.38559341430664,-40.78339385986328
0.08147177845239639,-0.4331599175930023,9.802042961120605,0.0003761301846652757,0.0071773736219127166,0.001849750680016738,3.259971857070923,2019-07-25 12:18:59:847,-178.92994446526595,-177.03117910547292,0,-49.479854583740234,35.38559341430664,-40.78339385986328
0.09105078130960464,-0.3876596987247467,9.825990676879883,0.004638228453657903,0.0023825130652323496,0.0002514638006988733,3.269972562789917,2019-07-25 12:18:59:857,-178.94206533070133,-177.0479742885794,0,-49.479854583740234,35.38559341430664,-40.78339385986328
0.11499827355146408,-0.3565279543399811,9.814017295837402,0.0003761301846652757,0.001316988424838289,-0.002145966493895956,3.2799735069274902,2019-07-25 12:18:59:867,-178.95053663476423,-177.06561499074382,0,-49.479854583740234,35.38559341430664,-40.78339385986328
0.1269720196723938,-0.41879144310951233,9.77091121673584,0.00010974903269408318,0.004779943473609696,-0.00480977815989969,3.2899816036224365,2019-07-25 12:18:59:877,-178.9593217858936,-177.075279270542,0,-49.479854583740234,35.38559341430664,-40.78339385986328
0.1604985147714615,-0.4738706648349762,9.79964828491211,0.0022407983053548824,0.0015833695524275135,-0.003744253389468466,3.299974203109741,2019-07-25 12:18:59:887,-178.9622576389467,-177.0796623258968,0,-49.479854583740234,35.38559341430664,-40.78339385986328
0.1533142775297165,-0.47626543045043945,9.794858932495117,0.0027735605605333316,0.0005178449445427432,0.0002514638006988733,3.3099660873413086,2019-07-25 12:18:59:897,-178.96536801122295,-177.0839499916448,0,-49.479854583740234,35.38559341430664,-40.78339385986328
0.11499827355146408,-0.5552921891212463,9.89064884185791,-0.001222156743416525,0.0026488941928215744,-0.0008140607909312516,3.319986343383789,2019-07-25 12:18:59:907,-178.97422808885585,-177.07731551922228,0,-49.479854583740234,35.38559341430664,-40.78339385986328
0.15091952681541443,-0.5313446521759033,9.768516540527344,0.002507179432944107,0.001849750680016738,0.002116131807605963,3.3299643993377686,2019-07-25 12:18:59:917,-178.97807736843,-177.07490480103883,0,-49.479854583740234,35.38559341430664,-40.78339385986328
0.179656520485878,-0.5026076436042786,9.794858932495117,-0.0025540625113998103,0.006910992494323493,0.006378230239145044,3.3399691581726074,2019-07-25 12:18:59:927,-178.9813822449097,-177.07322260721395,0,-49.17997741699219,35.08571243286133,-41.38315200805664
0.15091952681541443,-0.5002129077911377,9.768516540527344,-0.000955775550808719,0.0002514638006988733,0.001849750680016738,3.3499703407287598,2019-07-25 12:18:59:937,-178.98419330133214,-177.07259414487802,0,-49.17997741699219,35.08571243286133,-41.38315200805664
0.12218252569437027,-0.4211861789226532,9.823596000671387,0.0014416547925500459,0.002915275320410799,0.006910992494323493,3.3599698543548584,2019-07-25 12:18:59:947,-178.9918945076679,-177.0828507092476,0,-49.17997741699219,35.08571243286133,-41.38315200805664
0.09105078130960464,-0.43076518177986145,9.804438591003418,-0.0017549189985949741,0.0026488941928215744,-0.0002812985032435118,3.369968891143799,2019-07-25 12:18:59:957,-179.00290236785125,-177.08989412366262,0,-49.17997741699219,35.08571243286133,-41.38315200805664
0.15091952681541443,-0.4475284218788147,9.814017295837402,-0.0017549189985949741,0.003448037575589248,0.0031816564480000235,3.379974842071533,2019-07-25 12:18:59:967,-179.0071610903206,-177.09489161638996,0,-49.17997741699219,35.08571243286133,-41.38315200805664
0.14134052395820618,-0.4666864275932312,9.816411972045898,0.0030399416881225563,0.001849750680016738,-0.0008140607909312516,3.3899686336517334,2019-07-25 12:18:59:977,-179.01155765710786,-177.10026215069885,0,-49.17997741699219,35.08571243286133,-41.38315200805664
0.16289326548576355,-0.46908116340637207,9.888254165649414,0.0003761301846652757,0.0037144187031784726,0.001316988424838289,3.3999831676483154,2019-07-25 12:18:59:987,-179.01453974619469,-177.10414893901734,0,-49.17997741699219,35.08571243286133,-41.38315200805664
0.18684077262878418,-0.5073971748352051,9.835570335388184,-0.0020213001261841987,0.0007842261046412585,-0.0018795853663067313,3.4099667072296143,2019-07-25 12:18:59:997,-179.01292287521053,-177.10186976233612,0,-49.17997741699219,35.08571243286133,-41.38315200805664
0.18205127120018005,-0.4882391691207886,9.80922794342041,0.0041054661984794545,-0.0005476796633420271,0.001849750680016738,3.4199705123901367,2019-07-25 12:19:00:007,-179.0110919617272,-177.1051493099984,0,-49.17997741699219,35.08571243286133,-41.38315200805664
0.19402500987052917,-0.5002129077911377,9.763727188110352,-0.00042301326312097924,-0.0034778722618792413,-1.491734416091191e-05,3.42997407913208,2019-07-25 12:19:00:017,-179.00614794140446,-177.1041527296995,0,-49.17997741699219,35.08571243286133,-41.38315200805664
0.2251567542552948,-0.5193709135055542,9.763727188110352,0.00010974903269408318,0.003448037575589248,-1.491734416091191e-05,3.439967393875122,2019-07-25 12:19:00:027,-179.0015390149915,-177.1012329126142,0,-49.17997741699219,35.08571243286133,-41.38315200805664
0.2251567542552948,-0.49542343616485596,9.761332511901855,-0.00015663211927710938,0.0031816564480000235,0.0037144187031784726,3.4499709606170654,2019-07-25 12:19:00:037,-178.9968681466652,-177.1010107153221,0,-49.17997741699219,35.08571243286133,-41.38315200805664
0.22276201844215393,-0.4978181719779968,9.787674903869629,-0.002287681383810586,-0.0016132042387175067,0.0023825130652323496,3.4599714279174805,2019-07-25 12:19:00:047,-178.98994903185292,-177.0994728307948,0,-49.629791259765625,34.93577575683594,-40.33357620239258
0.20120926201343536,-0.4140019416809082,9.797253608703613,0.0030399416881225563,0.006378230239145044,0.002915275320410799,3.469965934753418,2019-07-25 12:19:00:057,-178.99019873248375,-177.1107952664632,0,-49.629791259765625,34.93577575683594,-40.33357620239258
0.2059987634420395,-0.4331599175930023,9.842754364013672,-0.00015663211927710938,0.002915275320410799,-0.0032114911342900165,3.4799933433532715,2019-07-25 12:19:00:067,-178.9880568291474,-177.11809423783743,0,-49.629791259765625,34.93577575683594,-40.33357620239258
0.22755150496959686,-0.4020281732082367,9.811622619628906,-0.0014885378710057496,0.005845467983966595,-0.005076159287488914,3.4899637699127197,2019-07-25 12:19:00:077,-178.98499685590454,-177.12797173008644,0,-49.629791259765625,34.93577575683594,-40.33357620239258
0.18923550844192505,-0.48344966769218445,9.883464813232422,0.0011752736649608213,0.008242898132269616,-0.006674446053024261,3.499966621398926,2019-07-25 12:19:00:087,-178.98798881946925,-177.13006457978238,0,-49.629791259765625,34.93577575683594,-40.33357620239258
0.18444602191448212,-0.4475284218788147,9.80922794342041,-0.0017549189985949741,0.003448037575589248,-0.003744253389468466,3.5099730491638184,2019-07-25 12:19:00:097,-178.9886218808034,-177.13423315596637,0,-49.629791259765625,34.93577575683594,-40.33357620239258
0.15570901334285736,-0.4786601662635803,9.835570335388184,0.000642511344763791,0.005046324601198921,-0.0029451100067007917,3.5199685096740723,2019-07-25 12:19:00:107,-178.99354194235215,-177.13618566628764,0,-49.629791259765625,34.93577575683594,-40.33357620239258
0.1916302591562271,-0.41879144310951233,9.847543716430664,0.00010974903269408318,0.0031816564480000235,-0.006674446053024261,3.5299718379974365,2019-07-25 12:19:00:117,-178.99316183289633,-177.144820016347,0,-49.629791259765625,34.93577575683594,-40.33357620239258
0.1197877749800682,-0.43794941902160645,9.792464256286621,0.0030399416881225563,-0.0010804419185204762,-0.0026787288791115674,3.539973497390747,2019-07-25 12:19:00:127,-178.99867494518992,-177.15241604539074,0,-49.629791259765625,34.93577575683594,-40.33357620239258
0.15810376405715942,-0.4355546832084656,9.802042961120605,-0.001222156743416525,-1.491734416091191e-05,-0.008272732818559609,3.5499699115753174,2019-07-25 12:19:00:137,-179.00021143020817,-177.15779633931447,0,-49.629791259765625,34.93577575683594,-40.33357620239258
0.1269720196723938,-0.4858444333076477,9.857122421264648,-0.0020213001261841987,0.002915275320410799,-0.007473589435791935,3.5599868297576904,2019-07-25 12:19:00:147,-179.0070868897089,-177.15706855313334,0,-49.629791259765625,34.93577575683594,-40.33357620239258
0.1006297767162323,-0.4714759290218353,9.756543159484863,-0.003353205894167484,0.0007842261046412585,-0.008539113946148834,3.5699660778045654,2019-07-25 12:19:00:157,-179.01556593283718,-177.15671600130295,0,-49.629791259765625,34.93577575683594,-40.33357620239258
0.14134052395820618,-0.4355546832084656,9.852333068847656,0.0022407983053548824,-0.0008140607909312516,-0.01173568747721953,3.579970359802246,2019-07-25 12:19:00:167,-179.01835926867102,-177.16421443330162,0,-49.629791259765625,34.93577575683594,-40.33357620239258
0.10781402885913849,-0.4714759290218353,9.766121864318848,-0.002287681383810586,-0.0018795853663067313,-0.0029451100067007917,3.5899672508239746,2019-07-25 12:19:00:177,-179.02428709679094,-177.16436793278538,0,-48.43028259277344,35.235652923583984,-39.733821868896484
0.09823502600193024,-0.44273892045021057,9.84993839263916,-0.003619587021756709,0.0026488941928215744,-0.008539113946148834,3.5999698638916016,2019-07-25 12:19:00:187,-179.03386107167066,-177.16757522899664,0,-48.43028259277344,35.235652923583984,-39.733821868896484
0.11020877212285995,-0.44273892045021057,9.842754364013672,0.0009088924723530155,-0.0002812985032435118,-0.01067016296686263,3.6099674701690674,2019-07-25 12:19:00:197,-179.0401957224749,-177.17322400515636,0,-48.43028259277344,35.235652923583984,-39.733821868896484
0.07189278304576874,-0.44273892045021057,9.847543716430664,0.00010974903269408318,0.001849750680016738,-0.0029451100067007917,3.619983434677124,2019-07-25 12:19:00:207,-179.05206639855274,-177.17833632652855,0,-48.43028259277344,35.235652923583984,-39.733821868896484
0.07189278304576874,-0.5169761776924133,9.823596000671387,0.0041054661984794545,-0.0005476796633420271,-0.002145966493895956,3.6299691200256348,2019-07-25 12:19:00:217,-179.06233189634762,-177.17682218394648,0,-48.43028259277344,35.235652923583984,-39.733821868896484
0.021603036671876907,-0.4738706648349762,9.847543716430664,-0.0014885378710057496,0.0037144187031784726,-0.003744253389468466,3.639967918395996,2019-07-25 12:19:00:227,-179.08065680199556,-177.17735027556043,0,-48.43028259277344,35.235652923583984,-39.733821868896484
0.05273478478193283,-0.5121866464614868,9.845149040222168,0.0009088924723530155,0.001849750680016738,-0.0032114911342900165,3.649970293045044,2019-07-25 12:19:00:237,-179.0939445949262,-177.1747520126941,0,-48.43028259277344,35.235652923583984,-39.733821868896484
0.05034003406763077,-0.5073971748352051,9.873886108398438,0.0022407983053548824,0.001849750680016738,0.0015833695524275135,3.65997052192688,2019-07-25 12:19:00:247,-179.107262188393,-177.17368088960623,0,-48.43028259277344,35.235652923583984,-39.733821868896484
-0.002344459993764758,-0.5121866464614868,9.9074125289917,0.00010974903269408318,0.002116131807605963,0.00557908685637737,3.66996431350708,2019-07-25 12:19:00:257,-171.92657557804588,-177.17108078732807,0,-48.43028259277344,35.235652923583984,-39.733821868896484
0.08865603059530258,-0.4331599175930023,9.921780586242676,-0.004418730404524382,0.0031816564480000235,0.008242898132269616,3.6799774169921875,2019-07-25 12:19:00:267,-172.07959385152685,-177.1751787722991,0,-48.43028259277344,35.235652923583984,-39.733821868896484
0.14852477610111237,-0.5169761776924133,9.835570335388184,0.004904609581247128,0.005312705728788145,0.001849750680016738,3.6899683475494385,2019-07-25 12:19:00:277,-172.22367944285403,-177.17425051670196,0,-48.43028259277344,35.235652923583984,-39.733821868896484
0.026392536237835884,-0.5145814418792725,9.845149040222168,0.0014416547925500459,0.0023825130652323496,0.0037144187031784726,3.6999897956848145,2019-07-25 12:19:00:287,-172.377474577463,-177.17173702558375,0,-48.43028259277344,35.235652923583984,-39.733821868896484
0.11499827355146408,-0.5289499163627625,9.854727745056152,-0.003619587021756709,0.001849750680016738,0.010906709928310512,3.7099626064300537,2019-07-25 12:19:00:297,-172.51758941053504,-177.1648276648877,0,-48.730159759521484,35.83540725708008,-40.63345718383789
0.13655102252960205,-0.4618969261646271,9.78049087524414,0.006502896346782475,0.006910992494323493,0.002915275320410799,3.719967842102051,2019-07-25 12:19:00:307,-172.65512242388562,-177.17110715469656,0,-48.730159759521484,35.83540725708008,-40.63345718383789
0.22994625568389893,-0.47626543045043945,9.723016738891602,0.0011752736649608213,0.007710135877091167,0.0071773736219127166,3.7299699783325195,2019-07-25 12:19:00:317,-172.7792546423389,-177.17225916997273,0,-48.730159759521484,35.83540725708008,-40.63345718383789
0.17007751762866974,-0.40442293882369995,9.797253608703613,0.005170990708836353,0.006378230239145044,0.0031816564480000235,3.7399699687957764,2019-07-25 12:19:00:327,-172.90736014504412,-177.1844418319126,0,-48.730159759521484,35.83540725708008,-40.63345718383789
0.1724722683429718,-0.5026076436042786,9.787674903869629,0.005170990708836353,0.0015833695524275135,0.006910992494323493,3.7499799728393555,2019-07-25 12:19:00:337,-173.0299123752278,-177.18486704584348,0,-48.730159759521484,35.83540725708008,-40.63345718383789
0.07189278304576874,-0.24636945128440857,9.914596557617188,-0.014274832645474344,0.0031816564480000235,0.002915275320410799,3.759970188140869,2019-07-25 12:19:00:347,-173.1627897509671,-177.20469306109663,0,-48.730159759521484,35.83540725708008,-40.63345718383789
-0.021502457559108734,-0.45710742473602295,9.814017295837402,-0.004685111532113607,0.011173090535751088,-0.005076159287488914,3.7699694633483887,2019-07-25 12:19:00:357,-166.1083178670646,-177.20463394936394,0,-48.730159759521484,35.83540725708008,-40.63345718383789
-0.007133959326893091,-0.5026076436042786,9.70146369934082,0.015293474077375538,0.0007842261046412585,-0.009604638456505731,3.7799882888793945,2019-07-25 12:19:00:367,-159.18743532804038,-177.2098308183413,0,-48.730159759521484,35.83540725708008,-40.63345718383789
-0.16279268264770508,-0.6271346807479858,9.976860046386719,-0.04117932809243197,0.0071773736219127166,-0.012002069124957404,3.7899820804595947,2019-07-25 12:19:00:377,-152.42641048004344,-177.17059004668278,0,-48.730159759521484,35.83540725708008,-40.63345718383789
0.47660547494888306,-1.1731375455856323,9.83796501159668,0.000642511344763791,-0.016264167166384996,-1.491734416091191e-05,3.7999701499938965,2019-07-25 12:19:00:387,-152.91328973375892,-177.09153499663753,0,-48.730159759521484,35.83540725708008,-40.63345718383789
0.5053424835205078,-0.21523770689964294,9.593700408935547,0.037669489835167706,0.02768872148658031,0.014636045714559657,3.8099677562713623,2019-07-25 12:19:00:397,-153.41026270480077,-177.14514593394986,0,-48.730159759521484,35.83540725708008,-40.63345718383789
0.6610012054443359,-0.24876420199871063,9.823596000671387,-0.015606738803569116,-0.03437808488274957,0.012238615046107985,3.8199846744537354,2019-07-25 12:19:00:407,-153.84573226882492,-177.1644530574871,0,-48.730159759521484,35.83540725708008,-40.63345718383789
0.29460451006889343,-0.3685016930103302,9.129118919372559,0.016625380235470312,0.029287009292412958,0.0005178449445427432,3.829965353012085,2019-07-25 12:19:00:417,-154.34826361439403,-177.18425069959818,0,-48.730159759521484,35.83540725708008,-40.63345718383789
0.2514989972114563,-0.6223451495170593,10.058281898498535,-0.02386455323868643,-0.005076159287488914,0.0071773736219127166,3.8399620056152344,2019-07-25 12:19:00:427,-154.82980233973717,-177.1563582608708,0,-48.730159759521484,35.235652923583984,-41.233211517333984
0.28742024302482605,-0.16734270751476288,9.806833267211914,0.008367564239907048,0.0023825130652323496,0.013304139556464882,3.849977731704712,2019-07-25 12:19:00:437,-155.30097110769668,-177.19838498218834,0,-48.730159759521484,35.235652923583984,-41.233211517333984
0.1724722683429718,-0.7516616582870483,9.749359130859375,-0.022799028728329528,0.001849750680016738,0.0007842261046412585,3.8599681854248047,2019-07-25 12:19:00:447,-155.77571947649164,-177.15345385672953,0,-48.730159759521484,35.235652923583984,-41.233211517333984
0.2898150086402893,-0.4259756803512573,9.830780029296875,-0.012676545879938996,-0.015465023263468674,0.0002514638006988733,3.8699889183044434,2019-07-25 12:19:00:457,-156.2177312625311,-177.15362974685547,0,-48.730159759521484,35.235652923583984,-41.233211517333984
0.05034003406763077,-0.5888186693191528,9.77091121673584,-0.008680828445951977,0.00797651700468039,0.0015833695524275135,3.8803467750549316,2019-07-25 12:19:00:467,-156.6921119777204,-177.13653622443599,0,-48.730159759521484,35.235652923583984,-41.233211517333984
0.2251567542552948,-0.40442293882369995,9.811622619628906,0.00623651521919325,0.005312705728788145,0.0002514638006988733,3.8899576663970947,2019-07-25 12:19:00:477,-157.1348449268828,-177.14996453705567,0,-48.730159759521484,35.235652923583984,-41.233211517333984
0.44547373056411743,-0.5960029363632202,9.330277442932129,-0.023331792023805278,0.0015833695524275135,-0.002412347751522343,3.8999745845794678,2019-07-25 12:19:00:487,-157.53836841389202,-177.1207424087882,0,-48.730159759521484,35.235652923583984,-41.233211517333984
0.20360401272773743,-0.41160717606544495,9.794858932495117,-0.006816160552827403,0.010640328280572637,-0.017862453931920343,3.9099693298339844,2019-07-25 12:19:00:497,-157.96975591975462,-177.12637606676225,0,-48.730159759521484,35.235652923583984,-41.233211517333984
-0.15321369469165802,-0.5145814418792725,9.943333625793457,0.029411674359753087,-0.019993502952634138,-0.01759607332447977,3.9199798107147217,2019-07-25 12:19:00:507,-151.21677836550845,-177.14113058931693,0,-48.730159759521484,35.235652923583984,-41.233211517333984
0.12218252569437027,-0.5840291380882263,10.142097473144531,-0.04277761589826462,-0.008805495593886707,-0.005076159287488914,3.929969549179077,2019-07-25 12:19:00:517,-151.77369934411843,-177.10839869628919,0,-48.730159759521484,35.235652923583984,-41.233211517333984
-0.11968719214200974,-0.5073971748352051,9.768516540527344,-0.00894721009368985,-0.0018795853663067313,-0.022390932580788513,3.9399735927581787,2019-07-25 12:19:00:527,-145.15120899150193,-177.1017370353799,0,-48.730159759521484,35.235652923583984,-41.233211517333984
0.09823502600193024,-0.7229246497154236,10.053492546081543,-0.017471406176545037,-0.012268449732397976,-0.007207208308202711,3.9499621391296387,2019-07-25 12:19:00:537,-145.83010733112727,-177.06764466180567,0,-48.730159759521484,35.235652923583984,-41.233211517333984
0.10781402885913849,-0.4738706648349762,9.976860046386719,0.0022407983053548824,-0.011469306869778954,0.001849750680016738,3.9599709510803223,2019-07-25 12:19:00:547,-146.49467675901175,-177.0731644327035,0,-49.77973175048828,35.68547058105469,-40.483516693115234
0.012024038471281528,-0.22002720832824707,9.488330841064453,0.013428806704399615,0.006644611366734268,0.003448037575589248,3.9699695110321045,2019-07-25 12:19:00:557,-147.16706147193642,-177.11267216155207,0,-49.77973175048828,35.68547058105469,-40.483516693115234
0.18923550844192505,-0.548107922077179,9.816411972045898,-0.005217873787292057,0.006910992494323493,0.01197223443866741,3.97998309135437,2019-07-25 12:19:00:567,-147.8055184168306,-177.10356808248653,0,-49.77973175048828,35.68547058105469,-40.483516693115234
-0.05263420194387436,-0.47626543045043945,9.782885551452637,0.0038390850708902298,-0.0002812985032435118,0.003980799830767698,3.990319013595581,2019-07-25 12:19:00:577,-141.2554100271012,-177.1079815662761,0,-49.77973175048828,35.68547058105469,-40.483516693115234
-0.05263420194387436,-0.4163966774940491,9.869096755981445,0.004904609581247128,0.004779943473609696,0.00904204151503729,3.9999561309814453,2019-07-25 12:19:00:587,-134.83899974109352,-177.1201561486988,0,-49.77973175048828,35.68547058105469,-40.483516693115234
0.033576786518096924,-0.44513368606567383,9.86191177368164,-0.0060170171700597306,0.001316988424838289,0.009841185417953615,4.009974241256714,2019-07-25 12:19:00:597,-135.73905909647115,-177.1226806485563,0,-49.77973175048828,35.68547058105469,-40.483516693115234
-0.007133959326893091,-0.4475284218788147,9.773306846618652,0.004371847326068679,0.005845467983966595,0.003980799830767698,4.0199689865112305,2019-07-25 12:19:00:607,-129.42839486533347,-177.13024466567555,0,-49.77973175048828,35.68547058105469,-40.483516693115234
0.03597153350710869,-0.5002129077911377,9.924175262451172,0.0017080359201392707,-0.0002812985032435118,-0.0002812985032435118,4.0299859046936035,2019-07-25 12:19:00:617,-130.4355152421459,-177.1308911656165,0,-49.77973175048828,35.68547058105469,-40.483516693115234
0.02399778738617897,-0.4786601662635803,9.79964828491211,0.005437371836425577,-0.0008140607909312516,0.003980799830767698,4.039960622787476,2019-07-25 12:19:00:627,-131.42354283862224,-177.13539132959508,0,-49.77973175048828,35.68547058105469,-40.483516693115234
0.028787286952137947,-0.4738706648349762,9.751753807067871,0.005970134091604027,0.002116131807605963,0.003980799830767698,4.049971103668213,2019-07-25 12:19:00:637,-132.3928786864352,-177.14039909558457,0,-49.77973175048828,35.68547058105469,-40.483516693115234
0.09105078130960464,-0.49542343616485596,9.845149040222168,-0.0060170171700597306,-1.491734416091191e-05,0.0026488941928215744,4.059969186782837,2019-07-25 12:19:00:647,-133.3344152820882,-177.1365975333516,0,-49.77973175048828,35.68547058105469,-40.483516693115234
0.13176152110099792,-0.4355546832084656,9.756543159484863,0.0014416547925500459,-0.0002812985032435118,0.0026488941928215744,4.069983959197998,2019-07-25 12:19:00:657,-134.25209421486505,-177.14355388294734,0,-49.77973175048828,35.68547058105469,-40.483516693115234
0.11020877212285995,-0.4283704161643982,9.806833267211914,0.0017080359201392707,0.0007842261046412585,0.005046324601198921,4.0799665451049805,2019-07-25 12:19:00:667,-135.15461469740814,-177.15161747286592,0,-49.77973175048828,35.68547058105469,-40.483516693115234
0.18444602191448212,-0.45710742473602295,9.79964828491211,-0.005484254914881281,-0.0002812985032435118,0.006378230239145044,4.0899658203125,2019-07-25 12:19:00:677,-136.02979893518,-177.15209309704483,0,-48.28034210205078,35.985347747802734,-41.38315200805664
0.179656520485878,-0.3469489514827728,9.80922794342041,0.0011752736649608213,-0.0005476796633420271,0.008509279259858839,4.099973440170288,2019-07-25 12:19:00:687,-136.8879100432863,-177.1691979088112,0,-48.28034210205078,35.985347747802734,-41.38315200805664
0.10541927814483643,-0.44513368606567383,9.869096755981445,-0.0025540625113998103,0.004513562346020471,0.007710135877091167,4.1099677085876465,2019-07-25 12:19:00:697,-137.7404448243462,-177.17273053756006,0,-48.28034210205078,35.985347747802734,-41.38315200805664
0.17726176977157593,-0.5073971748352051,9.86670207977295,-0.0038859681493459333,0.001050607232230483,0.005845467983966595,4.1199774742126465,2019-07-25 12:19:00:707,-138.5656415083393,-177.16821475088804,0,-48.28034210205078,35.985347747802734,-41.38315200805664
0.15091952681541443,-0.43794941902160645,9.82120132446289,-0.007348922808005853,0.006644611366734268,0.006111849111555819,4.130326747894287,2019-07-25 12:19:00:717,-139.38058236662303,-177.16951480111976,0,-48.28034210205078,35.985347747802734,-41.38315200805664
0.17007751762866974,-0.4714759290218353,9.806833267211914,-0.003619587021756709,-0.002145966493895956,0.006111849111555819,4.139978885650635,2019-07-25 12:19:00:727,-140.17193633540887,-177.16911385391302,0,-48.28034210205078,35.985347747802734,-41.38315200805664
0.1652880162000656,-0.509791910648346,9.825990676879883,-0.001222156743416525,0.002915275320410799,0.003448037575589248,4.149968385696411,2019-07-25 12:19:00:737,-140.9508585984922,-177.16564693890274,0,-48.28034210205078,35.985347747802734,-41.38315200805664
0.1604985147714615,-0.5337393879890442,9.828385353088379,-0.002287681383810586,0.001849750680016738,0.0002514638006988733,4.1599836349487305,2019-07-25 12:19:00:747,-141.71417038990992,-177.15887859181922,0,-48.28034210205078,35.985347747802734,-41.38315200805664
0.20120926201343536,-0.5409236550331116,9.794858932495117,-0.001222156743416525,0.004247180958356922,0.00557908685637737,4.169979095458984,2019-07-25 12:19:00:757,-142.45873421559855,-177.1517958201046,0,-48.28034210205078,35.985347747802734,-41.38315200805664
0.15570901334285736,-0.5265551805496216,9.852333068847656,-0.0025540625113998103,-0.0010804419185204762,0.005845467983966595,4.179972410202026,2019-07-25 12:19:00:767,-143.19084440895386,-177.14614183278007,0,-48.28034210205078,35.985347747802734,-41.38315200805664
0.17007751762866974,-0.5888186693191528,9.790069580078125,-0.00042301326312097924,0.0023825130652323496,0.004513562346020471,4.189968824386597,2019-07-25 12:19:00:777,-143.9084594572192,-177.13414398315484,0,-48.28034210205078,35.985347747802734,-41.38315200805664
0.15570901334285736,-0.5145814418792725,9.847543716430664,0.0030399416881225563,0.0005178449445427432,0.004247180958356922,4.199970960617065,2019-07-25 12:19:00:787,-144.61246343240705,-177.13334321215228,0,-48.28034210205078,35.985347747802734,-41.38315200805664
0.1916302591562271,-0.5073971748352051,9.792464256286621,0.0022407983053548824,0.001849750680016738,0.00797651700468039,4.209972143173218,2019-07-25 12:19:00:797,-145.29883118015624,-177.1326120626375,0,-49.03003692626953,35.53553009033203,-40.63345718383789
0.1988145112991333,-0.49063393473625183,9.785280227661133,0.0014416547925500459,0.0023825130652323496,0.010906709928310512,4.219966173171997,2019-07-25 12:19:00:807,-145.97091235506187,-177.13336069566373,0,-49.03003692626953,35.53553009033203,-40.63345718383789
0.18923550844192505,-0.49063393473625183,9.847543716430664,0.006502896346782475,-1.491734416091191e-05,0.008242898132269616,4.229989528656006,2019-07-25 12:19:00:817,-146.62946791384405,-177.13730762304027,0,-49.03003692626953,35.53553009033203,-40.63345718383789
0.14134052395820618,-0.4978181719779968,9.79964828491211,0.0030399416881225563,0.005046324601198921,0.006644611366734268,4.239973306655884,2019-07-25 12:19:00:827,-147.28318104578597,-177.1381035725033,0,-49.03003692626953,35.53553009033203,-40.63345718383789
0.11260352283716202,-0.4547126889228821,9.785280227661133,0.0003761301846652757,0.0005178449445427432,0.006644611366734268,4.249972581863403,2019-07-25 12:19:00:837,-147.92462220040596,-177.14234135098138,0,-49.03003692626953,35.53553009033203,-40.63345718383789
0.1269720196723938,-0.4738706648349762,9.888254165649414,0.0017080359201392707,-0.0026787288791115674,0.0071773736219127166,4.2599687576293945,2019-07-25 12:19:00:847,-148.54991268921756,-177.1455799650547,0,-49.03003692626953,35.53553009033203,-40.63345718383789
0.17486701905727386,-0.44273892045021057,9.806833267211914,0.001974417047728495,-0.0008140607909312516,0.009574803770215738,4.269983291625977,2019-07-25 12:19:00:857,-149.158025860641,-177.1520802520844,0,-49.03003692626953,35.53553009033203,-40.63345718383789
0.1197877749800682,-0.43794941902160645,9.792464256286621,0.0014416547925500459,0.0023825130652323496,0.004779943473609696,4.279967308044434,2019-07-25 12:19:00:867,-149.76218409931252,-177.1586320634003,0,-49.03003692626953,35.53553009033203,-40.63345718383789
0.12457727640867233,-0.4211861789226532,9.852333068847656,0.0022407983053548824,0.004513562346020471,0.0031816564480000235,4.289963722229004,2019-07-25 12:19:00:877,-150.35498517397656,-177.16775921784478,0,-49.03003692626953,35.53553009033203,-40.63345718383789
0.17007751762866974,-0.4283704161643982,9.79964828491211,0.001974417047728495,-0.0010804419185204762,0.001849750680016738,4.299975156784058,2019-07-25 12:19:00:887,-150.9273922011028,-177.1754545820719,0,-49.03003692626953,35.53553009033203,-40.63345718383789
0.12936677038669586,-0.40442293882369995,9.804438591003418,0.0041054661984794545,0.006111849111555819,-0.002412347751522343,4.309969186782837,2019-07-25 12:19:00:897,-151.49715495130587,-177.18700827750607,0,-49.03003692626953,35.53553009033203,-40.63345718383789
0.12457727640867233,-0.3948439359664917,9.881070137023926,0.0003761301846652757,-0.0005476796633420271,-0.0018795853663067313,4.319984197616577,2019-07-25 12:19:00:907,-152.05245730851433,-177.1977136081108,0,-49.03003692626953,35.53553009033203,-40.63345718383789
0.11020877212285995,-0.43076518177986145,9.804438591003418,0.0011752736649608213,-0.0018795853663067313,-1.491734416091191e-05,4.329962730407715,2019-07-25 12:19:00:917,-152.59747469018288,-177.20410355217612,0,-49.03003692626953,35.53553009033203,-40.63345718383789
0.08147177845239639,-0.4858444333076477,9.825990676879883,-0.002287681383810586,-0.0005476796633420271,-0.0002812985032435118,4.339971303939819,2019-07-25 12:19:00:927,-153.13571631930546,-177.2021223549327,0,-49.629791259765625,34.336021423339844,-40.33357620239258
0.2059987634420395,-0.3158172070980072,9.677515983581543,0.00010974903269408318,-0.012801211987576427,-0.004277015644646915,4.349975109100342,2019-07-25 12:19:00:937,-153.6414227446083,-177.22075887651945,0,-49.629791259765625,34.336021423339844,-40.33357620239258
0.09344552457332611,-0.46908116340637207,9.814017295837402,-0.0028204436389890346,0.010906709928310512,-0.004277015644646915,4.359968662261963,2019-07-25 12:19:00:947,-154.16380378014628,-177.22003130206517,0,-49.629791259765625,34.336021423339844,-40.33357620239258
0.35926273465156555,-0.49063393473625183,10.022360801696777,0.0030399416881225563,-0.012002069124957404,-0.00773997056338116,4.369983434677124,2019-07-25 12:19:00:957,-154.63271955765475,-177.22128779837976,0,-49.629791259765625,34.336021423339844,-40.33357620239258
0.08147177845239639,-0.33258044719696045,9.727806091308594,0.008900327015234149,-0.0034778722618792413,0.0031816564480000235,4.379969835281372,2019-07-25 12:19:00:967,-155.12851801778743,-177.24269072716788,0,-49.629791259765625,34.336021423339844,-40.33357620239258
0.07668227702379227,-0.5600816607475281,9.859517097473145,-0.010012734604046749,0.004513562346020471,-0.006141683797845812,4.389971017837524,2019-07-25 12:19:00:977,-155.61957015106174,-177.22718888945582,0,-49.629791259765625,34.336021423339844,-40.33357620239258
0.07189278304576874,-0.4618969261646271,9.82120132446289,-0.006816160552827403,0.0015833695524275135,-0.006141683797845812,4.399973392486572,2019-07-25 12:19:00:987,-156.09967988127087,-177.2249635300641,0,-49.629791259765625,34.336021423339844,-40.33357620239258
0.1197877749800682,-0.5073971748352051,9.916991233825684,-0.0025540625113998103,0.007443754749501942,-0.0029451100067007917,4.409972667694092,2019-07-25 12:19:00:997,-156.5680247469768,-177.22045122652685,0,-49.629791259765625,34.336021423339844,-40.33357620239258
0.10302452743053436,-0.38526493310928345,9.945728302001953,0.0022407983053548824,-0.005875302670256588,-0.005875302670256588,4.419969081878662,2019-07-25 12:19:01:007,-157.02149672246696,-177.23293312241427,0,-49.629791259765625,34.336021423339844,-40.33357620239258
0.08626127988100052,-0.5983976721763611,9.732595443725586,-0.003619587021756709,0.004779943473609696,-0.006674446053024261,4.429991722106934,2019-07-25 12:19:01:017,-157.47360066084497,-177.21587071475722,0,-49.629791259765625,34.336021423339844,-40.33357620239258
0.16768276691436768,-0.41160717606544495,9.830780029296875,0.0022407983053548824,0.004247180958356922,-0.0016132042387175067,4.439971923828125,2019-07-25 12:19:01:027,-157.90696482432702,-177.22485841942225,0,-49.629791259765625,34.336021423339844,-40.33357620239258
0.18444602191448212,-0.4403441846370697,9.737384796142578,-0.000955775550808719,0.006910992494323493,-0.0026787288791115674,4.449964284896851,2019-07-25 12:19:01:037,-158.33099968241822,-177.22803966119972,0,-49.629791259765625,34.336021423339844,-40.33357620239258
0.26107800006866455,-0.4523179233074188,9.86670207977295,0.0017080359201392707,0.001849750680016738,0.0002514638006988733,4.459975957870483,2019-07-25 12:19:01:047,-158.7351050927679,-177.23194374349555,0,-48.730159759521484,35.83540725708008,-40.03369903564453
0.2562884986400604,-0.4858444333076477,9.706253051757812,0.00010974903269408318,0.0007842261046412585,-0.0026787288791115674,4.469965219497681,2019-07-25 12:19:01:057,-159.13059259126533,-177.2300556968188,0,-48.730159759521484,35.83540725708008,-40.03369903564453
0.19641976058483124,-0.4714759290218353,9.768516540527344,0.0011752736649608213,0.006378230239145044,-0.0002812985032435118,4.479986667633057,2019-07-25 12:19:01:067,-159.52853147564724,-177.2308513616048,0,-48.730159759521484,35.83540725708008,-40.03369903564453
0.232341006398201,-0.4666864275932312,9.859517097473145,0.0038390850708902298,0.001050607232230483,-0.002412347751522343,4.4899656772613525,2019-07-25 12:19:01:077,-159.9115508456818,-177.23418559528162,0,-48.730159759521484,35.83540725708008,-40.03369903564453
0.18444602191448212,-0.5002129077911377,9.802042961120605,-0.0025540625113998103,0.0007842261046412585,0.001050607232230483,4.499984502792358,2019-07-25 12:19:01:087,-160.292200735922,-177.2296379788034,0,-48.730159759521484,35.83540725708008,-40.03369903564453
0.15091952681541443,-0.4618969261646271,9.847543716430664,-0.0020213001261841987,0.0005178449445427432,-0.002145966493895956,4.509971618652344,2019-07-25 12:19:01:097,-160.66908664532,-177.23020216422154,0,-48.730159759521484,35.83540725708008,-40.03369903564453
