ACCELEROMETER X (m/s²),ACCELEROMETER Y (m/s²),ACCELEROMETER Z (m/s²),GYROSCOPE X (rad/s),GYROSCOPE Y (rad/s),GYROSCOPE Z (rad/s),Pitch (Deg),Roll (Deg),Heading (Deg),Time since start in ms ,YYYY-MO-DD HH-MI-SS_SSS
-0.043720945715904236,-0.12103304266929626,9.706717491149902,-0.0042101539166034384,-0.005776474946828078,-0.0002868925069228855,3.594838607947808,-3.5857123210304978,0,0.0,2019-07-26 14:49:39:296
-0.0461156964302063,-0.025243056938052177,9.852797508239746,-0.005275678426960337,-0.00524371269164963,0.0007786321009618848,7.118549299459575,-7.110085460002596,0,0.0032973289489746094,2019-07-26 14:49:39:300
-0.07964219152927399,0.003493939759209752,9.716297149658203,-0.005808440682138786,-0.004178188181292731,-0.0029507039453615844,10.567548386243683,-3.3672355788931236,0,0.006548166275024414,2019-07-26 14:49:39:303
-0.11316868662834167,-0.04919055476784706,9.68995475769043,-0.005808440682138786,-0.005776474946828078,0.002376918866497232,13.94378850661937,-6.893094755371388,0,0.009549856185913086,2019-07-26 14:49:39:306
-0.03174719586968422,-0.03482205420732498,9.800113677978516,-0.007939490223001232,-0.0017807579029525478,0.0002458697970194996,17.26157276707797,-10.349501818674675,0,0.01327204704284668,2019-07-26 14:49:39:310
-0.019773447886109352,-0.04200630262494087,9.771376609802246,-0.008205871350590458,-0.00524371269164963,0.0018441566113187831,20.51490735154245,-13.736200808695044,0,0.016277551651000977,2019-07-26 14:49:39:313
-0.08203694224357605,-0.0731380507349968,9.764191627502441,-0.0028782482786573155,-0.00524371269164963,0.00370882476451768,23.69607331553059,-17.052294340927876,0,0.019985198974609375,2019-07-26 14:49:39:316
-0.04132619500160217,-0.10905929654836655,9.812087059020996,-0.00607482180972801,-0.0023135202881681594,0.002376918866497232,26.81782140530593,-20.29721035823533,0,0.02380228042602539,2019-07-26 14:49:39:320
-0.04851044341921806,-0.06116430088877678,9.733059883117676,-0.008738633605768906,-0.0036454259261142824,-0.0008196547946106253,29.87638883565326,-23.482542538624145,0,0.026905298233032227,2019-07-26 14:49:39:323
-0.036536697298288345,-0.06355905532836914,9.8096923828125,-0.00607482180972801,-0.006042856074417303,0.0007786321009618848,32.87567084523395,-26.60438367551506,0,0.030081748962402344,2019-07-26 14:49:39:326
-0.07724744081497192,-0.06355905532836914,9.78095531463623,-0.00953777646838793,-0.005776474946828078,-0.0002868925069228855,35.810315996736826,-29.662854222141807,0,0.03380775451660156,2019-07-26 14:49:39:330
-0.10119494050741196,-0.05637480318546295,9.74024486541748,-0.006341202937317235,-0.004178188181292731,0.0007786321009618848,38.68293281047332,-32.661859918113464,0,0.0369110107421875,2019-07-26 14:49:39:333
-0.0652736946940422,-0.12342779338359833,9.893508911132812,-0.005808440682138786,-0.004444569308881956,0.002376918866497232,41.50250838557566,-35.59328920552987,0,0.04009437561035156,2019-07-26 14:49:39:336
-0.03893144428730011,-0.08032230287790298,9.723481178283691,-0.00607482180972801,-0.002579901415757384,-0.0013524170497890744,44.26840808114664,-38.470690993951315,0,0.0438077449798584,2019-07-26 14:49:39:340
0.028121545910835266,-0.08032230287790298,9.713902473449707,-0.006341202937317235,-0.006042856074417303,-0.0002868925069228855,39.78740864620418,-41.290698804419335,0,0.046906232833862305,2019-07-26 14:49:39:343
-0.06287894397974014,-0.09708555042743683,9.776165962219238,-0.008738633605768906,-0.007374761712363427,-0.0013524170497890744,42.58560860767432,-44.0519430713651,0,0.05009007453918457,2019-07-26 14:49:39:346
-0.06766844540834427,-0.05637480318546295,9.737849235534668,-0.008472252478179683,-0.006042856074417303,-0.0002868925069228855,45.32720713830657,-46.762484733941925,0,0.05384349822998047,2019-07-26 14:49:39:350
-0.07485269010066986,-0.0731380507349968,9.70192813873291,-0.006341202937317235,-0.008173905615279751,-0.0008196547946106253,48.01336724644508,-49.41739805286296,0,0.05720996856689453,2019-07-26 14:49:39:353
-0.003010200336575508,-0.0922960489988327,9.768980979919434,-0.008205871350590458,-0.0055100938192388545,-0.0013524170497890744,50.65354884281283,-52.01702951792552,0,0.05980229377746582,2019-07-26 14:49:39:356
0.00417404854670167,-0.06355905532836914,9.735454559326172,-0.008205871350590458,-0.003112663670935833,0.0005122509408633695,46.04164134888817,-54.56743574449839,0,0.06364822387695312,2019-07-26 14:49:39:360
0.00417404854670167,-0.08271704614162445,9.785744667053223,-0.005808440682138786,-0.003379044798525057,-0.0010860359221998499,41.52197272152416,-57.065240039388875,0,0.06720805168151855,2019-07-26 14:49:39:363
-0.03414194658398628,-0.0731380507349968,9.816876411437988,-0.008738633605768906,-0.005776474946828078,0.0005122509408633695,44.288388816487725,-59.51412595322186,0,0.06980061531066895,2019-07-26 14:49:39:366
-0.06048419326543808,-0.10905929654836655,9.812087059020996,-0.007406727447674133,-0.0036454259261142824,-0.0013524170497890744,46.99634210167259,-61.90951303110364,0,0.07363414764404297,2019-07-26 14:49:39:370
-0.0652736946940422,-0.0204535573720932,9.788139343261719,-0.00607482180972801,-0.0023135202881681594,-0.0005532736670214007,49.64920174860916,-64.26780416846152,0,0.07692956924438477,2019-07-26 14:49:39:373
-0.019773447886109352,-0.05637480318546295,9.814481735229492,-0.0068739651924956836,-0.003911807053703507,-0.00268432281777236,52.25460514413309,-66.57464270826156,0,0.08009886741638184,2019-07-26 14:49:39:376
0.001779298996552825,-0.03242730721831322,9.85040283203125,-0.0042101539166034384,-0.006575618329595753,0.0007786321009618848,47.610889494668655,-68.83862876923864,0,0.0832662582397461,2019-07-26 14:49:39:380
-0.029352447018027306,-0.06355905532836914,9.764191627502441,-0.0068739651924956836,-0.002579901415757384,-2.051134885620096e-05,50.25578113187019,-71.05292047298039,0,0.08709192276000977,2019-07-26 14:49:39:383
-0.06048419326543808,-0.10666454583406448,9.876745223999023,-0.008205871350590458,-0.006309237202006528,0.0013113943561403338,52.84472612443557,-73.21808509646291,0,0.09013485908508301,2019-07-26 14:49:39:386
-0.07964219152927399,0.005888689309358597,9.728270530700684,-0.007939490223001232,-0.006841999457184977,0.0005122509408633695,55.379669061211665,-68.1530030967411,0,0.0933065414428711,2019-07-26 14:49:39:390
0.025726795196533203,-0.0659537985920906,9.795323371887207,-0.00660758406490646,-0.007108380584774201,0.002376918866497232,50.67661315917944,-70.3808073062312,0,0.09713435173034668,2019-07-26 14:49:39:393
0.0161477979272604,-0.08032230287790298,9.768980979919434,-0.006341202937317235,-0.006309237202006528,0.0007786321009618848,46.065916392615435,-72.56282334258887,0,0.0997915267944336,2019-07-26 14:49:39:396
-0.01498394925147295,-0.08271704614162445,9.737849235534668,-0.008205871350590458,-0.0055100938192388545,-0.0021515604325567485,48.74399180533746,-74.70011021037685,0,0.1035311222076416,2019-07-26 14:49:39:400
-0.04132619500160217,-0.09469079971313477,9.761796951293945,-0.010603300978744828,-0.002579901415757384,0.0029096811216756816,51.36488317548116,-76.7924349062359,0,0.10782742500305176,2019-07-26 14:49:39:404
-0.036536697298288345,-0.03961155563592911,9.768980979919434,-0.004742916171781888,-0.003911807053703507,-0.0010860359221998499,53.93379989159258,-78.85133330746179,0,0.11010456085205078,2019-07-26 14:49:39:406
-0.11077393591403961,-0.08511179685592651,9.819271087646484,-0.00660758406490646,-0.004178188181292731,0.0013113943561403338,56.443060839334755,-80.86300824644805,0,0.11378645896911621,2019-07-26 14:49:39:410
-0.036536697298288345,0.025046687573194504,9.843218803405762,-0.007673109095412008,-0.004710950436471181,-0.0013524170497890744,58.91086856602516,-75.64716152872228,0,0.11727356910705566,2019-07-26 14:49:39:414
-0.03893144428730011,-0.058769553899765015,9.855192184448242,-0.00660758406490646,-0.0055100938192388545,-0.0024179416901831353,61.32889883266953,-77.72645631059112,0,0.11977648735046387,2019-07-26 14:49:39:416
-0.05808944255113602,-0.10905929654836655,9.792928695678711,-0.008472252478179683,-0.004178188181292731,-0.0002868925069228855,63.696401453172726,-79.75738617695089,0,0.12351822853088379,2019-07-26 14:49:39:420
-0.07006318867206573,-0.05637480318546295,9.840824127197266,-0.008205871350590458,-0.004178188181292731,0.0013113943561403338,66.01513034379231,-81.75407273336525,0,0.12699341773986816,2019-07-26 14:49:39:423
-0.026957698166370392,-0.10905929654836655,9.754612922668457,-0.00607482180972801,-0.006841999457184977,0.0015777754837295584,68.29264711381525,-83.70530453336657,0,0.1295604705810547,2019-07-26 14:49:39:426
-0.04132619500160217,-0.11624354124069214,9.785744667053223,-0.007406727447674133,-0.0036454259261142824,-2.051134885620096e-05,70.52271726612065,-85.6160379047748,0,0.1332850456237793,2019-07-26 14:49:39:430
-0.02456294745206833,-0.1186382919549942,9.802508354187012,-0.007939490223001232,-0.0055100938192388545,0.0002458697970194996,72.71046434418957,-87.48830313619008,0,0.13675260543823242,2019-07-26 14:49:39:433
-0.02456294745206833,-0.08271704614162445,9.795323371887207,-0.00660758406490646,-0.007641143360101302,-0.0005532736670214007,74.85480566983153,-89.32762907168708,0,0.14007186889648438,2019-07-26 14:49:39:436
-0.04132619500160217,-0.03242730721831322,9.73066520690918,-0.008738633605768906,-0.004710950436471181,0.0010450132285511093,76.95369117990725,-91.13568418349202,0,0.1432788372039795,2019-07-26 14:49:39:440
-0.07724744081497192,-0.05637480318546295,9.82166576385498,-0.007140346320084909,-0.004444569308881956,-0.00268432281777236,79.00666794212437,-92.90468540466567,0,0.147538423538208,2019-07-26 14:49:39:444
-0.0461156964302063,-0.03482205420732498,9.694744110107422,-0.007140346320084909,-0.002047139030541772,-0.0021515604325567485,81.02134381396226,-94.64156871446993,0,0.14980077743530273,2019-07-26 14:49:39:446
-0.05808944255113602,-0.07553280144929886,9.68995475769043,-0.007140346320084909,-0.005776474946828078,-0.0018851793049675235,82.99518268719628,-96.33840190883686,0,0.15330076217651367,2019-07-26 14:49:39:450
-0.09401068836450577,-0.07553280144929886,9.768980979919434,-0.007673109095412008,-0.006841999457184977,0.0002458697970194996,84.92571776243122,-98.0011298872631,0,0.15711665153503418,2019-07-26 14:49:39:453
-0.050905194133520126,-0.14258578419685364,9.768980979919434,-0.008205871350590458,-0.004178188181292731,0.003176062249264906,86.82197932039539,-99.62291564660468,0,0.16030120849609375,2019-07-26 14:49:39:457
-0.10598443448543549,-0.07553280144929886,9.706717491149902,-0.003943772789014213,-0.006309237202006528,-0.0005532736670214007,88.67409782666195,-101.22087207148054,0,0.16332006454467773,2019-07-26 14:49:39:460
-0.05808944255113602,-0.06834854930639267,9.70192813873291,-0.007939490223001232,-0.0036454259261142824,-0.0010860359221998499,90.49453937434681,-102.78667340096703,0,0.16715264320373535,2019-07-26 14:49:39:463
-0.06287894397974014,-0.07074330002069473,9.862377166748047,-0.005542059554549561,-0.00524371269164963,-0.0002868925069228855,92.2781107847164,-104.32190862682495,0,0.16976118087768555,2019-07-26 14:49:39:466
-0.03414194658398628,-0.11384879797697067,9.754612922668457,-0.010603300978744828,-0.00524371269164963,0.0013113943561403338,94.02964846700338,-105.8198508578054,0,0.17353343963623047,2019-07-26 14:49:39:470
-0.022168198600411415,-0.0659537985920906,9.711507797241211,-0.007406727447674133,-0.005776474946828078,0.0013113943561403338,95.74761595068338,-107.29416355007622,0,0.17715978622436523,2019-07-26 14:49:39:473
-0.07006318867206573,-0.0204535573720932,9.680376052856445,-0.0068739651924956836,-0.0004488522324971341,-0.0002868925069228855,97.42443662293836,-108.74483938428861,0,0.17980170249938965,2019-07-26 14:49:39:476
-0.055694691836833954,-0.030032556504011154,9.783349990844727,-0.00660758406490646,-0.0017807579029525478,0.002643299994086457,99.06979836024321,-110.1650376505862,0,0.18354082107543945,2019-07-26 14:49:39:480
-0.036536697298288345,-0.08271704614162445,9.824060440063477,-0.008472252478179683,-0.002047139030541772,-0.0002868925069228855,100.68463080701711,-111.55006007524132,0,0.18780517578125,2019-07-26 14:49:39:484
-0.03414194658398628,-0.037216804921627045,9.713902473449707,-0.005542059554549561,-0.003379044798525057,0.003176062249264906,102.26734038552155,-112.91396365410979,0,0.19007039070129395,2019-07-26 14:49:39:486
-0.07485269010066986,-0.04919055476784706,9.721086502075195,-0.009804158116125805,-0.003112663670935833,0.0034424436369284556,103.81382100393128,-114.2478358859248,0,0.19379425048828125,2019-07-26 14:49:39:490
-0.04132619500160217,-0.11384879797697067,9.723481178283691,-0.005808440682138786,-0.003911807053703507,0.0013113943561403338,105.33343694253645,-115.54833026310561,0,0.1972663402557373,2019-07-26 14:49:39:494
-0.08682643622159958,-0.05398005247116089,9.764191627502441,-0.005542059554549561,-0.004977331564060405,-0.0008196547946106253,106.81728378064153,-116.83024349916748,0,0.19978952407836914,2019-07-26 14:49:39:496
-0.09401068836450577,-0.03482205420732498,9.771376609802246,-0.00660758406490646,-0.004178188181292731,0.002376918866497232,108.27079082987063,-118.08816761327536,0,0.20352888107299805,2019-07-26 14:49:39:500
-0.07964219152927399,-0.09469079971313477,9.745034217834473,-0.007939490223001232,-0.004444569308881956,-0.0010860359221998499,109.6969207715363,-119.31364322197174,0,0.20717787742614746,2019-07-26 14:49:39:503
-0.10119494050741196,-0.06116430088877678,9.807297706604004,-0.007140346320084909,-0.006309237202006528,0.003176062249264906,111.09208683292402,-120.51917358366252,0,0.20979738235473633,2019-07-26 14:49:39:506
-0.03174719586968422,-0.02763780578970909,9.685165405273438,-0.005009297299371112,-0.0028462825433466085,0.0015777754837295584,112.46708669875248,-121.70446800103348,0,0.21353793144226074,2019-07-26 14:49:39:510
-0.09401068836450577,-0.025243056938052177,9.771376609802246,-0.007140346320084909,-0.0036454259261142824,-0.0010860359221998499,113.80759494965588,-122.86570537096691,0,0.21781039237976074,2019-07-26 14:49:39:514
-0.05808944255113602,-0.051585301756858826,9.800113677978516,-0.007406727447674133,-0.006309237202006528,0.0013113943561403338,115.1254558163437,-124.00141446401851,0,0.22008275985717773,2019-07-26 14:49:39:516
-0.08922118693590164,-0.07553280144929886,9.776165962219238,-0.00660758406490646,-0.004178188181292731,0.0018441566113187831,116.41334951031793,-125.11117175864237,0,0.22375106811523438,2019-07-26 14:49:39:520
-0.019773447886109352,-0.0204535573720932,9.70192813873291,-0.006341202937317235,-0.004710950436471181,-0.0024179416901831353,117.68367739293336,-126.2052802048257,0,0.22726821899414062,2019-07-26 14:49:39:524
-0.01737869903445244,-0.018058806657791138,9.819271087646484,-0.004742916171781888,-0.003379044798525057,-0.0008196547946106253,118.92845465317926,-127.27839491473036,0,0.22979235649108887,2019-07-26 14:49:39:526
-0.04851044341921806,-0.022848306223750114,9.742639541625977,-0.007406727447674133,-0.005776474946828078,0.0013113943561403338,120.14539435495296,-128.32858240440788,0,0.2335367202758789,2019-07-26 14:49:39:530
-0.06048419326543808,-0.08032230287790298,9.7186918258667,-0.005009297299371112,-0.003379044798525057,0.0013113943561403338,121.33601337210153,-129.35156423324815,0,0.23700690269470215,2019-07-26 14:49:39:533
-0.08922118693590164,-0.051585301756858826,9.737849235534668,-0.0068739651924956836,-0.004178188181292731,-0.0010860359221998499,122.49938919248802,-130.35748368975757,0,0.23954319953918457,2019-07-26 14:49:39:536
-0.03414194658398628,-0.03482205420732498,9.704322814941406,-0.007406727447674133,-0.004178188181292731,0.002643299994086457,123.64624789545097,-131.34466560368682,0,0.2432858943939209,2019-07-26 14:49:39:540
-0.07964219152927399,-0.04200630262494087,9.876745223999023,-0.004742916171781888,-0.00524371269164963,-0.004548990710896932,124.76511196435526,-132.31196792148097,0,0.2467808723449707,2019-07-26 14:49:39:543
-0.0916159376502037,-0.07074330002069473,9.73066520690918,-0.007673109095412008,-0.0036454259261142824,0.003176062249264906,125.85963853639761,-133.25609801123812,0,0.24979758262634277,2019-07-26 14:49:39:546
-0.0461156964302063,-0.046795804053545,9.737849235534668,-0.006341202937317235,-0.004444569308881956,-0.0010860359221998499,126.93788218452308,-134.18423790355013,0,0.25325608253479004,2019-07-26 14:49:39:549
0.04727954417467117,-0.08990129828453064,9.766586303710938,-0.007406727447674133,-0.004710950436471181,0.0013113943561403338,120.80558772803873,-135.0885652755865,0,0.25671863555908203,2019-07-26 14:49:39:553
-0.10598443448543549,-0.013269308023154736,9.627691268920898,-0.007140346320084909,-0.003379044798525057,-0.0008196547946106253,121.97744884499423,-135.98397435201608,0,0.2598121166229248,2019-07-26 14:49:39:556
-0.055694691836833954,-0.025243056938052177,9.733059883117676,-0.008472252478179683,-0.003379044798525057,0.0005122509408633695,123.13199284507952,-136.85969294494808,0,0.26323843002319336,2019-07-26 14:49:39:559
-0.03174719586968422,-0.02763780578970909,9.754612922668457,-0.00607482180972801,-0.006042856074417303,0.0018441566113187831,124.26680129985314,-137.7180683589574,0,0.266709566116333,2019-07-26 14:49:39:563
-0.012589199468493462,-0.08750654757022858,9.752218246459961,-0.005808440682138786,-0.004444569308881956,0.0007786321009618848,125.38075647328031,-138.55241808372799,0,0.26979684829711914,2019-07-26 14:49:39:566
-0.026957698166370392,-0.05637480318546295,9.778560638427734,-0.007939490223001232,-0.0028462825433466085,0.002643299994086457,126.47053142280993,-139.37323161494228,0,0.27323293685913086,2019-07-26 14:49:39:569
-0.01737869903445244,-0.04200630262494087,9.745034217834473,-0.007140346320084909,-0.003112663670935833,-0.0008196547946106253,127.53968353563086,-140.1794366845032,0,0.2767019271850586,2019-07-26 14:49:39:573
-0.06048419326543808,-0.09469079971313477,9.737849235534668,-0.009271395860947357,-0.005776474946828078,0.0002458697970194996,128.5827796227219,-140.96308879042533,0,0.27980732917785645,2019-07-26 14:49:39:576
-0.03174719586968422,-0.08511179685592651,9.792928695678711,-0.006341202937317235,-0.004444569308881956,0.0013113943561403338,129.60826970951118,-141.73264016772745,0,0.28325557708740234,2019-07-26 14:49:39:579
-0.09401068836450577,0.010678188875317574,9.768980979919434,-0.005275678426960337,-0.0055100938192388545,-0.0005532736670214007,130.60615152076412,-135.29821118660513,0,0.2867283821105957,2019-07-26 14:49:39:583
-0.01737869903445244,-0.0659537985920906,9.867166519165039,-0.007140346320084909,-0.0036454259261142824,0.003975205892106905,131.59264582740863,-136.18334263303444,0,0.28983354568481445,2019-07-26 14:49:39:586
-0.04132619500160217,-0.018058806657791138,9.8096923828125,-0.007673109095412008,-0.00524371269164963,0.0005122509408633695,132.55697271317376,-137.05609230311927,0,0.2932546138763428,2019-07-26 14:49:39:589
-0.07724744081497192,-0.11384879797697067,9.836034774780273,-0.0068739651924956836,-0.006309237202006528,0.0018441566113187831,133.4980600418533,-137.90037165627416,0,0.29671549797058105,2019-07-26 14:49:39:593
-0.06766844540834427,-0.04200630262494087,9.778560638427734,-0.006341202937317235,-0.003911807053703507,0.0021105377389080077,134.42084871719334,-138.73634005310385,0,0.29980945587158203,2019-07-26 14:49:39:596
-0.03174719586968422,-0.10905929654836655,9.819271087646484,-0.0068739651924956836,-0.005776474946828078,-0.0010860359221998499,135.32984457379663,-139.54755638186538,0,0.303255558013916,2019-07-26 14:49:39:599
-0.012589199468493462,-0.022848306223750114,9.73066520690918,-0.006341202937317235,-0.008173905615279751,0.002376918866497232,136.22335519853843,-140.3526810186944,0,0.3067200183868408,2019-07-26 14:49:39:603
-0.019773447886109352,-0.04200630262494087,9.766586303710938,-0.006341202937317235,-0.002579901415757384,-0.0008196547946106253,137.09701585474443,-141.1395982117501,0,0.3098111152648926,2019-07-26 14:49:39:606
0.020937297493219376,-0.058769553899765015,9.754612922668457,-0.00953777646838793,-0.004977331564060405,0.0007786321009618848,130.7584948329418,-141.90806339288469,0,0.3132450580596924,2019-07-26 14:49:39:609
-0.036536697298288345,-0.07553280144929886,9.67319107055664,-0.0068739651924956836,-0.003112663670935833,0.0015777754837295584,131.7396045455383,-142.6596121231231,0,0.3167228698730469,2019-07-26 14:49:39:613
-0.0652736946940422,-0.10187504440546036,9.776165962219238,-0.007406727447674133,-0.006042856074417303,-0.0008196547946106253,132.69821040407055,-143.39319336025667,0,0.31981420516967773,2019-07-26 14:49:39:616
0.00417404854670167,-0.07074330002069473,9.7186918258667,-0.008472252478179683,-0.003379044798525057,-0.0005532736670214007,126.44538721445392,-144.1153615205149,0,0.32323408126831055,2019-07-26 14:49:39:619
-0.04851044341921806,-0.0204535573720932,9.73066520690918,-0.005009297299371112,-0.007907524487690526,0.0005122509408633695,127.5123068081438,-144.82967002100332,0,0.3267025947570801,2019-07-26 14:49:39:623
-0.029352447018027306,-0.044401053339242935,9.67319107055664,-0.004476535044192663,-0.005776474946828078,0.004507968147285354,128.5595891104985,-145.52703746838426,0,0.3298029899597168,2019-07-26 14:49:39:626
-0.07485269010066986,-0.06834854930639267,9.685165405273438,-0.00660758406490646,-0.004977331564060405,0.0021105377389080077,129.58050729374895,-146.2071275511004,0,0.33325982093811035,2019-07-26 14:49:39:630
-0.03174719586968422,-0.08271704614162445,9.73066520690918,-0.009005014213209482,-0.004444569308881956,-0.0005532736670214007,130.58602221048903,-146.87149427151303,0,0.33672070503234863,2019-07-26 14:49:39:633
-0.026957698166370392,-0.044401053339242935,9.728270530700684,-0.007939490223001232,-0.003911807053703507,0.002376918866497232,131.57181772722117,-147.52743111407042,0,0.33986830711364746,2019-07-26 14:49:39:636
-0.04132619500160217,-0.030032556504011154,9.747428894042969,-0.009005014213209482,-0.0055100938192388545,-0.0008196547946106253,132.53657125551842,-148.17163881230124,0,0.34325623512268066,2019-07-26 14:49:39:639
-0.036536697298288345,-0.03961155563592911,9.771376609802246,-0.005009297299371112,-0.0023135202881681594,0.0029096811216756816,133.48200383964792,-148.80258907098445,0,0.3467106819152832,2019-07-26 14:49:39:643
-0.02456294745206833,-0.07074330002069473,9.797718048095703,-0.0068739651924956836,-0.005776474946828078,0.0013113943561403338,134.41049276915592,-149.4170713239212,0,0.34979939460754395,2019-07-26 14:49:39:646
-0.04132619500160217,-0.05398005247116089,9.776165962219238,-0.003943772789014213,-0.00524371269164963,0.0015777754837295584,135.318451496004,-150.02164109548985,0,0.353238582611084,2019-07-26 14:49:39:649
-0.019773447886109352,-0.0659537985920906,9.8096923828125,-0.007140346320084909,-0.008973048998047425,0.0015777754837295584,136.21151635740483,-150.61211645061638,0,0.35669946670532227,2019-07-26 14:49:39:653
-0.04132619500160217,-0.07792755216360092,9.845613479614258,-0.00607482180972801,-0.006309237202006528,0.0002458697970194996,137.08357038318982,-151.1897508836031,0,0.359788179397583,2019-07-26 14:49:39:656
-0.05329994484782219,-0.013269308023154736,9.716297149658203,-0.006341202937317235,8.39100633179284e-05,-0.0013524170497890744,137.93559671517679,-151.76316195454018,0,0.36323976516723633,2019-07-26 14:49:39:659
-0.010194449685513973,-0.09469079971313477,9.771376609802246,-0.008472252478179683,-0.004977331564060405,0.0018441566113187831,138.7767767579991,-152.3149432990152,0,0.36713099479675293,2019-07-26 14:49:39:663
-0.0652736946940422,-0.08511179685592651,9.82166576385498,-0.007673109095412008,-0.004977331564060405,0.00424158701969613,139.59431741863085,-152.857648149941,0,0.36960601806640625,2019-07-26 14:49:39:666
-0.07964219152927399,-0.08990129828453064,9.795323371887207,-0.005275678426960337,-0.004444569308881956,0.0013113943561403338,140.39394469943937,-153.38899255718252,0,0.37293362617492676,2019-07-26 14:49:39:669
-0.026957698166370392,-0.0731380507349968,9.816876411437988,-0.009005014213209482,-0.006042856074417303,-2.051134885620096e-05,141.18420750677876,-153.91075549552292,0,0.37673091888427734,2019-07-26 14:49:39:673
-0.04851044341921806,-0.1186382919549942,9.663612365722656,-0.008205871350590458,-0.004710950436471181,0.002376918866497232,141.95554477472302,-154.41712511783652,0,0.3796560764312744,2019-07-26 14:49:39:676
-0.10598443448543549,-0.11624354124069214,9.831245422363281,-0.008738633605768906,-0.006042856074417303,-2.051134885620096e-05,142.70548185600154,-154.91320823035727,0,0.38378477096557617,2019-07-26 14:49:39:680
-0.06048419326543808,-0.08990129828453064,9.773771286010742,-0.007939490223001232,-0.004710950436471181,0.0005122509408633695,143.44526681887348,-155.4027423897859,0,0.3875119686126709,2019-07-26 14:49:39:684
-0.043720945715904236,-0.015664057806134224,9.728270530700684,-0.007140346320084909,-0.004178188181292731,-0.0021515604325567485,144.17174558434897,-155.89192975370742,0,0.3897883892059326,2019-07-26 14:49:39:686
-0.019773447886109352,-0.03961155563592911,9.852797508239746,-0.007406727447674133,-0.009505811253225874,-0.0002868925069228855,144.8878879778366,-156.36802167975978,0,0.39330506324768066,2019-07-26 14:49:39:690
-0.04851044341921806,-0.0731380507349968,9.692349433898926,-0.006341202937317235,-0.00524371269164963,0.0015777754837295584,145.5855218270714,-156.8306516291937,0,0.39713239669799805,2019-07-26 14:49:39:693
-0.043720945715904236,-0.022848306223750114,9.706717491149902,-0.00953777646838793,-0.0023135202881681594,0.0005122509408633695,146.26896993398174,-157.2900222964672,0,0.3995952606201172,2019-07-26 14:49:39:696
-0.043720945715904236,-0.058769553899765015,9.788139343261719,-0.00953777646838793,-0.004444569308881956,0.0021105377389080077,146.9393868930057,-157.73537853368268,0,0.4032609462738037,2019-07-26 14:49:39:700
-0.10598443448543549,-0.0922960489988327,9.766586303710938,-0.005009297299371112,-0.004710950436471181,0.0029096811216756816,147.58918185314283,-158.16876035379232,0,0.4071071147918701,2019-07-26 14:49:39:703
-0.007799699902534485,-0.044401053339242935,9.766586303710938,-0.005808440682138786,-0.004178188181292731,-0.0002868925069228855,148.2372965816948,-158.59904467694432,0,0.41057467460632324,2019-07-26 14:49:39:707
-0.055694691836833954,-0.10905929654836655,9.812087059020996,-0.007406727447674133,-0.004444569308881956,-0.0016187981773782992,148.8668424061596,-159.01300109918972,0,0.41376447677612305,2019-07-26 14:49:39:710
-0.05329994484782219,-0.08750654757022858,9.74024486541748,-0.007673109095412008,-0.0036454259261142824,0.002643299994086457,149.48399564166627,-159.42084541346074,0,0.41748046875,2019-07-26 14:49:39:714
-0.026957698166370392,-0.03961155563592911,9.725875854492188,-0.0068739651924956836,-0.004977331564060405,-0.0002868925069228855,150.09177468514025,-159.82688428226388,0,0.4197530746459961,2019-07-26 14:49:39:716
-0.043720945715904236,-0.08032230287790298,9.764191627502441,-0.007140346320084909,-0.005776474946828078,0.002643299994086457,150.68595398838255,-160.21950392279882,0,0.42328572273254395,2019-07-26 14:49:39:720
-0.04851044341921806,-0.06116430088877678,9.73066520690918,-0.008205871350590458,-0.002579901415757384,-0.0005532736670214007,151.26707580720645,-160.60615018695833,0,0.4271073341369629,2019-07-26 14:49:39:723
-0.07485269010066986,-0.03482205420732498,9.785744667053223,-0.005275678426960337,-0.0028462825433466085,0.0007786321009618848,151.8335230876519,-160.98892282438894,0,0.4305732250213623,2019-07-26 14:49:39:727
-0.01498394925147295,-0.07553280144929886,9.697138786315918,-0.007939490223001232,-0.008440286742868976,-0.0013524170497890744,152.39660961265406,-161.35878179620056,0,0.43379664421081543,2019-07-26 14:49:39:730
-0.022168198600411415,-0.06116430088877678,9.826455116271973,-0.008738633605768906,-0.0028462825433466085,-0.0008196547946106253,152.94669194791624,-161.7226324364249,0,0.4375488758087158,2019-07-26 14:49:39:734
-0.05329994484782219,-0.06834854930639267,9.788139343261719,-0.003943772789014213,-0.006309237202006528,0.003176062249264906,153.4823200531342,-162.0796770345216,0,0.43981218338012695,2019-07-26 14:49:39:736
-0.055694691836833954,-0.03482205420732498,9.824060440063477,-0.008472252478179683,-0.005776474946828078,-2.051134885620096e-05,154.0073159759466,-162.43235163264862,0,0.44332289695739746,2019-07-26 14:49:39:740
-0.06048419326543808,-0.07792755216360092,9.764191627502441,-0.008205871350590458,-0.0055100938192388545,0.0015777754837295584,154.52125250210975,-162.7728003233075,0,0.4471404552459717,2019-07-26 14:49:39:743
-0.010194449685513973,-0.0922960489988327,9.706717491149902,-0.007140346320084909,-0.00524371269164963,0.003975205892106905,155.03034587938586,-163.10546570153994,0,0.44959235191345215,2019-07-26 14:49:39:746
-0.10119494050741196,-0.05398005247116089,9.754612922668457,-0.005542059554549561,-0.006309237202006528,-0.005348134093664606,155.5191522342607,-163.43587269715243,0,0.4532637596130371,2019-07-26 14:49:39:750
-0.029352447018027306,-0.0994802936911583,9.634875297546387,-0.010070538723566379,-0.00524371269164963,-2.051134885620096e-05,156.00640305278515,-163.75316376869256,0,0.45708417892456055,2019-07-26 14:49:39:753
-0.036536697298288345,-0.13300679624080658,9.843218803405762,-0.00660758406490646,-0.007108380584774201,-0.0005532736670214007,156.48340478935154,-164.0613314071762,0,0.46054983139038086,2019-07-26 14:49:39:757
-0.125142440199852,-0.06834854930639267,9.733059883117676,-0.00660758406490646,-0.006575618329595753,0.0029096811216756816,156.94019664399875,-164.37085943654765,0,0.46378016471862793,2019-07-26 14:49:39:760
-0.026957698166370392,-0.1449805349111557,9.75940227508545,-0.005009297299371112,-0.004178188181292731,0.0007786321009618848,157.399101297314,-164.665372698679,0,0.46750497817993164,2019-07-26 14:49:39:764
-0.06287894397974014,-0.03242730721831322,9.699533462524414,-0.010070538723566379,-0.004178188181292731,0.0021105377389080077,157.84422438610298,-164.96694810957487,0,0.46977949142456055,2019-07-26 14:49:39:766
-0.0461156964302063,-0.08511179685592651,9.651638984680176,-0.010603300978744828,-0.006841999457184977,-0.0005532736670214007,158.28320953373503,-165.2554202094695,0,0.4732799530029297,2019-07-26 14:49:39:770
-0.02456294745206833,0.008283439092338085,9.646849632263184,-0.0042101539166034384,-0.004178188181292731,-0.0005532736670214007,158.7155253451934,-158.35039115495633,0,0.47710657119750977,2019-07-26 14:49:39:773
-0.003010200336575508,-0.010874558240175247,9.807297706604004,-0.00953777646838793,-0.004977331564060405,-2.051134885620096e-05,159.14174179829678,-158.780428947872,0,0.48025059700012207,2019-07-26 14:49:39:776
-0.04851044341921806,-0.018058806657791138,9.836034774780273,-0.005808440682138786,-0.006042856074417303,-2.051134885620096e-05,159.55428785926873,-159.20172413300995,0,0.4832932949066162,2019-07-26 14:49:39:780
-0.0652736946940422,0.013072938658297062,9.7186918258667,-0.007140346320084909,-0.00524371269164963,0.0005122509408633695,159.95663476135798,-152.41769389167115,0,0.48712730407714844,2019-07-26 14:49:39:783
-0.003010200336575508,-0.06355905532836914,9.749823570251465,-0.007673109095412008,-0.006309237202006528,0.0010450132285511093,160.35821942916857,-152.9605671906216,0,0.49015092849731445,2019-07-26 14:49:39:786
-0.01498394925147295,-0.08511179685592651,9.752218246459961,-0.007939490223001232,-0.0028462825433466085,0.0021105377389080077,160.74979738847614,-153.48995210443024,0,0.4932982921600342,2019-07-26 14:49:39:790
-0.012589199468493462,-0.044401053339242935,9.82166576385498,-0.00607482180972801,-0.007374761712363427,-0.0016187981773782992,161.13491828907797,-154.01366657234348,0,0.4971275329589844,2019-07-26 14:49:39:793
-0.022168198600411415,-0.04919055476784706,9.735454559326172,-0.007140346320084909,-0.004710950436471181,0.0015777754837295584,161.5104109854714,-154.5263901757064,0,0.5001533031463623,2019-07-26 14:49:39:796
-0.07006318867206573,-0.05637480318546295,9.682770729064941,-0.007406727447674133,-0.004710950436471181,0.0018441566113187831,161.87274287915085,-155.02788316576536,0,0.5032973289489746,2019-07-26 14:49:39:800
-0.03893144428730011,-0.05637480318546295,9.7186918258667,-0.005542059554549561,-0.004710950436471181,-0.0008196547946106253,162.2317201949557,-155.5194756301076,0,0.5071628093719482,2019-07-26 14:49:39:803
-0.0652736946940422,-0.06834854930639267,9.733059883117676,-0.009271395860947357,-0.004444569308881956,0.0018441566113187831,162.57999922409638,-155.99979127289234,0,0.5095601081848145,2019-07-26 14:49:39:806
-0.0054049501195549965,-0.07792755216360092,9.713902473449707,-0.007406727447674133,-0.004178188181292731,-0.0037498473281292583,162.92863320178358,-156.46905776476646,0,0.513275146484375,2019-07-26 14:49:39:810
-0.0724579393863678,-0.015664057806134224,9.819271087646484,-0.008472252478179683,-0.0055100938192388545,0.0010450132285511093,163.26279285270812,-156.93602187054236,0,0.5171151161193848,2019-07-26 14:49:39:813
-0.08203694224357605,-0.0659537985920906,9.766586303710938,-0.007140346320084909,-0.006042856074417303,0.0010450132285511093,163.58894809794543,-157.38833868238908,0,0.5201692581176758,2019-07-26 14:49:39:816
-0.050905194133520126,-0.06355905532836914,9.766586303710938,-0.0068739651924956836,-0.004977331564060405,-0.0002868925069228855,163.91207495451852,-157.83190138639446,0,0.5233125686645508,2019-07-26 14:49:39:820
-0.06048419326543808,-0.0731380507349968,9.721086502075195,-0.005542059554549561,-0.006042856074417303,0.0015777754837295584,164.22801577292677,-158.2654387255874,0,0.527179479598999,2019-07-26 14:49:39:823
-0.01498394925147295,-0.0659537985920906,9.788139343261719,-0.006341202937317235,-0.0087066678704582,-0.0008196547946106253,164.54287825931127,-158.69155150768856,0,0.5295870304107666,2019-07-26 14:49:39:826
-0.06766844540834427,-0.03961155563592911,9.766586303710938,-0.008205871350590458,-0.0028462825433466085,-0.0018851793049675235,164.84467240882108,-159.11136860534123,0,0.5332858562469482,2019-07-26 14:49:39:830
-0.03414194658398628,-0.09469079971313477,9.812087059020996,-0.006341202937317235,-0.008173905615279751,0.002643299994086457,165.14554970082546,-159.51671915022715,0,0.537116289138794,2019-07-26 14:49:39:833
-0.07724744081497192,-0.06355905532836914,9.785744667053223,-0.008205871350590458,-0.004444569308881956,0.0021105377389080077,165.43434924992025,-159.91754616757413,0,0.5401458740234375,2019-07-26 14:49:39:836
-0.01737869903445244,-0.03961155563592911,9.795323371887207,-0.006341202937317235,-0.004977331564060405,0.002376918866497232,165.72450861701654,-160.31344088414096,0,0.5432925224304199,2019-07-26 14:49:39:840
-0.07006318867206573,-0.022848306223750114,9.828849792480469,-0.005542059554549561,-0.004977331564060405,-0.0002868925069228855,166.00292377742102,-160.70331279327334,0,0.5471341609954834,2019-07-26 14:49:39:843
-0.11556343734264374,-0.07074330002069473,9.747428894042969,-0.007140346320084909,-0.004977331564060405,0.0010450132285511093,166.2701239735232,-161.0797196001484,0,0.5501532554626465,2019-07-26 14:49:39:846
-0.0461156964302063,-0.03242730721831322,9.752218246459961,-0.007939490223001232,-0.005776474946828078,-0.00268432281777236,166.54032271253243,-161.45291309066394,0,0.553297758102417,2019-07-26 14:49:39:850
-0.04851044341921806,-0.015664057806134224,9.747428894042969,-0.007673109095412008,-0.006309237202006528,0.0018441566113187831,166.80517348361724,-161.8203592313511,0,0.5571370124816895,2019-07-26 14:49:39:853
-0.06287894397974014,-0.0994802936911583,9.728270530700684,-0.007140346320084909,-0.0036454259261142824,-2.051134885620096e-05,167.0622847088583,-162.17101759177797,0,0.5601720809936523,2019-07-26 14:49:39:856
0.011358297429978848,-0.006085059139877558,9.728270530700684,-0.007406727447674133,-0.007108380584774201,0.0029096811216756816,160.12363210929186,-162.5255726106791,0,0.563316822052002,2019-07-26 14:49:39:860
-0.04851044341921806,-0.07074330002069473,9.745034217834473,-0.007939490223001232,-0.00524371269164963,0.0002458697970194996,160.51658587290672,-162.8650306518728,0,0.5671570301055908,2019-07-26 14:49:39:863
-0.08443169295787811,-0.06116430088877678,9.764191627502441,-0.007140346320084909,-0.005776474946828078,-2.051134885620096e-05,160.89712484588986,-163.199588701919,0,0.5695595741271973,2019-07-26 14:49:39:866
-0.050905194133520126,-0.10187504440546036,9.848008155822754,-0.00607482180972801,-0.003112663670935833,0.0005122509408633695,161.27390782279684,-163.5224770125619,0,0.5732715129852295,2019-07-26 14:49:39:870
-0.08443169295787811,-0.022848306223750114,9.83842945098877,-0.009005014213209482,-0.003112663670935833,0.002643299994086457,161.63926720066385,-163.84742404873364,0,0.5771126747131348,2019-07-26 14:49:39:873
-0.0916159376502037,-0.08271704614162445,9.797718048095703,-0.00607482180972801,-0.007108380584774201,0.0005122509408633695,161.99697840829134,-164.1597661641329,0,0.5801477432250977,2019-07-26 14:49:39:876
-0.09640543907880783,-0.0659537985920906,9.752218246459961,-0.004476535044192663,-0.006042856074417303,0.0015777754837295584,162.34677878744097,-164.46803037341516,0,0.5832939147949219,2019-07-26 14:49:39:880
-0.11556343734264374,-0.08511179685592651,9.73066520690918,-0.008472252478179683,-0.0017807579029525478,0.0018441566113187831,162.6866180994249,-164.76682296021374,0,0.5871281623840332,2019-07-26 14:49:39:883
-0.04132619500160217,-0.1521647870540619,9.747428894042969,-0.0068739651924956836,-0.005776474946828078,0.0013113943561403338,163.02900658655554,-165.05243414448057,0,0.5901470184326172,2019-07-26 14:49:39:886
-0.022168198600411415,-0.08032230287790298,9.713902473449707,-0.007673109095412008,-0.002047139030541772,0.0021105377389080077,163.36617315947888,-165.34055420677063,0,0.593294620513916,2019-07-26 14:49:39:890
-0.07964219152927399,-0.08032230287790298,9.764191627502441,-0.009005014213209482,-0.00524371269164963,-2.051134885620096e-05,163.69063189834614,-165.62237844136467,0,0.59712815284729,2019-07-26 14:49:39:893
-0.04851044341921806,-0.1186382919549942,9.75940227508545,-0.007406727447674133,-0.006841999457184977,0.0021105377389080077,164.01228617588288,-165.89474268242105,0,0.6001548767089844,2019-07-26 14:49:39:896
-0.043720945715904236,-0.03482205420732498,9.749823570251465,-0.007406727447674133,-0.003911807053703507,-0.00268432281777236,164.32759182842008,-166.17144877413074,0,0.6032960414886475,2019-07-26 14:49:39:900
-0.0988001897931099,0.005888689309358597,9.723481178283691,-0.00607482180972801,-0.004977331564060405,0.003176062249264906,164.63047640088456,-159.24739607887597,0,0.6071591377258301,2019-07-26 14:49:39:903
-0.08443169295787811,-0.11384879797697067,9.74024486541748,-0.007673109095412008,-0.007907524487690526,0.003176062249264906,164.9290070394455,-159.6480134541827,0,0.6095759868621826,2019-07-26 14:49:39:906
-0.05808944255113602,-0.04919055476784706,9.804903030395508,-0.00953777646838793,-0.004977331564060405,0.0002458697970194996,165.22467703220062,-160.04731314821163,0,0.6132938861846924,2019-07-26 14:49:39:910
-0.04851044341921806,-0.08511179685592651,9.776165962219238,-0.007673109095412008,-0.004977331564060405,0.0015777754837295584,165.51556642522922,-160.43474267874154,0,0.6171190738677979,2019-07-26 14:49:39:913
-0.07485269010066986,-0.07792755216360092,9.768980979919434,-0.007406727447674133,-0.0055100938192388545,0.002376918866497232,165.79743151870497,-160.81562116087102,0,0.6202108860015869,2019-07-26 14:49:39:916
-0.050905194133520126,-0.0731380507349968,9.800113677978516,-0.008472252478179683,-0.004977331564060405,0.0007786321009618848,166.07639428067435,-161.1892869214586,0,0.6233010292053223,2019-07-26 14:49:39:920
-0.022168198600411415,-0.051585301756858826,9.716297149658203,-0.007939490223001232,-0.005776474946828078,0.00370882476451768,166.3534919352205,-161.55771308271252,0,0.6271240711212158,2019-07-26 14:49:39:923
-0.09401068836450577,-0.03482205420732498,9.812087059020996,-0.006341202937317235,-0.004178188181292731,0.002376918866497232,166.6161538758326,-161.92141365318255,0,0.6301529407501221,2019-07-26 14:49:39:926
-0.029352447018027306,-0.08750654757022858,9.855192184448242,-0.00607482180972801,-0.0028462825433466085,0.0005122509408633695,166.8809197067849,-162.27173966867025,0,0.6332931518554688,2019-07-26 14:49:39:930
-0.029352447018027306,-0.06834854930639267,9.682770729064941,-0.0068739651924956836,-0.0036454259261142824,0.0015777754837295584,167.1406131482471,-162.61673495011559,0,0.6371309757232666,2019-07-26 14:49:39:933
-0.01498394925147295,-0.001295559573918581,9.778560638427734,-0.007939490223001232,-0.004178188181292731,-0.0008196547946106253,167.39675410239394,-162.9629009184484,0,0.6401536464691162,2019-07-26 14:49:39:936
-0.022168198600411415,-0.0994802936911583,9.797718048095703,-0.008205871350590458,-0.002047139030541772,-0.0002868925069228855,167.64658730131822,-163.29056124491512,0,0.6432943344116211,2019-07-26 14:49:39:940
-0.029352447018027306,-0.06834854930639267,9.764191627502441,-0.003677391661424989,-0.007108380584774201,0.0015777754837295584,167.8917417442189,-163.61593682470004,0,0.647130012512207,2019-07-26 14:49:39:943
-0.03414194658398628,-0.02763780578970909,9.824060440063477,-0.00660758406490646,-0.003112663670935833,0.002643299994086457,168.13045189365707,-163.93927472001457,0,0.6501476764678955,2019-07-26 14:49:39:946
-0.05329994484782219,-0.018058806657791138,9.833640098571777,-0.005542059554549561,-0.007641143360101302,-0.0008196547946106253,168.3629819327062,-164.25740563988333,0,0.6532943248748779,2019-07-26 14:49:39:950
-0.03174719586968422,-0.010874558240175247,9.752218246459961,-0.010869682626482703,-0.003379044798525057,0.0007786321009618848,168.5927196233435,-164.56863884512433,0,0.6571297645568848,2019-07-26 14:49:39:953
-0.05329994484782219,-0.11384879797697067,9.764191627502441,-0.005542059554549561,-0.006575618329595753,0.0015777754837295584,168.81573445919898,-164.86295783384875,0,0.660175085067749,2019-07-26 14:49:39:956
-0.0652736946940422,-0.05637480318546295,9.800113677978516,-0.00953777646838793,-0.004977331564060405,-0.0002868925069228855,169.03266572256572,-165.15742403841708,0,0.6633174419403076,2019-07-26 14:49:39:960
-0.04851044341921806,-0.0036903093568980694,9.895903587341309,-0.007406727447674133,-0.0028462825433466085,0.004774349274874579,169.24702433505928,-165.45221078331147,0,0.6672546863555908,2019-07-26 14:49:39:963
-0.04132619500160217,-0.0659537985920906,9.764191627502441,-0.009271395860947357,-0.006575618329595753,-0.0008196547946106253,169.4580961204645,-165.73421068123628,0,0.6695899963378906,2019-07-26 14:49:39:966
-0.01737869903445244,-0.06834854930639267,9.742639541625977,-0.00607482180972801,-0.003911807053703507,-0.0016187981773782992,169.66770043254527,-166.0102292023134,0,0.6732790470123291,2019-07-26 14:49:39:970
-0.08203694224357605,-0.051585301756858826,9.783349990844727,-0.006341202937317235,-0.004178188181292731,0.0021105377389080077,169.86563558523923,-166.28261986448607,0,0.6771061420440674,2019-07-26 14:49:39:973
-0.16585317254066467,-0.0731380507349968,9.725875854492188,-0.00660758406490646,-0.006042856074417303,0.003975205892106905,170.04981750616375,-166.54722001733492,0,0.6801528930664062,2019-07-26 14:49:39:976
-0.022168198600411415,-0.030032556504011154,9.869561195373535,-0.007140346320084909,-0.0028462825433466085,-2.051134885620096e-05,170.24675034344529,-166.8115267003297,0,0.6833004951477051,2019-07-26 14:49:39:980
-0.0461156964302063,-0.02763780578970909,9.800113677978516,-0.005808440682138786,-0.006309237202006528,-2.051134885620096e-05,170.43778229901298,-167.07081322807375,0,0.6871371269226074,2019-07-26 14:49:39:983
-0.04851044341921806,-0.06355905532836914,9.680376052856445,-0.006341202937317235,-0.004178188181292731,0.0010450132285511093,170.6238517236079,-167.32101204456455,0,0.6895558834075928,2019-07-26 14:49:39:986
-0.06766844540834427,0.005888689309358597,9.7186918258667,-0.00660758406490646,-0.0036454259261142824,0.0005122509408633695,170.80415798571144,-160.37390522965282,0,0.6932778358459473,2019-07-26 14:49:39:990
-0.07485269010066986,-0.11624354124069214,9.754612922668457,-0.005275678426960337,-0.00524371269164963,0.0013113943561403338,170.9804113005466,-160.75163570199965,0,0.6971142292022705,2019-07-26 14:49:39:993
-0.06048419326543808,-0.04919055476784706,9.721086502075195,-0.005275678426960337,-0.005776474946828078,-0.0010860359221998499,171.15466687198298,-161.12989707756333,0,0.7001774311065674,2019-07-26 14:49:39:996
-0.08203694224357605,-0.044401053339242935,9.783349990844727,-0.004742916171781888,-0.0055100938192388545,-2.051134885620096e-05,171.32293661581951,-161.50126204055962,0,0.7033183574676514,2019-07-26 14:49:40:000
-0.02456294745206833,0.005888689309358597,9.711507797241211,-0.005808440682138786,-0.0028462825433466085,0.0005122509408633695,171.49419627685396,-154.67067311659852,0,0.7071771621704102,2019-07-26 14:49:40:003
-0.05329994484782219,-0.046795804053545,9.768980979919434,-0.007939490223001232,-0.006309237202006528,0.00370882476451768,171.65890437435925,-155.17070824540113,0,0.7095599174499512,2019-07-26 14:49:40:006
-0.07964219152927399,-0.05637480318546295,9.766586303710938,-0.007406727447674133,-0.003379044798525057,-0.0013524170497890744,171.81708715038096,-155.6591341557029,0,0.7132761478424072,2019-07-26 14:49:40:010
-0.0916159376502037,-0.022848306223750114,9.859981536865234,-0.007939490223001232,-0.0017807579029525478,0.0007786321009618848,171.9704827202561,-156.14158176571098,0,0.7171216011047363,2019-07-26 14:49:40:013
-0.03893144428730011,-0.03482205420732498,9.725875854492188,-0.00607482180972801,-0.002579901415757384,-0.0010860359221998499,172.12692483231,-156.6136143812778,0,0.7201499938964844,2019-07-26 14:49:40:016
-0.04851044341921806,-0.0731380507349968,9.737849235534668,-0.009271395860947357,-0.006042856074417303,-0.0008196547946106253,172.27974422671795,-157.07109950854044,0,0.7232928276062012,2019-07-26 14:49:40:020
-0.05808944255113602,-0.0659537985920906,9.795323371887207,-0.0068739651924956836,-0.007641143360101302,-2.051134885620096e-05,172.4290026365298,-157.52047864675674,0,0.7271358966827393,2019-07-26 14:49:40:023
-0.0461156964302063,-0.09708555042743683,9.788139343261719,-0.006341202937317235,-0.006309237202006528,-0.0018851793049675235,172.57588208514426,-157.95784080147052,0,0.7295587062835693,2019-07-26 14:49:40:026
-0.08922118693590164,-0.07074330002069473,9.776165962219238,-0.0042101539166034384,-0.0012479956477740985,-0.0002868925069228855,172.71416709885506,-158.38951330965145,0,0.7332754135131836,2019-07-26 14:49:40:030
-0.03414194658398628,-0.07074330002069473,9.785744667053223,-0.0068739651924956836,-0.00524371269164963,-0.0002868925069228855,172.85701459580844,-158.81195929099212,0,0.7371094226837158,2019-07-26 14:49:40:033
-0.11077393591403961,-0.04919055476784706,9.742639541625977,-0.008205871350590458,-0.006309237202006528,0.0002458697970194996,172.98792142463333,-159.22853544725353,0,0.7401456832885742,2019-07-26 14:49:40:036
-0.022168198600411415,-0.08511179685592651,9.764191627502441,-0.005808440682138786,-0.008440286742868976,-0.0008196547946106253,173.12705352992975,-159.6329494775336,0,0.7432942390441895,2019-07-26 14:49:40:040
-0.036536697298288345,-0.0922960489988327,9.802508354187012,-0.006341202937317235,-0.0055100938192388545,0.0002458697970194996,173.26142945626557,-160.028134040842,0,0.7471344470977783,2019-07-26 14:49:40:043
0.011358297429978848,-0.030032556504011154,9.7186918258667,-0.007406727447674133,-0.007907524487690526,-0.0013524170497890744,166.19889161213925,-160.42276436654998,0,0.750178337097168,2019-07-26 14:49:40:046
-0.03174719586968422,-0.0922960489988327,9.816876411437988,-0.008738633605768906,-0.006841999457184977,0.0007786321009618848,166.4724151920846,-160.8019938878035,0,0.7533206939697266,2019-07-26 14:49:40:050
-0.0006154506700113416,-0.0731380507349968,9.826455116271973,-0.007406727447674133,-0.006309237202006528,0.0005122509408633695,166.74425159038634,-161.17583271619083,0,0.7571496963500977,2019-07-26 14:49:40:053
-0.03174719586968422,-0.07792755216360092,9.828849792480469,-0.0068739651924956836,-0.003911807053703507,-2.051134885620096e-05,167.0061952796288,-161.54229955259584,0,0.7595627307891846,2019-07-26 14:49:40:056
-0.050905194133520126,-0.046795804053545,9.644454002380371,-0.007673109095412008,-0.0087066678704582,0.0010450132285511093,167.2618445242901,-161.90428828969254,0,0.7632884979248047,2019-07-26 14:49:40:060
0.00417404854670167,-0.08032230287790298,9.797718048095703,-0.00607482180972801,-0.004444569308881956,-0.0010860359221998499,160.31804871546055,-162.25550603225574,0,0.7671067714691162,2019-07-26 14:49:40:063
-0.0461156964302063,-0.04200630262494087,9.831245422363281,-0.006341202937317235,-0.003379044798525057,-0.0018851793049675235,160.70688954046076,-162.6044170513597,0,0.7701475620269775,2019-07-26 14:49:40:066
-0.03893144428730011,-0.08271704614162445,9.768980979919434,-0.007939490223001232,-0.006042856074417303,0.0007786321009618848,161.0892524917025,-162.9412236520485,0,0.7732934951782227,2019-07-26 14:49:40:070
-0.010194449685513973,-0.10426979511976242,9.764191627502441,-0.003943772789014213,-0.004710950436471181,0.0021105377389080077,161.46728324614807,-163.26931527195882,0,0.7771201133728027,2019-07-26 14:49:40:073
0.02333204634487629,-0.025243056938052177,9.773771286010742,-0.007406727447674133,-0.00524371269164963,-0.0005532736670214007,154.64156653341564,-163.5997074300173,0,0.7801544666290283,2019-07-26 14:49:40:076
-0.02456294745206833,-0.10187504440546036,9.713902473449707,-0.007406727447674133,-0.003911807053703507,0.003176062249264906,155.14652844172178,-163.9143878197675,0,0.7832996845245361,2019-07-26 14:49:40:080
-0.007799699902534485,-0.044401053339242935,9.752218246459961,-0.009804158116125805,-0.0036454259261142824,0.0013113943561403338,155.64346714442004,-164.22876958404328,0,0.7871384620666504,2019-07-26 14:49:40:083
-0.036536697298288345,-0.08990129828453064,9.845613479614258,-0.00953777646838793,-0.004444569308881956,0.0021105377389080077,156.12695203598793,-164.53242914686572,0,0.7895693778991699,2019-07-26 14:49:40:086
-0.0461156964302063,-0.13540154695510864,9.747428894042969,-0.007406727447674133,-0.006841999457184977,0.0002458697970194996,156.60041850445413,-164.824319034212,0,0.7932834625244141,2019-07-26 14:49:40:090
-0.0724579393863678,0.005888689309358597,9.783349990844727,-0.007140346320084909,-0.002579901415757384,0.0010450132285511093,157.0604768165172,-157.92699057639615,0,0.7971041202545166,2019-07-26 14:49:40:093
-0.010194449685513973,-0.15934903919696808,9.745034217834473,-0.008738633605768906,-0.005776474946828078,0.0021105377389080077,157.51906453726338,-158.34820785564034,0,0.8001749515533447,2019-07-26 14:49:40:096
-0.03174719586968422,-0.08990129828453064,9.75940227508545,-0.005808440682138786,-0.004710950436471181,-0.0005532736670214007,157.9657867633995,-158.76966331412655,0,0.8033170700073242,2019-07-26 14:49:40:100
-0.003010200336575508,-0.06116430088877678,9.725875854492188,-0.007939490223001232,-0.002579901415757384,-0.0010860359221998499,158.40667265916193,-159.18535171408118,0,0.8071572780609131,2019-07-26 14:49:40:103
-0.029352447018027306,-0.08990129828453064,9.67798137664795,-0.005275678426960337,-0.006575618329595753,-0.0005532736670214007,158.8359644696864,-159.59027762715976,0,0.8095967769622803,2019-07-26 14:49:40:106
-0.0724579393863678,-0.0922960489988327,9.721086502075195,-0.009271395860947357,-0.004178188181292731,0.004507968147285354,159.2515696783588,-159.98567175459868,0,0.813286542892456,2019-07-26 14:49:40:110
-0.07006318867206573,-0.058769553899765015,9.749823570251465,-0.006341202937317235,-0.0055100938192388545,0.0010450132285511093,159.65949056280016,-160.37768529646814,0,0.8171224594116211,2019-07-26 14:49:40:113
-0.06287894397974014,-0.022848306223750114,9.75940227508545,-0.005542059554549561,-0.0028462825433466085,0.002376918866497232,160.0594012828232,-160.76650747116562,0,0.8201475143432617,2019-07-26 14:49:40:116
-0.012589199468493462,-0.06116430088877678,9.697138786315918,-0.007939490223001232,-0.003911807053703507,0.0013113943561403338,160.45741637287105,-161.14254756658465,0,0.8232924938201904,2019-07-26 14:49:40:120
-0.03893144428730011,-0.11145404726266861,9.797718048095703,-0.009804158116125805,-0.003112663670935833,-0.0016187981773782992,160.84438463209224,-161.50455182831058,0,0.8271253108978271,2019-07-26 14:49:40:123
-0.03174719586968422,-0.10905929654836655,9.771376609802246,-0.008472252478179683,-0.006841999457184977,0.0015777754837295584,161.22493658071022,-161.86023189901607,0,0.8301517963409424,2019-07-26 14:49:40:126
-0.08443169295787811,-0.13540154695510864,9.824060440063477,-0.008472252478179683,-0.006841999457184977,-0.0010860359221998499,161.59179898833966,-162.2057370345695,0,0.8332996368408203,2019-07-26 14:49:40:130
-0.06287894397974014,-0.051585301756858826,9.845613479614258,-0.00607482180972801,-0.004710950436471181,0.0015777754837295584,161.95366003022443,-162.55430917006126,0,0.8371379375457764,2019-07-26 14:49:40:133
-0.04132619500160217,-0.05637480318546295,9.795323371887207,-0.005275678426960337,-0.006309237202006528,0.002643299994086457,162.3108298493789,-162.89572694566732,0,0.8401796817779541,2019-07-26 14:49:40:136
-0.029352447018027306,-0.046795804053545,9.792928695678711,-0.007939490223001232,-0.006841999457184977,-0.0002868925069228855,162.6623856370713,-163.23093600215833,0,0.8433215618133545,2019-07-26 14:49:40:140
-0.10837918519973755,-0.08511179685592651,9.807297706604004,-0.007140346320084909,-0.006841999457184977,0.00370882476451768,162.99794856303143,-163.55483506021557,0,0.8471570014953613,2019-07-26 14:49:40:143
-0.03414194658398628,-0.08032230287790298,9.745034217834473,-0.007140346320084909,-0.004710950436471181,0.0018441566113187831,163.33461107996504,-163.87332919569639,0,0.8495621681213379,2019-07-26 14:49:40:146
-0.07964219152927399,-0.07074330002069473,9.778560638427734,-0.009005014213209482,-0.0036454259261142824,0.0007786321009618848,163.65934562603542,-164.18569632847013,0,0.8532729148864746,2019-07-26 14:49:40:150
-0.06766844540834427,-0.046795804053545,9.833640098571777,-0.008738633605768906,-0.008973048998047425,-0.0018851793049675235,163.98021234092073,-164.49464105658,0,0.8571212291717529,2019-07-26 14:49:40:153
-0.0916159376502037,-0.10666454583406448,9.749823570251465,-0.009005014213209482,-0.00524371269164963,0.0013113943561403338,164.2907333269902,-164.79067919003256,0,0.8601531982421875,2019-07-26 14:49:40:156
-0.036536697298288345,-0.013269308023154736,9.795323371887207,-0.007939490223001232,-0.004444569308881956,-0.0005532736670214007,164.60142873035855,-165.09191220472195,0,0.8632960319519043,2019-07-26 14:49:40:160
-0.06766844540834427,-0.046795804053545,9.828849792480469,-0.007140346320084909,-0.006575618329595753,0.002376918866497232,164.90292688017146,-165.38308076787322,0,0.8671307563781738,2019-07-26 14:49:40:163
-0.026957698166370392,-0.04919055476784706,9.766586303710938,-0.009271395860947357,-0.006309237202006528,-2.051134885620096e-05,165.20277562689446,-165.66807496722402,0,0.8701517581939697,2019-07-26 14:49:40:166
-0.04132619500160217,-0.08271704614162445,9.802508354187012,-0.00607482180972801,-0.006309237202006528,-0.0008196547946106253,165.49500375686242,-165.9439708129799,0,0.873298168182373,2019-07-26 14:49:40:170
-0.0652736946940422,-0.05637480318546295,9.802508354187012,-0.005009297299371112,-0.003911807053703507,0.0013113943561403338,165.77831640912157,-166.21742157016325,0,0.8771367073059082,2019-07-26 14:49:40:173
-0.08443169295787811,-0.001295559573918581,9.73066520690918,-0.007673109095412008,-0.00524371269164963,0.0029096811216756816,166.05352044881397,-166.491877127173,0,0.8795585632324219,2019-07-26 14:49:40:176
-0.022168198600411415,-0.058769553899765015,9.833640098571777,-0.008205871350590458,-0.005776474946828078,0.0013113943561403338,166.3310727522171,-166.753478077235,0,0.8832767009735107,2019-07-26 14:49:40:180
-0.0461156964302063,-0.010874558240175247,9.788139343261719,-0.007673109095412008,-0.0055100938192388545,-0.0024179416901831353,166.60023699859553,-167.01548591417264,0,0.8871052265167236,2019-07-26 14:49:40:183
-0.125142440199852,-0.0922960489988327,9.82166576385498,-0.005808440682138786,-0.004178188181292731,0.0034424436369284556,166.85435177051835,-167.26340807433195,0,0.8901715278625488,2019-07-26 14:49:40:186
-0.11316868662834167,-0.06834854930639267,9.788139343261719,-0.004476535044192663,-0.004178188181292731,-0.0010860359221998499,167.10475445256006,-167.50934765984968,0,0.8933172225952148,2019-07-26 14:49:40:190
-0.06048419326543808,-0.0731380507349968,9.721086502075195,-0.008472252478179683,-0.006841999457184977,0.0021105377389080077,167.35700475439967,-167.7487127807949,0,0.8971569538116455,2019-07-26 14:49:40:193
-0.026957698166370392,-0.0036903093568980694,9.75940227508545,-0.007406727447674133,-0.003379044798525057,0.0005122509408633695,167.60715504748507,-167.9923064321376,0,0.8995585441589355,2019-07-26 14:49:40:196
-0.03893144428730011,-0.04919055476784706,9.771376609802246,-0.007140346320084909,-0.003379044798525057,0.0005122509408633695,167.8511531857675,-168.22519806501447,0,0.9032838344573975,2019-07-26 14:49:40:200
-0.055694691836833954,-0.06355905532836914,9.728270530700684,-0.005808440682138786,-0.004178188181292731,0.002643299994086457,168.08846803257498,-168.45195871627178,0,0.9071125984191895,2019-07-26 14:49:40:203
-0.14908993244171143,-0.018058806657791138,9.761796951293945,-0.008205871350590458,-0.0036454259261142824,-0.0024179416901831353,168.3098196046582,-168.6794019964722,0,0.9101459980010986,2019-07-26 14:49:40:206
-0.1179581880569458,-0.022848306223750114,9.7186918258667,-0.0068739651924956836,-0.0028462825433466085,-0.0002868925069228855,168.53021821938336,-168.9019061711802,0,0.9132907390594482,2019-07-26 14:49:40:210
0.03051629476249218,-0.0994802936911583,9.857586860656738,-0.006341202937317235,-0.0012479956477740985,-2.051134885620096e-05,161.56343015808235,-169.110937915648,0,0.9171278476715088,2019-07-26 14:49:40:213
-0.03414194658398628,-0.05637480318546295,9.754612922668457,-0.0068739651924956836,-0.006309237202006528,0.0007786321009618848,161.9292221836674,-169.3209293337002,0,0.9201521873474121,2019-07-26 14:49:40:216
-0.019773447886109352,-0.05398005247116089,9.716297149658203,-0.002079104765852479,-0.004178188181292731,0.002643299994086457,162.28904404298714,-169.5277771412594,0,0.9232993125915527,2019-07-26 14:49:40:220
-0.0916159376502037,-0.10426979511976242,9.828849792480469,-0.007673109095412008,-0.0036454259261142824,-0.0005532736670214007,162.63336737458152,-169.72341297834052,0,0.9271349906921387,2019-07-26 14:49:40:223
-0.02456294745206833,-0.03961155563592911,9.78095531463623,-0.004476535044192663,-0.005776474946828078,0.0015777754837295584,162.97860797076177,-169.9236950699852,0,0.9295573234558105,2019-07-26 14:49:40:226
-0.1179581880569458,-0.06116430088877678,9.788139343261719,-0.008205871350590458,-0.0055100938192388545,0.0013113943561403338,163.30637666470395,-170.11634835890504,0,0.9332735538482666,2019-07-26 14:49:40:230
-0.13951092958450317,-0.058769553899765015,9.8096923828125,-0.007140346320084909,-0.00524371269164963,-0.0002868925069228855,163.6250824548316,-170.305618780503,0,0.9371085166931152,2019-07-26 14:49:40:233
-0.0461156964302063,-0.13061204552650452,9.778560638427734,-0.008738633605768906,-0.004710950436471181,-0.003483466200540034,163.94798660475095,-170.48269901381258,0,0.9401702880859375,2019-07-26 14:49:40:236
-0.08443169295787811,-0.046795804053545,9.768980979919434,-0.00607482180972801,-0.003379044798525057,0.0005122509408633695,164.25972009189022,-170.66648269962423,0,0.9433164596557617,2019-07-26 14:49:40:240
-0.050905194133520126,-0.051585301756858826,9.771376609802246,-0.005009297299371112,-0.004710950436471181,-0.0002868925069228855,164.5695699351019,-170.846025359088,0,0.9471497535705566,2019-07-26 14:49:40:243
-0.06287894397974014,-0.1258225440979004,9.871955871582031,-0.005542059554549561,-0.004710950436471181,-0.0024179416901831353,164.871529553413,-171.01373602471958,0,0.94960618019104,2019-07-26 14:49:40:246
-0.029352447018027306,-0.04200630262494087,9.768980979919434,-0.005275678426960337,-0.005776474946828078,0.0015777754837295584,165.17184871361886,-171.18744452223038,0,0.9532837867736816,2019-07-26 14:49:40:250
-0.09401068836450577,-0.0659537985920906,9.768980979919434,-0.007140346320084909,-0.006309237202006528,0.0002458697970194996,165.45874256804566,-171.3544222973116,0,0.9571173191070557,2019-07-26 14:49:40:253
-0.055694691836833954,-0.010874558240175247,9.790534019470215,-0.007140346320084909,-0.004178188181292731,0.0005122509408633695,165.74375845763313,-171.52484879846818,0,0.9601409435272217,2019-07-26 14:49:40:256
-0.06287894397974014,-0.07792755216360092,9.67319107055664,-0.005542059554549561,-0.007108380584774201,-0.0008196547946106253,166.02269145060734,-171.6841405532057,0,0.9632899761199951,2019-07-26 14:49:40:260
-0.026957698166370392,-0.12342779338359833,9.75940227508545,-0.006341202937317235,-0.003379044798525057,-0.0002868925069228855,166.29980001293325,-171.83460049310463,0,0.9671251773834229,2019-07-26 14:49:40:263
-0.01498394925147295,-0.058769553899765015,9.737849235534668,-0.005808440682138786,-0.007641143360101302,0.0013113943561403338,166.57333732348079,-171.9900071842687,0,0.9701471328735352,2019-07-26 14:49:40:266
-0.03174719586968422,-0.030032556504011154,9.7186918258667,-0.00660758406490646,-0.000981614520184874,-0.0016187981773782992,166.83830101378703,-172.14549682632236,0,0.9732983112335205,2019-07-26 14:49:40:270
-0.05329994484782219,-0.10426979511976242,9.704322814941406,-0.00607482180972801,-0.004178188181292731,0.0005122509408633695,167.09614183443927,-172.28896546431716,0,0.9771370887756348,2019-07-26 14:49:40:273
-0.055694691836833954,-0.058769553899765015,9.68995475769043,-0.00607482180972801,-0.004178188181292731,-0.0024179416901831353,167.34834593806687,-172.43519929380108,0,0.9801771640777588,2019-07-26 14:49:40:276
-0.08682643622159958,-0.08511179685592651,9.725875854492188,-0.005275678426960337,-0.004444569308881956,0.003176062249264906,167.59193272445305,-172.5755376412147,0,0.9833164215087891,2019-07-26 14:49:40:280
-0.10358969122171402,-0.058769553899765015,9.797718048095703,-0.009005014213209482,-0.006042856074417303,-0.0013524170497890744,167.82928056948265,-172.71521376057308,0,0.9871525764465332,2019-07-26 14:49:40:283
-0.026957698166370392,-0.0731380507349968,9.78095531463623,-0.00660758406490646,-0.004444569308881956,-0.0005532736670214007,168.07013785052754,-172.8514471809956,0,0.9895615577697754,2019-07-26 14:49:40:286
-0.04851044341921806,-0.11384879797697067,9.704322814941406,-0.006341202937317235,-0.0017807579029525478,0.0007786321009618848,168.30337806040214,-172.97965349678256,0,0.9932737350463867,2019-07-26 14:49:40:290
-0.043720945715904236,-0.08750654757022858,9.814481735229492,-0.005808440682138786,-0.006841999457184977,0.0002458697970194996,168.53367816899075,-173.10859367150613,0,0.9971063137054443,2019-07-26 14:49:40:293
-0.08443169295787811,-0.030032556504011154,9.75940227508545,-0.006341202937317235,-0.002579901415757384,0.0013113943561403338,168.75353746733225,-173.24179853079417,0,1.0001871585845947,2019-07-26 14:49:40:296
-0.010194449685513973,-0.04200630262494087,9.783349990844727,-0.005009297299371112,-0.001514376775363323,0.0015777754837295584,168.9775392844607,-173.37116045006195,0,1.0033228397369385,2019-07-26 14:49:40:300
-0.03414194658398628,-0.07553280144929886,9.721086502075195,-0.009005014213209482,-0.007108380584774201,0.0013113943561403338,169.19550911005325,-173.4928761429888,0,1.0071942806243896,2019-07-26 14:49:40:303
-0.03414194658398628,-0.03242730721831322,9.67798137664795,-0.007673109095412008,-0.006575618329595753,0.0010450132285511093,169.4084324517462,-173.6181568170023,0,1.0095670223236084,2019-07-26 14:49:40:306
-0.01498394925147295,-0.051585301756858826,9.749823570251465,-0.007140346320084909,-0.005776474946828078,0.003176062249264906,169.61970512598873,-173.7382445031994,0,1.0132741928100586,2019-07-26 14:49:40:310
-0.07964219152927399,-0.03961155563592911,9.819271087646484,-0.009271395860947357,-0.0028462825433466085,0.0029096811216756816,169.81862902690892,-173.85686311513277,0,1.017104148864746,2019-07-26 14:49:40:313
-0.07724744081497192,-0.058769553899765015,9.771376609802246,-0.005808440682138786,-0.00524371269164963,-0.0016187981773782992,170.0140936335025,-173.97184136182653,0,1.0201473236083984,2019-07-26 14:49:40:316
0.03530579432845116,-0.046795804053545,9.776165962219238,-0.00607482180972801,-0.0036454259261142824,0.00370882476451768,163.01859269495512,-174.08584859329383,0,1.0232865810394287,2019-07-26 14:49:40:320
-0.022168198600411415,-0.06834854930639267,9.685165405273438,-0.005808440682138786,-0.00524371269164963,-0.0005532736670214007,163.356725157274,-174.19479641983403,0,1.0271148681640625,2019-07-26 14:49:40:323
0.028121545910835266,-0.04919055476784706,9.745034217834473,-0.007406727447674133,-0.004710950436471181,-0.0005532736670214007,156.49370684179235,-174.3038436814117,0,1.030174732208252,2019-07-26 14:49:40:326
-0.03893144428730011,-0.11145404726266861,9.8096923828125,-0.005275678426960337,-0.004977331564060405,0.0013113943561403338,156.9601623152044,-174.40381796669763,0,1.0333139896392822,2019-07-26 14:49:40:330
-0.03414194658398628,-0.07074330002069473,9.768980979919434,-0.007939490223001232,-0.003112663670935833,-0.0010860359221998499,157.41762461028947,-174.50573340450845,0,1.0371499061584473,2019-07-26 14:49:40:333
-0.08682643622159958,-0.03961155563592911,9.694744110107422,-0.007406727447674133,-0.004977331564060405,0.0010450132285511093,157.85968318947732,-174.60993423120667,0,1.039560317993164,2019-07-26 14:49:40:336
-0.010194449685513973,-0.08271704614162445,9.74024486541748,-0.007140346320084909,-0.007374761712363427,0.0018441566113187831,158.3028336754258,-174.70650988672082,0,1.043287754058838,2019-07-26 14:49:40:340
-0.06287894397974014,-0.03961155563592911,9.790534019470215,-0.00660758406490646,-0.007108380584774201,-0.0008196547946106253,158.73094222048715,-174.80632619466087,0,1.0471076965332031,2019-07-26 14:49:40:343
-0.003010200336575508,-0.04919055476784706,9.864771842956543,-0.008738633605768906,-0.006841999457184977,0.00424158701969613,159.15714007491044,-174.9029959307599,0,1.0501437187194824,2019-07-26 14:49:40:346
0.0161477979272604,-0.08750654757022858,9.754612922668457,-0.008205871350590458,-0.0055100938192388545,0.0015777754837295584,152.37686865165068,-174.99320536062606,0,1.053293228149414,2019-07-26 14:49:40:350
-0.03893144428730011,-0.044401053339242935,9.804903030395508,-0.007140346320084909,-0.006841999457184977,0.0021105377389080077,152.9262537086983,-175.08661546898372,0,1.0571258068084717,2019-07-26 14:49:40:353
-0.05329994484782219,-0.08990129828453064,9.757007598876953,-0.00607482180972801,-0.003379044798525057,-0.0008196547946106253,153.4620429519999,-175.17329287361972,0,1.0601515769958496,2019-07-26 14:49:40:356
-0.0724579393863678,-0.08990129828453064,9.654033660888672,-0.007140346320084909,-0.006042856074417303,0.0005122509408633695,153.98526979432188,-175.25789405239527,0,1.0632996559143066,2019-07-26 14:49:40:360
-0.06287894397974014,-0.04919055476784706,9.63248062133789,-0.007140346320084909,-0.005776474946828078,-0.0008196547946106253,154.49932944805718,-175.3453450612939,0,1.067138910293579,2019-07-26 14:49:40:363
-0.06048419326543808,-0.11624354124069214,9.831245422363281,-0.009005014213209482,-0.0012479956477740985,0.0018441566113187831,155.00246270995495,-175.42366505044777,0,1.0695607662200928,2019-07-26 14:49:40:366
-0.0724579393863678,-0.06355905532836914,9.814481735229492,-0.007673109095412008,-0.00524371269164963,0.0005122509408633695,155.49504903968804,-175.5061678840866,0,1.0732812881469727,2019-07-26 14:49:40:370
-0.04851044341921806,-0.06116430088877678,9.721086502075195,-0.007406727447674133,-0.0055100938192388545,0.0029096811216756816,155.980613351905,-175.58724356891503,0,1.0771069526672363,2019-07-26 14:49:40:373
-0.0724579393863678,-0.030032556504011154,9.692349433898926,-0.005808440682138786,-0.003379044798525057,-0.0013524170497890744,156.45301698996778,-175.67094692941438,0,1.0801763534545898,2019-07-26 14:49:40:376
-0.0054049501195549965,-0.12103304266929626,9.7186918258667,-0.005275678426960337,-0.006575618329595753,0.0007786321009618848,156.9244794943189,-175.74232712835692,0,1.0833184719085693,2019-07-26 14:49:40:380
-0.055694691836833954,-0.07553280144929886,9.824060440063477,-0.005542059554549561,-0.004710950436471181,-0.0002868925069228855,157.38050719899715,-175.81747783154887,0,1.0871505737304688,2019-07-26 14:49:40:383
-0.043720945715904236,-0.07792755216360092,9.713902473449707,-0.009005014213209482,-0.006042856074417303,0.0007786321009618848,157.82857360693754,-175.89069261921284,0,1.089608907699585,2019-07-26 14:49:40:386
-0.03414194658398628,-0.051585301756858826,9.776165962219238,-0.005542059554549561,-0.003379044798525057,0.0013113943561403338,158.2686982744116,-175.96568730105557,0,1.0932881832122803,2019-07-26 14:49:40:390
-0.01737869903445244,-0.058769553899765015,9.790534019470215,-0.008205871350590458,-0.006841999457184977,-0.0008196547946106253,158.70276392442975,-176.03772762867425,0,1.0971240997314453,2019-07-26 14:49:40:393
-0.07006318867206573,-0.0731380507349968,9.757007598876953,-0.003943772789014213,-0.003911807053703507,0.0010450132285511093,159.1211432726376,-176.10771500743655,0,1.1001429557800293,2019-07-26 14:49:40:396
-0.03893144428730011,-0.058769553899765015,9.778560638427734,-0.007673109095412008,-0.0036454259261142824,0.0010450132285511093,159.53480315685448,-176.17731622644422,0,1.1032938957214355,2019-07-26 14:49:40:400
-0.13232667744159698,-0.05637480318546295,9.776165962219238,-0.006341202937317235,-0.003911807053703507,0.0007786321009618848,159.92944103959894,-176.24579431421702,0,1.1071350574493408,2019-07-26 14:49:40:403
0.001779298996552825,-0.04200630262494087,9.776165962219238,-0.009005014213209482,-0.005776474946828078,-0.0010860359221998499,153.1318463818948,-176.31472999525693,0,1.1095571517944336,2019-07-26 14:49:40:406
-0.029352447018027306,-0.06116430088877678,9.768980979919434,-0.006341202937317235,-0.006309237202006528,0.0010450132285511093,153.66708518287254,-176.37993534376196,0,1.1132798194885254,2019-07-26 14:49:40:410
-0.01737869903445244,-0.07553280144929886,9.78095531463623,-0.008205871350590458,-0.004178188181292731,0.0007786321009618848,154.19260729863194,-176.4417202314661,0,1.1171154975891113,2019-07-26 14:49:40:413
-0.0724579393863678,0.005888689309358597,9.768980979919434,-0.00607482180972801,-0.0023135202881681594,0.0029096811216756816,154.7006527252033,-169.31253456543516,0,1.1201703548431396,2019-07-26 14:49:40:416
-0.03893144428730011,0.010678188875317574,9.73066520690918,-0.0068739651924956836,-0.008173905615279751,0.0021105377389080077,155.2034985392361,-162.3263274060569,0,1.1233155727386475,2019-07-26 14:49:40:420
-0.012589199468493462,-0.044401053339242935,9.694744110107422,-0.008472252478179683,-0.0028462825433466085,0.0010450132285511093,155.6985541896317,-162.6727260837153,0,1.1271553039550781,2019-07-26 14:49:40:423
-0.0916159376502037,-0.051585301756858826,9.826455116271973,-0.007406727447674133,-0.0012479956477740985,0.0018441566113187831,156.17406788086694,-163.01225718924562,0,1.1295568943023682,2019-07-26 14:49:40:426
0.011358297429978848,-0.04919055476784706,9.713902473449707,-0.005009297299371112,-0.003911807053703507,0.0007786321009618848,149.4527431536151,-163.3451633821532,0,1.1332752704620361,2019-07-26 14:49:40:430
-0.03174719586968422,-0.08271704614162445,9.819271087646484,-0.008738633605768906,-0.004977331564060405,0.0015777754837295584,150.06094129138452,-163.66692542279426,0,1.1367027759552002,2019-07-26 14:49:40:433
-0.06766844540834427,-0.1258225440979004,9.75940227508545,-0.00953777646838793,-0.004444569308881956,0.0013113943561403338,150.65257890158458,-163.97709366849963,0,1.1399152278900146,2019-07-26 14:49:40:436
-0.0916159376502037,-0.08032230287790298,9.778560638427734,-0.011136063233923278,-0.003911807053703507,-0.0005532736670214007,151.22953175830054,-164.28603191460175,0,1.1432855129241943,2019-07-26 14:49:40:440
-0.07485269010066986,-0.030032556504011154,9.771376609802246,-0.003943772789014213,-0.00524371269164963,0.003176062249264906,151.79729429700407,-164.59593853470614,0,1.147127389907837,2019-07-26 14:49:40:443
-0.050905194133520126,-0.0204535573720932,9.843218803405762,-0.007673109095412008,-0.006042856074417303,0.0007786321009618848,152.35644931148087,-164.90033448203266,0,1.1501543521881104,2019-07-26 14:49:40:446
-0.09401068836450577,-0.001295559573918581,9.728270530700684,-0.0068739651924956836,-0.004977331564060405,0.0021105377389080077,152.89912568044784,-165.20096158680954,0,1.1532986164093018,2019-07-26 14:49:40:450
-0.01498394925147295,-0.0659537985920906,9.70192813873291,-0.006341202937317235,-0.004977331564060405,-0.0008196547946106253,153.4404459633304,-165.48778604345512,0,1.1571364402770996,2019-07-26 14:49:40:453
-0.043720945715904236,-0.03482205420732498,9.816876411437988,-0.009271395860947357,-0.004444569308881956,-0.0005532736670214007,153.96713755580828,-165.77270567163984,0,1.1595566272735596,2019-07-26 14:49:40:456
-0.03174719586968422,-0.04919055476784706,9.725875854492188,-0.007673109095412008,-0.0055100938192388545,-0.0005532736670214007,154.4852047534469,-166.04985387105702,0,1.1632750034332275,2019-07-26 14:49:40:460
-0.0652736946940422,-0.051585301756858826,9.800113677978516,-0.008738633605768906,-0.004444569308881956,0.0002458697970194996,154.9888232554032,-166.3209476570109,0,1.1671011447906494,2019-07-26 14:49:40:463
-0.022168198600411415,-0.0922960489988327,9.754612922668457,-0.006341202937317235,-0.004178188181292731,0.0018441566113187831,155.48716381736156,-166.58259203906692,0,1.170175313949585,2019-07-26 14:49:40:466
-0.04132619500160217,-0.0036903093568980694,9.764191627502441,-0.007140346320084909,-0.007108380584774201,0.0013113943561403338,155.9738249834789,-166.84924705268966,0,1.1733181476593018,2019-07-26 14:49:40:470
-0.11316868662834167,-0.008479808457195759,9.804903030395508,-0.005009297299371112,-0.005776474946828078,-0.0008196547946106253,156.44236540438595,-167.1101935371392,0,1.1771490573883057,2019-07-26 14:49:40:473
-0.043720945715904236,-0.08271704614162445,9.761796951293945,-0.00660758406490646,-0.007108380584774201,-0.0002868925069228855,156.909348190481,-167.3573853648798,0,1.1795601844787598,2019-07-26 14:49:40:476
-0.07724744081497192,-0.07792755216360092,9.812087059020996,-0.005275678426960337,-0.0055100938192388545,-0.0008196547946106253,157.3632925554036,-167.60003345472987,0,1.1832854747772217,2019-07-26 14:49:40:480
-0.08682643622159958,-0.08032230287790298,9.747428894042969,-0.007406727447674133,-0.004444569308881956,0.0007786321009618848,157.8067733768311,-167.83700078809258,0,1.1871073246002197,2019-07-26 14:49:40:483
-0.07485269010066986,-0.08511179685592651,9.814481735229492,-0.00607482180972801,-0.005776474946828078,0.002376918866497232,158.2428844221994,-168.06928668043554,0,1.1901471614837646,2019-07-26 14:49:40:486
-0.10358969122171402,-0.07792755216360092,9.749823570251465,-0.009271395860947357,-0.0036454259261142824,-0.0008196547946106253,158.66649691545013,-168.2971021982192,0,1.1932973861694336,2019-07-26 14:49:40:490
-0.09401068836450577,-0.018058806657791138,9.764191627502441,-0.007140346320084909,-0.004977331564060405,0.0015777754837295584,159.08320736732279,-168.52750142767556,0,1.1971368789672852,2019-07-26 14:49:40:493
-0.055694691836833954,-0.10666454583406448,9.675585746765137,-0.004742916171781888,-0.004444569308881956,0.0002458697970194996,159.49555275654075,-168.74367298787408,0,1.1995635032653809,2019-07-26 14:49:40:496
-0.07724744081497192,-0.11145404726266861,9.85040283203125,-0.008205871350590458,-0.0087066678704582,-0.0008196547946106253,159.89847116638387,-168.95412323936915,0,1.203277349472046,2019-07-26 14:49:40:500
-0.03414194658398628,-0.06116430088877678,9.721086502075195,-0.007673109095412008,-0.003379044798525057,0.0002458697970194996,160.29720470172575,-169.1661786920993,0,1.2071120738983154,2019-07-26 14:49:40:503
-0.03414194658398628,-0.03482205420732498,9.764191627502441,-0.0042101539166034384,-0.007108380584774201,0.0007786321009618848,160.68846525594907,-169.3780509094952,0,1.2101473808288574,2019-07-26 14:49:40:506
0.028121545910835266,-0.07553280144929886,9.776165962219238,-0.0068739651924956836,-0.005776474946828078,-0.0016187981773782992,153.87901236137142,-169.58042250569758,0,1.2132925987243652,2019-07-26 14:49:40:510
-0.06048419326543808,-0.022848306223750114,9.831245422363281,-0.0068739651924956836,-0.0017807579029525478,-0.0008196547946106253,154.3947658523073,-169.78467015399303,0,1.2171289920806885,2019-07-26 14:49:40:513
-0.0461156964302063,-0.03961155563592911,9.800113677978516,-0.0042101539166034384,-0.003379044798525057,-0.0002868925069228855,154.90205462646895,-169.98362699172498,0,1.2201664447784424,2019-07-26 14:49:40:516
-0.1179581880569458,-0.02763780578970909,9.721086502075195,-0.008738633605768906,-0.00524371269164963,-2.051134885620096e-05,155.39103670086317,-170.17915115390952,0,1.223315954208374,2019-07-26 14:49:40:520
-0.07724744081497192,-0.05637480318546295,9.816876411437988,-0.009804158116125805,-0.007374761712363427,0.0002458697970194996,155.875787152148,-170.36687646532286,0,1.2271509170532227,2019-07-26 14:49:40:523
-0.01498394925147295,-0.07074330002069473,9.723481178283691,-0.004742916171781888,-0.003112663670935833,-0.0008196547946106253,156.35693128688592,-170.55055324042004,0,1.2295868396759033,2019-07-26 14:49:40:526
-0.06287894397974014,-0.08990129828453064,9.680376052856445,-0.006341202937317235,-0.005776474946828078,0.0005122509408633695,156.8235526515366,-170.72757958994134,0,1.2332963943481445,2019-07-26 14:49:40:530
-0.0724579393863678,-0.07792755216360092,9.742639541625977,-0.005275678426960337,-0.003112663670935833,0.0013113943561403338,157.27914848155476,-170.90286394812202,0,1.2366671562194824,2019-07-26 14:49:40:533
0.04488479346036911,0.005888689309358597,9.82166576385498,-0.006341202937317235,-0.005776474946828078,-0.0013524170497890744,150.53979319918804,-163.88440592527314,0,1.2397222518920898,2019-07-26 14:49:40:536
-0.06048419326543808,-0.06834854930639267,9.747428894042969,-0.0068739651924956836,-0.007907524487690526,-2.051134885620096e-05,151.12346310217484,-164.19731260629123,0,1.243272304534912,2019-07-26 14:49:40:540
-0.06287894397974014,-0.02763780578970909,9.78095531463623,-0.0068739651924956836,-0.003911807053703507,-0.0018851793049675235,151.69431372526543,-164.5089219563548,0,1.2463979721069336,2019-07-26 14:49:40:543
-0.043720945715904236,-0.10426979511976242,9.771376609802246,-0.003943772789014213,-0.006042856074417303,-0.0002868925069228855,152.2564803339297,-164.80574579482249,0,1.2498760223388672,2019-07-26 14:49:40:546
-0.06287894397974014,-0.06355905532836914,9.773771286010742,-0.007939490223001232,-0.004444569308881956,0.0002458697970194996,152.80483616995022,-165.10064725628195,0,1.253312110900879,2019-07-26 14:49:40:550
-0.010194449685513973,-0.03482205420732498,9.804903030395508,-0.007140346320084909,-0.006841999457184977,-0.0005532736670214007,153.34890095438323,-165.39315267028792,0,1.256833791732788,2019-07-26 14:49:40:553
-0.03174719586968422,-0.08511179685592651,9.795323371887207,-0.0068739651924956836,-0.004710950436471181,0.0007786321009618848,153.87907613279694,-165.67406766422957,0,1.2601120471954346,2019-07-26 14:49:40:556
0.03051629476249218,-0.001295559573918581,9.804903030395508,-0.00660758406490646,-0.003112663670935833,0.0005122509408633695,147.20561208881347,-165.95926523169805,0,1.2632646560668945,2019-07-26 14:49:40:560
-0.055694691836833954,-0.07792755216360092,9.807297706604004,-0.006341202937317235,-0.006309237202006528,0.0002458697970194996,147.8561318616893,-166.22982955642044,0,1.2664811611175537,2019-07-26 14:49:40:563
-0.07485269010066986,-0.11384879797697067,9.886323928833008,-0.00607482180972801,-0.006841999457184977,0.0034424436369284556,148.49161450820742,-166.49089985943516,0,1.2698161602020264,2019-07-26 14:49:40:566
-0.10358969122171402,0.010678188875317574,9.728270530700684,-0.005808440682138786,-0.006309237202006528,-0.0002868925069228855,149.11080523542472,-159.5612122486628,0,1.27327299118042,2019-07-26 14:49:40:570
-0.04851044341921806,-0.06834854930639267,9.864771842956543,-0.006341202937317235,-0.004977331564060405,-2.051134885620096e-05,149.72391972308145,-159.96081836209564,0,1.2767281532287598,2019-07-26 14:49:40:573
-0.0652736946940422,-0.12103304266929626,9.761796951293945,-0.00607482180972801,-0.006309237202006528,0.0005122509408633695,150.32269181465892,-160.34651612920413,0,1.2793045043945312,2019-07-26 14:49:40:576
0.028121545910835266,-0.037216804921627045,9.768980979919434,-0.00660758406490646,-0.004444569308881956,0.0015777754837295584,143.7205331767293,-160.73373876729613,0,1.2832975387573242,2019-07-26 14:49:40:580
-0.055694691836833954,-0.08750654757022858,9.768980979919434,-0.008472252478179683,-0.004178188181292731,-0.0010860359221998499,144.4403628053062,-161.10723159749404,0,1.2865936756134033,2019-07-26 14:49:40:583
-0.055694691836833954,-0.018058806657791138,9.749823570251465,-0.007939490223001232,-0.0055100938192388545,-0.0018851793049675235,145.1460416820174,-161.48147752206748,0,1.2899291515350342,2019-07-26 14:49:40:586
-0.0461156964302063,-0.08750654757022858,9.836034774780273,-0.007939490223001232,-0.006309237202006528,0.003176062249264906,145.8389279348432,-161.84016916315645,0,1.2932589054107666,2019-07-26 14:49:40:590
-0.07485269010066986,-0.12103304266929626,9.795323371887207,-0.009271395860947357,-0.003911807053703507,0.0018441566113187831,146.51409780903202,-162.1875364569601,0,1.2964684963226318,2019-07-26 14:49:40:593
-0.04132619500160217,-0.06355905532836914,9.783349990844727,-0.004476535044192663,-0.006309237202006528,-0.0002868925069228855,147.18021748949835,-162.53545991042571,0,1.2999746799468994,2019-07-26 14:49:40:596
-0.04132619500160217,-0.025243056938052177,9.711507797241211,-0.009005014213209482,-0.0055100938192388545,0.00424158701969613,147.8329195993276,-162.87983922286818,0,1.3037974834442139,2019-07-26 14:49:40:600
-0.03893144428730011,-0.07553280144929886,9.812087059020996,-0.008738633605768906,-0.004710950436471181,0.0015777754837295584,148.47256502785012,-163.21184387917714,0,1.3070125579833984,2019-07-26 14:49:40:603
-0.0054049501195549965,-0.037216804921627045,9.749823570251465,-0.0068739651924956836,-0.003112663670935833,0.0010450132285511093,149.10292467292555,-163.54224747818876,0,1.309565544128418,2019-07-26 14:49:40:606
-0.003010200336575508,-0.14019104838371277,9.73066520690918,-0.0068739651924956836,-0.007374761712363427,0.00370882476451768,149.72205627520378,-163.85345460630444,0,1.313295602798462,2019-07-26 14:49:40:610
-0.03174719586968422,-0.0994802936911583,9.862377166748047,-0.004476535044192663,-0.006575618329595753,0.002643299994086457,150.32520223969695,-164.16395869192831,0,1.3167510032653809,2019-07-26 14:49:40:613
-0.010194449685513973,-0.0731380507349968,9.788139343261719,-0.008472252478179683,-0.007907524487690526,0.0021105377389080077,150.91897277013217,-164.4705443689655,0,1.3200573921203613,2019-07-26 14:49:40:616
-0.12993194162845612,-0.037216804921627045,9.75940227508545,-0.006341202937317235,-0.004710950436471181,-0.0010860359221998499,151.4862119621249,-164.77558730164498,0,1.3233611583709717,2019-07-26 14:49:40:620
-0.05808944255113602,-0.037216804921627045,9.795323371887207,-0.007406727447674133,-0.006042856074417303,0.0063726360404099255,152.05084161353707,-165.0743128366645,0,1.3267488479614258,2019-07-26 14:49:40:623
-0.019773447886109352,-0.03482205420732498,9.675585746765137,-0.009271395860947357,-0.007108380584774201,0.0021105377389080077,152.60880663255088,-165.36697601436416,0,1.3300652503967285,2019-07-26 14:49:40:626
-0.06048419326543808,-0.058769553899765015,9.836034774780273,-0.005009297299371112,-0.0023135202881681594,0.0021105377389080077,153.15000206359298,-165.65188477167024,0,1.3332829475402832,2019-07-26 14:49:40:630
-0.05329994484782219,-0.03961155563592911,9.924640655517578,-0.00953777646838793,-0.006042856074417303,0.003176062249264906,153.68202397680992,-165.9324173441167,0,1.3367488384246826,2019-07-26 14:49:40:633
-0.01498394925147295,-0.07074330002069473,9.828849792480469,-0.00660758406490646,-0.004710950436471181,0.0018441566113187831,154.20751552072434,-166.20428857107348,0,1.340071678161621,2019-07-26 14:49:40:636
-0.010194449685513973,-0.044401053339242935,9.812087059020996,-0.0068739651924956836,-0.003112663670935833,0.002376918866497232,154.7227364738756,-166.47377666286087,0,1.3432862758636475,2019-07-26 14:49:40:640
-0.08203694224357605,-0.07074330002069473,9.64924430847168,-0.007673109095412008,-0.007108380584774201,0.0013113943561403338,155.21992106447973,-166.73440870926285,0,1.346747636795044,2019-07-26 14:49:40:643
0.006568798329681158,-0.08032230287790298,9.857586860656738,-0.009005014213209482,-0.006042856074417303,0.0013113943561403338,148.51741483714324,-166.9887016930953,0,1.3500738143920898,2019-07-26 14:49:40:646
-0.007799699902534485,-0.07553280144929886,9.836034774780273,-0.005808440682138786,-0.009505811253225874,0.00424158701969613,149.14786296369738,-167.2390862388342,0,1.3532683849334717,2019-07-26 14:49:40:650
-0.09401068836450577,-0.09708555042743683,9.776165962219238,-0.009005014213209482,-0.005776474946828078,0.0005122509408633695,149.75501102422675,-167.48117204079946,0,1.3567352294921875,2019-07-26 14:49:40:653
-0.08682643622159958,-0.08271704614162445,9.807297706604004,-0.008738633605768906,-0.0028462825433466085,0.0034424436369284556,150.35029616865208,-167.72025617127335,0,1.3600525856018066,2019-07-26 14:49:40:656
-0.08203694224357605,-0.010874558240175247,9.795323371887207,-0.007406727447674133,-0.007907524487690526,0.002376918866497232,150.93512991450882,-167.96323324321781,0,1.363288164138794,2019-07-26 14:49:40:660
-0.1371161788702011,-0.0659537985920906,9.75940227508545,-0.007140346320084909,-0.006042856074417303,-2.051134885620096e-05,151.5015045784028,-168.19483514487416,0,1.3667538166046143,2019-07-26 14:49:40:663
-0.09640543907880783,-0.051585301756858826,9.857586860656738,-0.008205871350590458,-0.0023135202881681594,0.0013113943561403338,152.06071813393055,-168.42334524719647,0,1.3702189922332764,2019-07-26 14:49:40:666
-0.06048419326543808,-0.08750654757022858,9.773771286010742,-0.005542059554549561,-0.006309237202006528,0.003176062249264906,152.61350650292036,-168.6436579873222,0,1.373307228088379,2019-07-26 14:49:40:670
-0.04851044341921806,-0.09469079971313477,9.709113121032715,-0.006341202937317235,-0.007907524487690526,0.0007786321009618848,153.15721235980664,-168.85824496009866,0,1.3771390914916992,2019-07-26 14:49:40:673
-0.0724579393863678,-0.07074330002069473,9.893508911132812,-0.00660758406490646,-0.0087066678704582,0.0018441566113187831,153.68695842278504,-169.0719129791371,0,1.3797626495361328,2019-07-26 14:49:40:676
-0.0724579393863678,-0.046795804053545,9.831245422363281,-0.009804158116125805,-0.002047139030541772,-0.0002868925069228855,154.20520805434387,-169.28294065497258,0,1.383540391921997,2019-07-26 14:49:40:680
-0.10119494050741196,-0.06116430088877678,9.778560638427734,-0.007673109095412008,-0.0007152333925956494,0.0007786321009618848,154.70939143998777,-169.48855006439604,0,1.3871710300445557,2019-07-26 14:49:40:683
-0.06287894397974014,-0.0731380507349968,9.773771286010742,-0.00607482180972801,-0.006575618329595753,0.0034424436369284556,155.20880284804855,-169.689306892424,0,1.3898017406463623,2019-07-26 14:49:40:686
-0.043720945715904236,-0.08990129828453064,9.800113677978516,-0.009804158116125805,-0.005776474946828078,-0.0013524170497890744,155.70072929698057,-169.88294732393342,0,1.3935468196868896,2019-07-26 14:49:40:690
-0.1179581880569458,-0.046795804053545,9.745034217834473,-0.00660758406490646,-0.009772191860666447,-0.0002868925069228855,156.17519637748688,-170.07819561502976,0,1.3978326320648193,2019-07-26 14:49:40:694
-0.0916159376502037,-0.03482205420732498,9.804903030395508,-0.005009297299371112,-0.006309237202006528,0.0018441566113187831,156.64179004501725,-170.27192319091208,0,1.4001038074493408,2019-07-26 14:49:40:696
-0.06287894397974014,-0.06355905532836914,9.826455116271973,-0.010336920371304254,-0.003379044798525057,0.0018441566113187831,157.10231674240777,-170.45694662715923,0,1.4037671089172363,2019-07-26 14:49:40:700
-0.0461156964302063,-0.037216804921627045,9.704322814941406,-0.00607482180972801,-0.007108380584774201,-0.0013524170497890744,157.5562219335997,-170.64221919777674,0,1.4072670936584473,2019-07-26 14:49:40:704
-0.0006154506700113416,-0.04919055476784706,9.757007598876953,-0.006341202937317235,-0.006575618329595753,0.0002458697970194996,158.0059611366182,-170.82269510010863,0,1.409801959991455,2019-07-26 14:49:40:706
-0.11077393591403961,-0.08990129828453064,9.802508354187012,-0.008738633605768906,-0.004710950436471181,-0.0021515604325567485,158.4338786284255,-170.99390364166584,0,1.4135282039642334,2019-07-26 14:49:40:710
-0.07724744081497192,-0.08511179685592651,9.783349990844727,-0.006341202937317235,-0.00524371269164963,-2.051134885620096e-05,158.85722875650623,-171.16275622029696,0,1.4171807765960693,2019-07-26 14:49:40:713
-0.0988001897931099,-0.046795804053545,9.83842945098877,-0.007673109095412008,-0.0036454259261142824,-0.0013524170497890744,159.269116476978,-171.33291508623893,0,1.419816493988037,2019-07-26 14:49:40:716
-0.05329994484782219,-0.025243056938052177,9.713902473449707,-0.008738633605768906,-0.004710950436471181,-0.0024179416901831353,159.67843617305445,-171.50144333406277,0,1.4235575199127197,2019-07-26 14:49:40:720
-0.01498394925147295,-0.03482205420732498,9.670796394348145,-0.007140346320084909,-0.0023135202881681594,-0.00268432281777236,160.08356251721207,-171.66583605324448,0,1.4271798133850098,2019-07-26 14:49:40:723
-0.012589199468493462,-0.0204535573720932,9.73066520690918,-0.005808440682138786,-0.004178188181292731,0.00370882476451768,160.4810247799592,-171.82925422350945,0,1.4298057556152344,2019-07-26 14:49:40:726
-0.06766844540834427,-0.08032230287790298,9.752218246459961,-0.009804158116125805,-0.004444569308881956,-0.0010860359221998499,160.86438654160716,-171.98117231741972,0,1.4335458278656006,2019-07-26 14:49:40:730
-0.04851044341921806,-0.08990129828453064,9.747428894042969,-0.00607482180972801,-0.007374761712363427,-0.0005532736670214007,161.2431573229407,-172.12952938815218,0,1.4377994537353516,2019-07-26 14:49:40:734
-0.02456294745206833,-0.1258225440979004,9.754612922668457,-0.011668825489101725,-0.004444569308881956,-0.0021515604325567485,161.61597362385086,-172.2706754759787,0,1.440063238143921,2019-07-26 14:49:40:736
-0.029352447018027306,-0.09469079971313477,9.785744667053223,-0.010070538723566379,-0.004977331564060405,0.0010450132285511093,161.9812421813856,-172.41209969324595,0,1.4437315464019775,2019-07-26 14:49:40:740
-0.07006318867206573,-0.08032230287790298,9.804903030395508,-0.005275678426960337,-0.00524371269164963,-0.0008196547946106253,162.33446759011022,-172.55342565898235,0,1.447258710861206,2019-07-26 14:49:40:744
-0.019773447886109352,-0.051585301756858826,9.706717491149902,-0.008205871350590458,-0.00524371269164963,-0.0008196547946106253,162.68619145302358,-172.69509752962193,0,1.4497976303100586,2019-07-26 14:49:40:746
-0.09640543907880783,-0.09469079971313477,9.721086502075195,-0.008738633605768906,-0.006309237202006528,-0.0016187981773782992,163.02243061038897,-172.8281961133737,0,1.453542947769165,2019-07-26 14:49:40:750
-0.036536697298288345,-0.015664057806134224,9.723481178283691,-0.008738633605768906,-0.006575618329595753,-0.003483466200540034,163.3592473844358,-172.96769810249612,0,1.4577984809875488,2019-07-26 14:49:40:754
-0.0461156964302063,-0.04919055476784706,9.8096923828125,-0.0068739651924956836,-0.004977331564060405,-0.0002868925069228855,163.68730936229863,-173.10172259784807,0,1.460066556930542,2019-07-26 14:49:40:756
-0.07964219152927399,-0.046795804053545,9.78095531463623,-0.007673109095412008,-0.004178188181292731,0.0005122509408633695,164.00510222599632,-173.23260878832014,0,1.4637730121612549,2019-07-26 14:49:40:760
-0.06766844540834427,-0.044401053339242935,9.764191627502441,-0.007406727447674133,-0.004178188181292731,-0.0008196547946106253,164.3178812080875,-173.3612879082412,0,1.4672784805297852,2019-07-26 14:49:40:764
-0.0461156964302063,-0.0922960489988327,9.768980979919434,-0.005808440682138786,-0.0055100938192388545,0.0021105377389080077,164.62689432031425,-173.4824136374068,0,1.4697999954223633,2019-07-26 14:49:40:766
-0.01737869903445244,-0.05398005247116089,9.749823570251465,-0.008472252478179683,-0.004977331564060405,0.0005122509408633695,164.93335867985513,-173.6046426320695,0,1.4735383987426758,2019-07-26 14:49:40:770
-0.01498394925147295,-0.046795804053545,9.752218246459961,-0.006341202937317235,-0.0087066678704582,-0.0016187981773782992,165.2350148983707,-173.72553332405008,0,1.4778013229370117,2019-07-26 14:49:40:774
-0.050905194133520126,-0.12103304266929626,9.709113121032715,-0.004742916171781888,-0.004710950436471181,-0.0008196547946106253,165.52490672184263,-173.8361342925003,0,1.4800701141357422,2019-07-26 14:49:40:776
-0.08922118693590164,-0.022848306223750114,9.733059883117676,-0.007673109095412008,-0.0055100938192388545,-0.0008196547946106253,165.80504584129383,-173.95513217538297,0,1.4837591648101807,2019-07-26 14:49:40:780
-0.10837918519973755,-0.06355905532836914,9.819271087646484,-0.007140346320084909,-0.004444569308881956,-0.0010860359221998499,166.07717448724938,-174.06720336383987,0,1.4872732162475586,2019-07-26 14:49:40:784
-0.09401068836450577,-0.06355905532836914,9.776165962219238,-0.007140346320084909,-0.007108380584774201,-0.0008196547946106253,166.34561504059727,-174.1774016123116,0,1.4897866249084473,2019-07-26 14:49:40:786
-0.07964219152927399,-0.08271704614162445,9.8096923828125,-0.005542059554549561,-0.006042856074417303,-2.051134885620096e-05,166.6106700544137,-174.28302605471242,0,1.4935309886932373,2019-07-26 14:49:40:790
-0.08682643622159958,-0.030032556504011154,9.771376609802246,-0.005808440682138786,-0.0036454259261142824,-0.0005532736670214007,166.86898579129442,-174.3927102924592,0,1.4970057010650635,2019-07-26 14:49:40:793
-0.0461156964302063,-0.05398005247116089,9.658823013305664,-0.005275678426960337,-0.006042856074417303,-2.051134885620096e-05,167.1269996903789,-174.49769707426455,0,1.49955415725708,2019-07-26 14:49:40:796
-0.03893144428730011,-0.07074330002069473,9.74024486541748,-0.008738633605768906,-0.0036454259261142824,-0.0018851793049675235,167.38064640701648,-174.59758219435787,0,1.503300666809082,2019-07-26 14:49:40:800
-0.01498394925147295,-0.0731380507349968,9.85040283203125,-0.005808440682138786,-0.0055100938192388545,-2.051134885620096e-05,167.63235626766763,-174.6959988104404,0,1.5067458152770996,2019-07-26 14:49:40:803
-0.03414194658398628,-0.02763780578970909,9.735454559326172,-0.005542059554549561,-0.006042856074417303,-2.051134885620096e-05,167.87673913177088,-174.7978639665888,0,1.5098364353179932,2019-07-26 14:49:40:806
-0.06766844540834427,-0.02763780578970909,9.749823570251465,-0.006341202937317235,-0.006042856074417303,0.0002458697970194996,168.1124104432604,-174.89744197148198,0,1.5132527351379395,2019-07-26 14:49:40:809
-0.05329994484782219,-0.04200630262494087,9.711507797241211,-0.00660758406490646,-0.006309237202006528,-0.0016187981773782992,168.34510223955638,-174.99324937817488,0,1.5167222023010254,2019-07-26 14:49:40:813
0.006568798329681158,-0.03242730721831322,9.776165962219238,-0.00607482180972801,-0.005776474946828078,0.0010450132285511093,161.37996950196396,-175.0885324713158,0,1.5198032855987549,2019-07-26 14:49:40:816
-0.036536697298288345,-0.06834854930639267,9.776165962219238,-0.00660758406490646,-0.006042856074417303,-0.0008196547946106253,161.74925675587548,-175.17747190574997,0,1.5232493877410889,2019-07-26 14:49:40:819
0.00417404854670167,-0.037216804921627045,9.721086502075195,-0.004742916171781888,-0.006575618329595753,-0.003483466200540034,154.9160405145216,-175.2686144116189,0,1.526707649230957,2019-07-26 14:49:40:823
0.04488479346036911,-0.08511179685592651,9.766586303710938,-0.007140346320084909,-0.003112663670935833,-0.0018851793049675235,148.22352525761735,-175.35201917374093,0,1.5297930240631104,2019-07-26 14:49:40:826
-0.03893144428730011,-0.018058806657791138,9.826455116271973,-0.006341202937317235,-0.00524371269164963,0.0002458697970194996,148.85553047363828,-175.44164457391463,0,1.5332427024841309,2019-07-26 14:49:40:829
-0.01498394925147295,-0.04200630262494087,9.728270530700684,-0.005808440682138786,-0.004977331564060405,-0.0010860359221998499,149.47762277342534,-175.5267341719566,0,1.5367059707641602,2019-07-26 14:49:40:833
-0.026957698166370392,-0.001295559573918581,9.785744667053223,-0.00660758406490646,-0.003911807053703507,0.0010450132285511093,150.08558968963987,-175.6149057113735,0,1.5397841930389404,2019-07-26 14:49:40:836
-0.0054049501195549965,-0.07553280144929886,9.871955871582031,-0.005542059554549561,-0.004178188181292731,-0.0005532736670214007,150.6840611540058,-175.6927648098085,0,1.5432395935058594,2019-07-26 14:49:40:839
0.04967429116368294,-0.11145404726266861,9.73066520690918,-0.00607482180972801,-0.004444569308881956,0.0002458697970194996,144.07709422834824,-175.7646032396358,0,1.546703815460205,2019-07-26 14:49:40:843
-0.022168198600411415,-0.11145404726266861,9.795323371887207,-0.006341202937317235,-0.006309237202006528,-0.0010860359221998499,144.79405260437457,-175.83517400990985,0,1.549790859222412,2019-07-26 14:49:40:846
-0.0054049501195549965,-0.08271704614162445,9.792928695678711,-0.00607482180972801,-0.006575618329595753,-0.0008196547946106253,145.49881921093413,-175.90760903473827,0,1.553257942199707,2019-07-26 14:49:40:849
-0.026957698166370392,-0.0659537985920906,9.733059883117676,-0.0068739651924956836,-0.002047139030541772,-0.0008196547946106253,146.1860682293158,-175.98035135425278,0,1.5567312240600586,2019-07-26 14:49:40:853
-0.029352447018027306,-0.030032556504011154,9.778560638427734,-0.0068739651924956836,-0.003911807053703507,-0.0013524170497890744,146.8595814020195,-176.056040131719,0,1.5598008632659912,2019-07-26 14:49:40:856
-0.02456294745206833,-0.0922960489988327,9.778560638427734,-0.007673109095412008,-0.007374761712363427,0.0015777754837295584,147.52094751795082,-176.12260951091804,0,1.5632691383361816,2019-07-26 14:49:40:860
0.001779298996552825,-0.04919055476784706,9.819271087646484,-0.003677391661424989,-0.0023135202881681594,0.0013113943561403338,140.97118613584067,-176.1937016353199,0,1.56673264503479,2019-07-26 14:49:40:863
-0.022168198600411415,-0.05637480318546295,9.792928695678711,-0.005009297299371112,-0.0036454259261142824,0.0010450132285511093,141.7498024983609,-176.2623596859729,0,1.5698304176330566,2019-07-26 14:49:40:866
-0.003010200336575508,-0.025243056938052177,9.752218246459961,-0.007140346320084909,-0.004178188181292731,-0.0013524170497890744,142.51525388500414,-176.3327772404169,0,1.5732452869415283,2019-07-26 14:49:40:869
0.07362178713083267,-0.058769553899765015,9.67319107055664,-0.005275678426960337,-0.001514376775363323,0.003176062249264906,136.0739648517452,-176.39813292409096,0,1.576711654663086,2019-07-26 14:49:40:873
0.03051629476249218,-0.12821729481220245,9.819271087646484,-0.008205871350590458,-0.003911807053703507,0.0007786321009618848,129.75672435308402,-176.4537867874435,0,1.579796314239502,2019-07-26 14:49:40:876
0.04249004274606705,-0.08511179685592651,9.82166576385498,-0.007140346320084909,-0.0036454259261142824,0.0002458697970194996,123.56725247971676,-176.5133997604515,0,1.5832417011260986,2019-07-26 14:49:40:879
0.013753047212958336,-0.0994802936911583,9.752218246459961,-0.007406727447674133,-0.003911807053703507,0.005839873785231477,117.49828478073681,-176.57000141346762,0,1.5867078304290771,2019-07-26 14:49:40:883
-0.08682643622159958,-0.07074330002069473,9.802508354187012,-0.008472252478179683,-0.0023135202881681594,0.0013113943561403338,118.73857089557937,-176.62886102281996,0,1.589799165725708,2019-07-26 14:49:40:886
-0.01498394925147295,-0.0659537985920906,9.747428894042969,-0.008205871350590458,-0.006575618329595753,0.00370882476451768,119.96331763040519,-176.6869334001202,0,1.5932650566101074,2019-07-26 14:49:40:890
-0.026957698166370392,-0.07074330002069473,9.725875854492188,-0.009271395860947357,-0.003911807053703507,0.0021105377389080077,121.16163841057697,-176.7430506692241,0,1.5967402458190918,2019-07-26 14:49:40:893
0.013753047212958336,-0.018058806657791138,9.749823570251465,-0.00953777646838793,8.39100633179284e-05,0.00424158701969613,115.14000749629585,-176.8044113677824,0,1.5998320579528809,2019-07-26 14:49:40:896
0.04727954417467117,-0.0731380507349968,9.836034774780273,-0.007939490223001232,-0.003379044798525057,0.004774349274874579,109.24336219209493,-176.85828299444046,0,1.603240728378296,2019-07-26 14:49:40:899
-0.022168198600411415,-0.07074330002069473,9.888718605041504,-0.005542059554549561,-0.004178188181292731,0.003176062249264906,110.65674920380677,-176.91182784617368,0,1.6067492961883545,2019-07-26 14:49:40:903
0.001779298996552825,-0.05398005247116089,9.78095531463623,-0.007939490223001232,-0.001514376775363323,0.002376918866497232,104.8440857438634,-176.96588798299416,0,1.6098430156707764,2019-07-26 14:49:40:906
0.04249004274606705,-0.05637480318546295,9.78095531463623,-0.004476535044192663,-0.0036454259261142824,0.005040730402463803,99.15288249350503,-177.01910539776193,0,1.613265037536621,2019-07-26 14:49:40:910
0.00417404854670167,-0.08990129828453064,9.826455116271973,-0.007939490223001232,-0.007108380584774201,0.003176062249264906,93.57169638617225,-177.0666930171776,0,1.616734504699707,2019-07-26 14:49:40:913
0.025726795196533203,-0.11624354124069214,9.864771842956543,-0.007406727447674133,-0.0036454259261142824,0.003975205892106905,88.10388409435556,-177.11057021424116,0,1.6198277473449707,2019-07-26 14:49:40:916
-0.06048419326543808,-0.025243056938052177,9.867166519165039,-0.005542059554549561,-0.003112663670935833,0.005040730402463803,89.93538088587697,-177.1643613102579,0,1.6232531070709229,2019-07-26 14:49:40:919
-0.010194449685513973,-0.10426979511976242,9.757007598876953,-0.008205871350590458,-0.0028462825433466085,0.005307111530053027,91.73602992860854,-177.20723149441125,0,1.6267192363739014,2019-07-26 14:49:40:923
0.020937297493219376,-0.05637480318546295,9.697138786315918,-0.005009297299371112,-0.004444569308881956,0.002643299994086457,86.30455503598576,-177.2555555306082,0,1.6298108100891113,2019-07-26 14:49:40:926
-0.036536697298288345,-0.10905929654836655,9.8096923828125,-0.007939490223001232,-0.004977331564060405,0.005839873785231477,88.17515450773847,-177.2961761741457,0,1.6332406997680664,2019-07-26 14:49:40:929
-0.05808944255113602,-0.05398005247116089,9.783349990844727,-0.00660758406490646,-0.00524371269164963,0.007438160550766825,90.00586793485309,-177.3426442676251,0,1.6367063522338867,2019-07-26 14:49:40:933
-0.029352447018027306,-0.10426979511976242,9.68995475769043,-0.007673109095412008,-0.002047139030541772,0.00370882476451768,91.80263443185402,-177.38213046012385,0,1.6397948265075684,2019-07-26 14:49:40:936
-0.07006318867206573,-0.06355905532836914,9.776165962219238,-0.005275678426960337,-0.005776474946828078,0.0034424436369284556,93.55949302513379,-177.42601166457396,0,1.643259048461914,2019-07-26 14:49:40:940
-0.08682643622159958,-0.04919055476784706,9.845613479614258,-0.0068739651924956836,0.000350291215289121,0.00424158701969613,95.27812961164916,-177.47042751718712,0,1.6467275619506836,2019-07-26 14:49:40:943
-0.026957698166370392,-0.030032556504011154,9.66121768951416,-0.0068739651924956836,-0.004977331564060405,0.005839873785231477,96.97023480070611,-177.5162619033135,0,1.6498234272003174,2019-07-26 14:49:40:946
-0.026957698166370392,-0.0922960489988327,9.828849792480469,-0.004742916171781888,-0.0012479956477740985,0.003176062249264906,98.6279281470855,-177.55426075316703,0,1.6532618999481201,2019-07-26 14:49:40:950
-0.029352447018027306,-0.02763780578970909,9.886323928833008,-0.007406727447674133,-0.003112663670935833,0.007970922805945274,100.25257429645707,-177.5985278769503,0,1.6567344665527344,2019-07-26 14:49:40:953
-0.010194449685513973,-0.05637480318546295,9.75940227508545,-0.0068739651924956836,-0.0012479956477740985,0.007438160550766825,101.84654283922598,-177.63874267865333,0,1.6598315238952637,2019-07-26 14:49:40:956
-0.029352447018027306,0.0010991900926455855,9.764191627502441,-0.007140346320084909,-0.005776474946828078,0.0029096811216756816,103.4072772237589,-170.48472473989355,0,1.6632537841796875,2019-07-26 14:49:40:959
-0.02456294745206833,-0.001295559573918581,9.752218246459961,-0.0068739651924956836,-0.003911807053703507,0.005307111530053027,104.93700684241,-170.67354009125762,0,1.6667201519012451,2019-07-26 14:49:40:963
-0.0724579393863678,-0.04200630262494087,9.697138786315918,-0.00660758406490646,-0.000981614520184874,0.002376918866497232,106.42987411279461,-170.85396352578294,0,1.6697978973388672,2019-07-26 14:49:40:966
-0.055694691836833954,-0.03961155563592911,9.828849792480469,-0.008205871350590458,-0.006309237202006528,0.0013113943561403338,107.89600526533006,-171.03067695063007,0,1.6732468605041504,2019-07-26 14:49:40:969
-0.036536697298288345,-0.058769553899765015,9.747428894042969,-0.007406727447674133,-0.003379044798525057,0.0010450132285511093,109.33444672112135,-171.20171476683265,0,1.676708698272705,2019-07-26 14:49:40:973
-0.10358969122171402,-0.03482205420732498,9.795323371887207,-0.007673109095412008,-0.00524371269164963,0.0034424436369284556,110.73654687091127,-171.37227932986363,0,1.6797897815704346,2019-07-26 14:49:40:976
-0.03174719586968422,-0.044401053339242935,9.771376609802246,-0.010869682626482703,-0.001514376775363323,0.0013113943561403338,112.11838666714195,-171.5375179550749,0,1.6832449436187744,2019-07-26 14:49:40:979
-0.07964219152927399,-0.07553280144929886,9.776165962219238,-0.007673109095412008,-0.004710950436471181,0.0034424436369284556,113.46760141368443,-171.69641968601198,0,1.686713695526123,2019-07-26 14:49:40:983
-0.08682643622159958,-0.044401053339242935,9.752218246459961,-0.008205871350590458,0.00141581575815531,-0.0016187981773782992,114.78780143277974,-171.85584915976466,0,1.6898062229156494,2019-07-26 14:49:40:986
-0.07485269010066986,-0.008479808457195759,9.737849235534668,-0.006341202937317235,-0.0055100938192388545,0.0021105377389080077,116.08430853485676,-172.0165013495175,0,1.6932690143585205,2019-07-26 14:49:40:990
-0.0652736946940422,-0.10905929654836655,9.819271087646484,-0.009005014213209482,-0.0028462825433466085,0.0013113943561403338,117.35555940036052,-172.1616905253132,0,1.6967380046844482,2019-07-26 14:49:40:993
-0.0461156964302063,-0.06116430088877678,9.785744667053223,-0.005275678426960337,-0.0036454259261142824,0.003975205892106905,118.60368113999144,-172.31037827211324,0,1.6998307704925537,2019-07-26 14:49:40:996
-0.1179581880569458,-0.06116430088877678,9.733059883117676,-0.008738633605768906,-0.0012479956477740985,-2.051134885620096e-05,119.81796129840986,-172.4552833144119,0,1.7032675743103027,2019-07-26 14:49:41:000
-0.04851044341921806,-0.03961155563592911,9.745034217834473,-0.00660758406490646,-0.003911807053703507,-0.00268432281777236,121.01665896067102,-172.6002340426707,0,1.706732988357544,2019-07-26 14:49:41:003
-0.11077393591403961,-0.025243056938052177,9.68995475769043,-0.006341202937317235,-0.004710950436471181,-0.0029507039453615844,122.18404579478172,-172.7441412719047,0,1.7098305225372314,2019-07-26 14:49:41:006
-0.10837918519973755,-0.008479808457195759,9.85040283203125,-0.005542059554549561,-0.006309237202006528,-0.0024179416901831353,123.32896736654905,-172.8872091673706,0,1.7132458686828613,2019-07-26 14:49:41:009
-0.10598443448543549,-0.10426979511976242,9.843218803405762,-0.008472252478179683,-0.003112663670935833,0.0002458697970194996,124.45065767717222,-173.01567303068325,0,1.716722011566162,2019-07-26 14:49:41:013
-0.0724579393863678,-0.025243056938052177,9.807297706604004,-0.00607482180972801,-0.003112663670935833,-0.004548990710896932,125.55372087880802,-173.15135149488887,0,1.7198255062103271,2019-07-26 14:49:41:016
-0.050905194133520126,-0.0731380507349968,9.802508354187012,-0.009005014213209482,-0.004977331564060405,-0.004815371838486157,126.6376530594019,-173.27804268157757,0,1.7232511043548584,2019-07-26 14:49:41:019
-0.07964219152927399,-0.051585301756858826,9.773771286010742,-0.007673109095412008,-0.00524371269164963,-0.0008196547946106253,127.69658058755981,-173.40494425892487,0,1.7267084121704102,2019-07-26 14:49:41:023
-0.10119494050741196,-0.04919055476784706,9.83842945098877,-0.008738633605768906,-0.003911807053703507,-0.0029507039453615844,128.73154087883418,-173.5296014167091,0,1.729795217514038,2019-07-26 14:49:41:026
-0.15387943387031555,-0.037216804921627045,9.826455116271973,-0.0068739651924956836,-0.003112663670935833,-0.0013524170497890744,129.73957290913117,-173.65333088431458,0,1.7332630157470703,2019-07-26 14:49:41:030
-0.0461156964302063,-0.11384879797697067,9.745034217834473,-0.0042101539166034384,-0.001514376775363323,-0.0021515604325567485,130.73965381725301,-173.76605713708008,0,1.7367329597473145,2019-07-26 14:49:41:033
-0.07006318867206573,-0.04200630262494087,9.843218803405762,-0.007140346320084909,-0.003112663670935833,-0.0018851793049675235,131.717244639704,-173.8846063791554,0,1.7398242950439453,2019-07-26 14:49:41:036
-0.1514846831560135,-0.015664057806134224,9.704322814941406,-0.009804158116125805,-0.004178188181292731,-0.004548990710896932,132.6658161437009,-174.00318102630285,0,1.7432458400726318,2019-07-26 14:49:41:039
-0.1443004310131073,-0.05398005247116089,9.70192813873291,-0.007673109095412008,-0.007374761712363427,-0.0061472774764322795,133.59693627795548,-174.1152031103365,0,1.7468171119689941,2019-07-26 14:49:41:043
-0.09640543907880783,-0.015664057806134224,9.764191627502441,-0.009005014213209482,-0.003379044798525057,-0.00268432281777236,134.51425506889606,-174.22953852597755,0,1.7498276233673096,2019-07-26 14:49:41:046
-0.08203694224357605,-0.08990129828453064,9.785744667053223,-0.007140346320084909,-0.0055100938192388545,-0.004548990710896932,135.4154297449151,-174.33303901633533,0,1.7532734870910645,2019-07-26 14:49:41:050
-0.09640543907880783,-0.0036903093568980694,9.776165962219238,-0.011136063233923278,-0.0036454259261142824,-0.007212801986789179,136.29652988545521,-174.44378117750992,0,1.75673508644104,2019-07-26 14:49:41:053
-0.11556343734264374,-0.08990129828453064,9.802508354187012,-0.0068739651924956836,-0.002579901415757384,-0.004282609583307707,137.15753826506648,-174.54320337968431,0,1.7598259449005127,2019-07-26 14:49:41:056
-0.08682643622159958,-0.0659537985920906,9.761796951293945,-0.00953777646838793,-0.004444569308881956,-0.003483466200540034,138.0050497106664,-174.64276397584212,0,1.763249158859253,2019-07-26 14:49:41:059
-0.055694691836833954,-0.08990129828453064,9.795323371887207,-0.00607482180972801,-0.006575618329595753,-0.00561451522125383,138.8397128765305,-174.73820966383806,0,1.7667148113250732,2019-07-26 14:49:41:063
-0.055694691836833954,-0.044401053339242935,9.792928695678711,-0.008738633605768906,-0.004178188181292731,-0.004548990710896932,139.6571258323941,-174.83673520557062,0,1.7698018550872803,2019-07-26 14:49:41:066
-0.10119494050741196,-0.0731380507349968,9.74024486541748,-0.0068739651924956836,-0.000981614520184874,-0.0024179416901831353,140.45226768134498,-174.93007074686076,0,1.77323579788208,2019-07-26 14:49:41:069
-0.055694691836833954,-0.044401053339242935,9.795323371887207,-0.010070538723566379,-0.005776474946828078,-0.003217085072950809,141.23783167373415,-175.02431416733515,0,1.7767035961151123,2019-07-26 14:49:41:073
-0.10119494050741196,-0.02763780578970909,9.749823570251465,-0.008205871350590458,-0.003379044798525057,-0.0010860359221998499,142.00176980613892,-175.11915169350075,0,1.7798025608062744,2019-07-26 14:49:41:076
-0.10358969122171402,-0.058769553899765015,9.663612365722656,-0.009005014213209482,-0.004710950436471181,-0.004282609583307707,142.75036537640625,-175.20805230795722,0,1.7832586765289307,2019-07-26 14:49:41:080
-0.08682643622159958,-0.09469079971313477,9.788139343261719,-0.007939490223001232,-0.003112663670935833,-0.0024179416901831353,143.48579982390123,-175.29125918116793,0,1.7867283821105957,2019-07-26 14:49:41:083
-0.11316868662834167,-0.09469079971313477,9.757007598876953,-0.009271395860947357,-0.006575618329595753,-0.0029507039453615844,144.20393704236687,-175.3727006864479,0,1.7898261547088623,2019-07-26 14:49:41:086
-0.07964219152927399,-0.046795804053545,9.783349990844727,-0.0042101539166034384,-0.006575618329595753,-0.0037498473281292583,144.9118023664455,-175.45895096048434,0,1.7932720184326172,2019-07-26 14:49:41:090
-0.050905194133520126,-0.03482205420732498,9.761796951293945,-0.007406727447674133,-0.0055100938192388545,0.0005122509408633695,145.60866016467457,-175.54424672426387,0,1.7967286109924316,2019-07-26 14:49:41:093
-0.06766844540834427,-0.015664057806134224,9.790534019470215,-0.004476535044192663,-0.006309237202006528,0.0015777754837295584,146.28966615435172,-175.6307485148357,0,1.7998313903808594,2019-07-26 14:49:41:096
-0.15627418458461761,-0.10426979511976242,9.721086502075195,-0.007939490223001232,-0.0055100938192388545,-0.003217085072950809,146.94651600982223,-175.70431094498127,0,1.803267478942871,2019-07-26 14:49:41:100
-0.06766844540834427,-0.08750654757022858,9.725875854492188,-0.006341202937317235,-0.006309237202006528,-0.004548990710896932,147.60084036176798,-175.7786813190709,0,1.806731939315796,2019-07-26 14:49:41:103
-0.06048419326543808,-0.13061204552650452,9.792928695678711,-0.009005014213209482,-0.003379044798525057,-0.0037498473281292583,148.24233870074752,-175.8462458563694,0,1.8098552227020264,2019-07-26 14:49:41:106
0.018542546778917313,-0.13300679624080658,9.682770729064941,-0.008738633605768906,-0.0028462825433466085,-0.0021515604325567485,141.6802296012678,-175.91191326534684,0,1.8132543563842773,2019-07-26 14:49:41:109
-0.11556343734264374,-0.10666454583406448,9.790534019470215,-0.009271395860947357,-0.004444569308881956,-0.004815371838486157,142.43396300949237,-175.9793903078651,0,1.816713571548462,2019-07-26 14:49:41:113
-0.06048419326543808,-0.1186382919549942,9.721086502075195,-0.005009297299371112,-0.007374761712363427,-0.0010860359221998499,143.17943024891684,-176.0449512996595,0,1.8197956085205078,2019-07-26 14:49:41:116
-0.09640543907880783,-0.1186382919549942,9.83842945098877,-0.008205871350590458,-0.003911807053703507,0.0007786321009618848,143.90536999712378,-176.10864746320294,0,1.8232405185699463,2019-07-26 14:49:41:119
-0.09401068836450577,-0.10905929654836655,9.704322814941406,-0.007406727447674133,-0.0023135202881681594,-0.0005532736670214007,144.61666634358534,-176.17198196801763,0,1.8271238803863525,2019-07-26 14:49:41:123
-0.0724579393863678,-0.10905929654836655,9.747428894042969,-0.008205871350590458,-0.004444569308881956,0.0010450132285511093,145.3164801722327,-176.23449360386078,0,1.829789400100708,2019-07-26 14:49:41:126
-0.09640543907880783,-0.08271704614162445,9.768980979919434,-0.00607482180972801,-0.006309237202006528,0.0005122509408633695,146.00020583760593,-176.29878839163848,0,1.8336379528045654,2019-07-26 14:49:41:130
-0.05329994484782219,-0.14019104838371277,9.778560638427734,-0.00660758406490646,-0.007108380584774201,-0.0013524170497890744,146.67544882485444,-176.35499735864232,0,1.837378740310669,2019-07-26 14:49:41:134
-0.07724744081497192,-0.04919055476784706,9.816876411437988,-0.006341202937317235,-0.006841999457184977,0.0013113943561403338,147.3338360258478,-176.42130929696293,0,1.8397552967071533,2019-07-26 14:49:41:136
-0.03893144428730011,-0.06355905532836914,9.833640098571777,-0.0068739651924956836,-0.004710950436471181,0.0018441566113187831,147.98352259792608,-176.48416350024684,0,1.8431575298309326,2019-07-26 14:49:41:139
-0.04851044341921806,-0.06834854930639267,9.802508354187012,-0.004742916171781888,-0.004710950436471181,0.00370882476451768,148.6192750054679,-176.5453892809099,0,1.847292184829712,2019-07-26 14:49:41:144
-0.055694691836833954,-0.08271704614162445,9.694744110107422,-0.005542059554549561,-0.00524371269164963,0.003975205892106905,149.24114795252422,-176.6038152592001,0,1.8501501083374023,2019-07-26 14:49:41:146
-0.026957698166370392,-0.07792755216360092,9.749823570251465,-0.0068739651924956836,-0.004710950436471181,0.002643299994086457,149.85424494633384,-176.66099213338956,0,1.854264497756958,2019-07-26 14:49:41:151
-0.01498394925147295,-0.05637480318546295,9.8096923828125,-0.007406727447674133,-0.004977331564060405,0.002643299994086457,150.456448902992,-176.7196405380853,0,1.857982873916626,2019-07-26 14:49:41:154
-0.0652736946940422,-0.07792755216360092,9.725875854492188,-0.006341202937317235,-0.007108380584774201,0.006639017167999151,151.04055532468072,-176.77524040910424,0,1.8603026866912842,2019-07-26 14:49:41:157
-0.02456294745206833,-0.0994802936911583,9.742639541625977,-0.0068739651924956836,-0.006575618329595753,0.00424158701969613,151.61814919010533,-176.82668253769876,0,1.8638074398040771,2019-07-26 14:49:41:160
-0.125142440199852,-0.10905929654836655,9.757007598876953,-0.004742916171781888,-0.004710950436471181,0.0063726360404099255,152.17191949851673,-176.8765053878444,0,1.8669447898864746,2019-07-26 14:49:41:163
-0.026957698166370392,-0.06834854930639267,9.78095531463623,-0.005009297299371112,-0.004710950436471181,0.004507968147285354,152.7262590300695,-176.92997233164516,0,1.8704841136932373,2019-07-26 14:49:41:167
-0.019773447886109352,-0.09708555042743683,9.716297149658203,-0.0034110105338357646,-0.004178188181292731,0.006106254912820701,153.27016907040056,-176.97929687091457,0,1.8737545013427734,2019-07-26 14:49:41:170
0.008963547646999359,-0.044401053339242935,9.826455116271973,-0.005808440682138786,-0.00524371269164963,0.00370882476451768,146.60690789743475,-177.03331806827742,0,1.8774800300598145,2019-07-26 14:49:41:174
-0.05329994484782219,-0.08990129828453064,9.778560638427734,-0.0034110105338357646,-0.00524371269164963,0.009036447836450823,147.2691955651799,-177.0816797801505,0,1.8797616958618164,2019-07-26 14:49:41:176
-0.007799699902534485,-0.06116430088877678,9.802508354187012,-0.008205871350590458,-0.004178188181292731,0.007171779423177599,147.92372562266385,-177.13127439005504,0,1.8832814693450928,2019-07-26 14:49:41:180
-0.0988001897931099,-0.09708555042743683,9.706717491149902,-0.003943772789014213,-0.004444569308881956,0.0055734926576422525,148.55454167530334,-177.17634153438863,0,1.887103796005249,2019-07-26 14:49:41:183
-0.055694691836833954,-0.06834854930639267,9.747428894042969,-0.005808440682138786,-0.003112663670935833,0.007704541678356048,149.1775102369429,-177.22364732658176,0,1.890575885772705,2019-07-26 14:49:41:187
-0.06048419326543808,-0.11384879797697067,9.733059883117676,-0.005542059554549561,-0.003911807053703507,0.0082373039335345,149.7875382215523,-177.26478053175185,0,1.89375901222229,2019-07-26 14:49:41:190
-0.04851044341921806,-0.03482205420732498,9.737849235534668,-0.00660758406490646,-0.004444569308881956,0.007171779423177599,150.38701032402795,-177.31400258747084,0,1.8974909782409668,2019-07-26 14:49:41:194
-0.029352447018027306,-0.06355905532836914,9.680376052856445,-0.006341202937317235,-0.0012479956477740985,0.008503685061123723,150.9759554663842,-177.35938617429224,0,1.899773359298706,2019-07-26 14:49:41:196
-0.0988001897931099,-0.1258225440979004,9.807297706604004,-0.007140346320084909,-0.006841999457184977,0.0082373039335345,151.54623879377178,-177.39609288245208,0,1.9032773971557617,2019-07-26 14:49:41:200
