ACCELEROMETER X (m/s²),ACCELEROMETER Y (m/s²),ACCELEROMETER Z (m/s²),GYROSCOPE X (rad/s),GYROSCOPE Y (rad/s),GYROSCOPE Z (rad/s),Time since start in ms ,YYYY-MO-DD HH-MI-SS_SSS,Pitch (Deg),Roll (Deg),Heading (Deg),MagX,MagY,MagZ
0.032671570777893066,-0.02759948931634426,9.800348281860352,-0.0026459639353995116,0.0018382962265118203,-0.004203760769541297,0.0,2019-07-26 15:08:23:266,-3.5961798578435538,-3.5967729104545136,0,-91.61270141601562,79.9174575805664,-34.03614044189453
0.06619806587696075,-0.025204740464687347,9.797953605651855,0.0005506098557455085,0.0010391528437441464,-0.003404617386773623,0.009999752044677734,2019-07-26 15:08:23:276,-7.11709767965618,-7.122198807824876,0,-91.61270141601562,79.9174575805664,-34.03614044189453
0.05422431603074074,-0.006046743132174015,9.72850513458252,-0.002912345062988736,0.0031702019944951057,-0.003937379641952073,0.020003318786621094,2019-07-26 15:08:23:286,-10.570149437060607,-10.57740672796145,0,-91.61270141601562,79.9174575805664,-34.03614044189453
0.008724072948098183,-0.0036519933491945267,9.735690116882324,-0.0005149147521392618,0.00343658312208433,-0.0010071871084334394,0.029999256134033203,2019-07-26 15:08:23:296,-13.95964845573054,-13.9651397380069,0,-91.61270141601562,79.9174575805664,-34.03614044189453
0.09732981026172638,-0.06591548770666122,9.795557975769043,1.7847537580308712e-05,0.00024000941221253666,-0.007400334300611992,0.0400087833404541,2019-07-26 15:08:23:306,-17.26920480325087,-17.278136086723382,0,-91.61270141601562,79.9174575805664,-34.03614044189453
0.08775081485509872,-0.06831023842096329,9.838664054870605,-0.0005149147521392618,-0.00029275289172984846,-0.0020727116187903376,0.04999971389770508,2019-07-26 15:08:23:316,-20.51343635253214,-20.524328493296306,0,-91.61270141601562,79.9174575805664,-34.03614044189453
0.07098756730556488,-0.05394173786044121,9.77879524230957,-0.0018468204225946753,0.0010391528437441464,-0.0020727116187903376,0.060021162033081055,2019-07-26 15:08:23:326,-23.695433918857148,-23.706481682812427,0,-91.61270141601562,79.9174575805664,-34.03614044189453
0.07817181199789047,-0.080283984541893,9.764426231384277,-0.0007812959122377771,0.003702964249673555,-0.005002904152308971,0.06999897956848145,2019-07-26 15:08:23:336,-26.814426089792843,-26.822492717681218,0,-91.61270141601562,79.9174575805664,-34.03614044189453
0.037461068481206894,-0.07788923382759094,9.831480026245117,-0.00024853360829539187,0.007432300035922698,-0.001273568236022664,0.08002638816833496,2019-07-26 15:08:23:346,-29.8779559505436,-29.8768246809245,0,-91.61270141601562,79.9174575805664,-34.03614044189453
0.09493505954742432,-0.06352073699235916,9.831480026245117,0.00294804000404853,0.004235726504852004,0.005119579216230213,0.08999514579772949,2019-07-26 15:08:23:356,-32.87170287188864,-32.87353473161801,0,-91.61270141601562,79.9174575805664,-34.03614044189453
0.1356458067893982,-0.05633648484945297,9.857821464538574,0.0037471836468905284,0.0015719150989225955,0.0008574809147282953,0.10001945495605469,2019-07-26 15:08:23:366,-35.79938653098131,-35.811624466094784,0,-91.61270141601562,79.9174575805664,-34.03614044189453
0.09732981026172638,-0.03238898888230324,9.83626937866211,-0.002379582807810287,0.0005063905560564065,0.0013902431699067445,0.11000943183898926,2019-07-26 15:08:23:376,-38.672344397017724,-38.69028391216255,0,-91.61270141601562,79.9174575805664,-34.03614044189453
0.04943481832742691,-0.03957323729991913,9.76682186126709,-0.003178726190577961,0.003702964249673555,-0.005002904152308971,0.12002348899841309,2019-07-26 15:08:23:386,-41.49517963320687,-41.51004787577381,0,-92.06251525878906,80.06739807128906,-33.28644561767578
0.023092571645975113,-0.02041524089872837,9.783584594726562,0.0018825154936916314,0.005034869887619677,0.001656624297495969,0.1300206184387207,2019-07-26 15:08:23:396,-44.26539755791235,-44.27851248546263,0,-92.06251525878906,80.06739807128906,-33.28644561767578
0.01351357251405716,-0.05394173786044121,9.774005889892578,-0.0013140581674162262,0.0007727717161549218,-0.002871855131595174,0.14003372192382812,2019-07-26 15:08:23:406,-46.978939739961,-46.985879300431435,0,-92.06251525878906,80.06739807128906,-33.28644561767578
0.02788207121193409,-0.03238898888230324,9.821900367736816,-0.003977869573345634,0.003969345377262779,-0.001273568236022664,0.15002155303955078,2019-07-26 15:08:23:416,-49.63833403818651,-49.640152072659724,0,-92.06251525878906,80.06739807128906,-33.28644561767578
0.011118822731077671,-0.03957323729991913,9.860217094421387,-0.005309775211291758,0.0007727717161549218,-0.0026054740040059496,0.1600334644317627,2019-07-26 15:08:23:426,-52.24470959930551,-52.239765027287866,0,-92.06251525878906,80.06739807128906,-33.28644561767578
0.037461068481206894,-0.07788923382759094,9.793163299560547,-0.00371148844575641,0.0026374397393166566,0.001656624297495969,0.17003107070922852,2019-07-26 15:08:23:436,-54.79691260626719,-54.78377246319441,0,-92.06251525878906,80.06739807128906,-33.28644561767578
0.044645316898822784,-0.03957323729991913,9.841058731079102,0.0032144211316377544,0.0031702019944951057,0.003787673578284091,0.18002796173095703,2019-07-26 15:08:23:446,-57.29755529675957,-57.28529337164191,0,-92.06251525878906,80.06739807128906,-33.28644561767578
0.023092571645975113,-0.029994240030646324,9.80753231048584,-0.0018468204225946753,0.001305533971333371,0.0011238620423175197,0.19004487991333008,2019-07-26 15:08:23:457,-59.74964034720798,-59.735044235831786,0,-92.06251525878906,80.06739807128906,-33.28644561767578
0.03985581919550896,-0.022809991613030434,9.81950569152832,-0.0042442507009348585,-0.002157420817363711,0.0027221488078528673,0.20001959800720215,2019-07-26 15:08:23:466,-62.14878814958837,-62.13530436206348,0,-92.06251525878906,80.06739807128906,-33.28644561767578
0.05422431603074074,-0.03957323729991913,9.824295043945312,-0.0015804392950054507,0.0021046773541010446,0.007517009364533235,0.21002531051635742,2019-07-26 15:08:23:476,-64.50067012097853,-64.48709451639728,0,-92.06251525878906,80.06739807128906,-33.28644561767578
0.06380331516265869,-0.0611259862780571,9.821900367736816,-0.0010476770398270016,0.0007727717161549218,0.002988529935442092,0.22002506256103516,2019-07-26 15:08:23:486,-66.80364682588572,-66.78963292906177,0,-92.06251525878906,80.06739807128906,-33.28644561767578
0.0566190667450428,-0.06352073699235916,9.865006446838379,-0.0021132015501838996,0.001305533971333371,0.002189386552674418,0.23019742965698242,2019-07-26 15:08:23:497,-69.06174280222665,-69.0452548143745,0,-92.06251525878906,80.06739807128906,-33.28644561767578
0.04225056990981102,-0.04675748944282532,9.893743515014648,-0.0018468204225946753,0.003969345377262779,0.010979964543341806,0.24001169204711914,2019-07-26 15:08:23:506,-71.27780180521195,-71.25791647458121,0,-92.06251525878906,80.06739807128906,-33.28644561767578
0.059013817459344864,-0.07070498168468475,9.752452850341797,0.0002842286956469933,0.00343658312208433,0.005652341471408663,0.2500331401824951,2019-07-26 15:08:23:516,-73.44724549124334,-73.42461037436414,0,-92.5123291015625,79.9174575805664,-33.736263275146484
0.05182956904172897,-0.006046743132174015,9.77879524230957,0.0002842286956469933,0.001305533971333371,0.002988529935442092,0.2600257396697998,2019-07-26 15:08:23:526,-75.5729595697049,-75.55556906303937,0,-92.5123291015625,79.9174575805664,-33.736263275146484
0.1093035638332367,-0.07788923382759094,9.809926986694336,0.0002842286956469933,0.0005063905560564065,0.002988529935442092,0.2700338363647461,2019-07-26 15:08:23:536,-77.64901752440674,-77.6355192117352,0,-92.5123291015625,79.9174575805664,-33.736263275146484
0.0566190667450428,-0.022809991613030434,9.843453407287598,0.00294804000404853,0.004502107632441229,0.006451484854176337,0.280411958694458,2019-07-26 15:08:23:547,-79.69206950957701,-79.68187134215415,0,-92.5123291015625,79.9174575805664,-33.736263275146484
0.0829613134264946,-0.0611259862780571,9.764426231384277,-0.0013140581674162262,0.0007727717161549218,-0.0031382362591843983,0.29001903533935547,2019-07-26 15:08:23:556,-81.68890919319641,-81.68035164750204,0,-92.5123291015625,79.9174575805664,-33.736263275146484
0.06140856817364693,-0.025204740464687347,9.829085350036621,-0.00371148844575641,-0.0010918963070068127,0.00432043583346254,0.3000149726867676,2019-07-26 15:08:23:566,-83.64735898736221,-83.64172299861745,0,-92.5123291015625,79.9174575805664,-33.736263275146484
0.09254030883312225,-0.04196798801422119,9.824295043945312,0.000816990983334733,0.00024000941221253666,0.006984247109354786,0.3100137710571289,2019-07-26 15:08:23:576,-85.56375288151693,-85.56445206456777,0,-92.5123291015625,79.9174575805664,-33.736263275146484
0.09014556556940079,-0.0347837395966053,9.826689720153809,-0.0026459639353995116,0.0031702019944951057,0.006717865981765561,0.3200256824493408,2019-07-26 15:08:23:586,-87.44374819665012,-87.44761934395007,0,-92.5123291015625,79.9174575805664,-33.736263275146484
0.10451406240463257,-0.06831023842096329,9.785979270935059,0.00294804000404853,0.0010391528437441464,0.008582533874890132,0.33000636100769043,2019-07-26 15:08:23:596,-89.28321769800183,-89.29232023783541,0,-92.5123291015625,79.9174575805664,-33.736263275146484
0.11409305781126022,-0.051546987146139145,9.831480026245117,-0.003977869573345634,0.0007727717161549218,0.01071358289560393,0.340015172958374,2019-07-26 15:08:23:606,-91.08469003094523,-91.09823025349623,0,-92.5123291015625,79.9174575805664,-33.736263275146484
0.10451406240463257,-0.03957323729991913,9.800348281860352,0.0010833721109239577,0.0031702019944951057,0.00725062823694401,0.3500046730041504,2019-07-26 15:08:23:616,-92.85255447663235,-92.8722462062005,0,-92.5123291015625,79.9174575805664,-33.736263275146484
0.15959329903125763,-0.037178490310907364,9.809926986694336,-0.0021132015501838996,0.0026374397393166566,0.005385960343819439,0.3599967956542969,2019-07-26 15:08:23:626,-94.5783423973568,-94.60927279002583,0,-92.5123291015625,79.9174575805664,-33.736263275146484
0.1356458067893982,-0.04915223643183708,9.774005889892578,0.000816990983334733,0.0010391528437441464,0.012311869661139278,0.370039701461792,2019-07-26 15:08:23:636,-96.2714592877087,-96.31178542616695,0,-92.36239624023438,79.46764373779297,-32.68669128417969
0.13325105607509613,-0.03238898888230324,9.812321662902832,-0.0005149147521392618,0.00343658312208433,0.008582533874890132,0.37999510765075684,2019-07-26 15:08:23:646,-97.93239058826633,-97.98147940281345,0,-92.36239624023438,79.46764373779297,-32.68669128417969
0.1356458067893982,-0.0347837395966053,9.860217094421387,-0.0015804392950054507,0.0026374397393166566,0.0024557676802636425,0.39006805419921875,2019-07-26 15:08:23:657,-99.55947127113133,-99.61691351443065,0,-92.36239624023438,79.46764373779297,-32.68669128417969
0.1021193116903305,-0.06591548770666122,9.785979270935059,-0.0005149147521392618,0.001305533971333371,0.010447202288163355,0.3999950885772705,2019-07-26 15:08:23:666,-101.15705205074977,-101.2165697950443,0,-92.36239624023438,79.46764373779297,-32.68669128417969
0.11648780852556229,-0.06831023842096329,9.788373947143555,-0.002912345062988736,-2.63717336631639e-05,0.008582533874890132,0.4100179672241211,2019-07-26 15:08:23:676,-102.72025969539473,-102.78260249550328,0,-92.36239624023438,79.46764373779297,-32.68669128417969
0.11888255923986435,0.003532255766913295,9.781189918518066,0.0013497532385131823,0.0005063905560564065,0.008582533874890132,0.42000246047973633,2019-07-26 15:08:23:686,-104.25221139424404,-97.12812097647708,0,-92.36239624023438,79.46764373779297,-32.68669128417969
0.08056656271219254,-0.05394173786044121,9.79076862335205,-0.004510631828524084,-2.63717336631639e-05,0.011779107405960828,0.4300222396850586,2019-07-26 15:08:23:696,-105.7577229985389,-98.77670753447948,0,-92.36239624023438,79.46764373779297,-32.68669128417969
0.059013817459344864,-0.006046743132174015,9.747663497924805,-0.0005149147521392618,0.0031702019944951057,0.008316152747300909,0.4400198459625244,2019-07-26 15:08:23:706,-107.23741071640549,-100.40017348627346,0,-92.36239624023438,79.46764373779297,-32.68669128417969
0.044645316898822784,-0.010836242698132992,9.867401123046875,-0.0007812959122377771,0.007965062811249798,0.006185103726587112,0.45002245903015137,2019-07-26 15:08:23:716,-108.69195135270486,-101.99047277726172,0,-92.36239624023438,79.46764373779297,-32.68669128417969
0.04225056990981102,-0.02041524089872837,9.764426231384277,-0.0007812959122377771,0.0015719150989225955,0.006451484854176337,0.4600181579589844,2019-07-26 15:08:23:726,-110.1140362404171,-103.54782896297674,0,-92.36239624023438,79.46764373779297,-32.68669128417969
0.015908321365714073,-0.051546987146139145,9.795557975769043,-0.0018468204225946753,0.0021046773541010446,0.006717865981765561,0.47002410888671875,2019-07-26 15:08:23:736,-111.51107698784719,-105.06980470428425,0,-92.36239624023438,79.46764373779297,-32.68669128417969
0.044645316898822784,-0.022809991613030434,9.733294486999512,-0.0018468204225946753,0.0031702019944951057,0.004054054705873315,0.48001670837402344,2019-07-26 15:08:23:746,-112.877378070536,-106.56468694031675,0,-92.36239624023438,79.46764373779297,-32.68669128417969
0.06380331516265869,-0.018020492047071457,9.785979270935059,0.000816990983334733,-0.00029275289172984846,0.006185103726587112,0.4900209903717041,2019-07-26 15:08:23:756,-114.21219494327715,-108.03174198161886,0,-92.36239624023438,79.46764373779297,-32.68669128417969
0.04943481832742691,-0.03238898888230324,9.783584594726562,0.0016161343661024066,0.0031702019944951057,-0.00020804367690182974,0.5000209808349609,2019-07-26 15:08:23:766,-115.52394103607595,-109.4682210080576,0,-93.11209106445312,79.01782989501953,-33.43638610839844
0.044645316898822784,-0.022809991613030434,9.79076862335205,-0.0061089185940594315,0.001305533971333371,-0.0020727116187903376,0.5102267265319824,2019-07-26 15:08:23:777,-116.80898508315245,-110.87268617859067,0,-93.11209106445312,79.01782989501953,-33.43638610839844
0.059013817459344864,-0.058731235563755035,9.857821464538574,-0.0015804392950054507,-0.002157420817363711,-0.00047442482074569963,0.5200173854827881,2019-07-26 15:08:23:786,-118.06475941381797,-112.24753652693835,0,-93.11209106445312,79.01782989501953,-33.43638610839844
0.059013817459344864,-0.07309973239898682,9.793163299560547,-0.003178726190577961,0.0018382962265118203,-0.0020727116187903376,0.5300629138946533,2019-07-26 15:08:23:797,-119.29759589684684,-113.59223944797462,0,-93.11209106445312,79.01782989501953,-33.43638610839844
0.06380331516265869,-0.044362738728523254,9.742874145507812,-0.0018468204225946753,0.0007727717161549218,0.0005910997871390706,0.5400373935699463,2019-07-26 15:08:23:806,-120.5045726134111,-114.91414259691805,0,-93.11209106445312,79.01782989501953,-33.43638610839844
0.04225056990981102,-0.06831023842096329,9.821900367736816,0.0026816588764593053,0.006100394397976576,-0.0031382362591843983,0.5500319004058838,2019-07-26 15:08:23:816,-121.69297532287052,-116.20939507706738,0,-93.11209106445312,79.01782989501953,-33.43638610839844
0.07577706128358841,-0.07309973239898682,9.843453407287598,0.0002842286956469933,0.001305533971333371,-0.006867572045433543,0.5600399971008301,2019-07-26 15:08:23:826,-122.85102813043632,-117.47685722439931,0,-93.11209106445312,79.01782989501953,-33.43638610839844
0.07817181199789047,-0.04915223643183708,9.76682186126709,0.0018825154936916314,-0.0018910396897744866,-0.010330526704093462,0.5700328350067139,2019-07-26 15:08:23:836,-123.98377501428537,-118.72260949845709,0,-93.11209106445312,79.01782989501953,-33.43638610839844
0.06859281659126282,-0.01323099248111248,9.79076862335205,0.0016161343661024066,0.0018382962265118203,-0.003670998514362848,0.5800638198852539,2019-07-26 15:08:23:847,-125.09710691294165,-119.94751901761643,0,-93.11209106445312,79.01782989501953,-33.43638610839844
0.09254030883312225,-0.04915223643183708,9.79076862335205,-0.0021132015501838996,0.0007727717161549218,-0.00846585933111754,0.5900120735168457,2019-07-26 15:08:23:856,-126.18476580629522,-121.14163546782733,0,-93.11209106445312,79.01782989501953,-33.43638610839844
0.09014556556940079,-0.037178490310907364,9.831480026245117,0.0018825154936916314,0.002371058611727432,-0.00793309707593909,0.6000549793243408,2019-07-26 15:08:23:867,-127.25190085845985,-122.31553097722966,0,-93.11209106445312,79.01782989501953,-33.43638610839844
0.07098756730556488,-0.06352073699235916,9.821900367736816,-0.0010476770398270016,0.002371058611727432,-0.005269285279898195,0.610032320022583,2019-07-26 15:08:23:876,-128.29990923540035,-123.46122259609976,0,-93.11209106445312,79.01782989501953,-33.43638610839844
0.07577706128358841,-0.080283984541893,9.814716339111328,0.0005506098557455085,0.0007727717161549218,-0.005269285279898195,0.6200356483459473,2019-07-26 15:08:23:886,-129.32549794285535,-124.58293407942439,0,-92.96215057373047,79.46764373779297,-34.18608093261719
0.03506632149219513,-0.0874682292342186,9.843453407287598,-0.00024853360829539187,0.0021046773541010446,-0.00953138384147444,0.6300058364868164,2019-07-26 15:08:23:896,-130.3360840415941,-125.68095400586378,0,-92.96215057373047,79.46764373779297,-34.18608093261719
0.09254030883312225,-0.07309973239898682,9.788373947143555,0.00294804000404853,0.001305533971333371,-0.00793309707593909,0.6403450965881348,2019-07-26 15:08:23:907,-131.3192870031321,-126.76048884783881,0,-92.96215057373047,79.46764373779297,-34.18608093261719
0.04225056990981102,-0.07549448311328888,9.809926986694336,0.000816990983334733,-0.0005591340518283637,-0.006601190917844318,0.6503207683563232,2019-07-26 15:08:23:917,-132.287652737691,-127.81691821902066,0,-92.96215057373047,79.46764373779297,-34.18608093261719
0.10690881311893463,-0.07309973239898682,9.795557975769043,0.0016161343661024066,0.004768488760030453,-0.004203760769541297,0.660132884979248,2019-07-26 15:08:23:927,-133.2320208399778,-128.8529189813474,0,-92.96215057373047,79.46764373779297,-34.18608093261719
0.06619806587696075,-0.04196798801422119,9.793163299560547,0.0013497532385131823,0.001305533971333371,-0.011129670607009786,0.6703698635101318,2019-07-26 15:08:23:937,-134.1603850142063,-129.8717257271288,0,-92.96215057373047,79.46764373779297,-34.18608093261719
0.08775081485509872,-0.05633648484945297,9.824295043945312,-0.0042442507009348585,0.00024000941221253666,-0.00899862158629599,0.6800196170806885,2019-07-26 15:08:23:946,-135.06707228824385,-130.86542046839756,0,-92.96215057373047,79.46764373779297,-34.18608093261719
0.08775081485509872,-0.025204740464687347,9.843453407287598,-0.0018468204225946753,0.0010391528437441464,-0.010330526704093462,0.6899957656860352,2019-07-26 15:08:23:956,-135.95609778266984,-131.8441433674891,0,-92.96215057373047,79.46764373779297,-34.18608093261719
0.0829613134264946,-0.03238898888230324,9.838664054870605,-0.00371148844575641,-2.63717336631639e-05,-0.007400334300611992,0.7000634670257568,2019-07-26 15:08:23:967,-136.82729859003388,-132.80139004256094,0,-92.96215057373047,79.46764373779297,-34.18608093261719
0.04943481832742691,-0.0611259862780571,9.841058731079102,0.0024152777488700805,0.002371058611727432,-0.009797764448915013,0.7100496292114258,2019-07-26 15:08:23:977,-137.68632586620828,-133.7395989808498,0,-92.96215057373047,79.46764373779297,-34.18608093261719
0.06140856817364693,-0.04915223643183708,9.774005889892578,-0.002912345062988736,0.004235726504852004,-0.011129670607009786,0.7200648784637451,2019-07-26 15:08:23:987,-138.52778181457447,-134.65740661412474,0,-92.96215057373047,79.46764373779297,-34.18608093261719
0.044645316898822784,-0.025204740464687347,9.79076862335205,-0.0021132015501838996,0.002371058611727432,-0.010596908351831337,0.7300138473510742,2019-07-26 15:08:23:996,-139.35332546040644,-135.56012801051065,0,-92.96215057373047,79.46764373779297,-34.18608093261719
0.03506632149219513,-0.051546987146139145,9.833874702453613,-0.0007812959122377771,0.0029038208669058814,-0.012461576765104558,0.7400221824645996,2019-07-26 15:08:24:006,-140.16380463267458,-136.4424798080394,0,-92.96215057373047,79.46764373779297,-34.18608093261719
0.06140856817364693,-0.03238898888230324,9.745268821716309,0.0026816588764593053,-0.0010918963070068127,-0.008199478203528315,0.7500262260437012,2019-07-26 15:08:24:016,-140.95269444849492,-137.31132806297276,0,-92.06251525878906,79.46764373779297,-31.787057876586914
0.07098756730556488,-0.04675748944282532,9.77879524230957,0.000816990983334733,0.003969345377262779,-0.011129670607009786,0.760023832321167,2019-07-26 15:08:24:026,-141.72755036705033,-138.1600809564987,0,-92.06251525878906,79.46764373779297,-31.787057876586914
0.07338231801986694,-0.018020492047071457,9.797953605651855,-0.0026459639353995116,0.005301251015208902,-0.010064146096652888,0.7700302600860596,2019-07-26 15:08:24:036,-142.48739568023092,-138.99328510046462,0,-92.06251525878906,79.46764373779297,-31.787057876586914
0.08535606414079666,-0.06352073699235916,9.802742958068848,-0.002912345062988736,-0.0005591340518283637,-0.010863288959271912,0.7800235748291016,2019-07-26 15:08:24:046,-143.2273563699821,-139.8043599060584,0,-92.06251525878906,79.46764373779297,-31.787057876586914
0.10451406240463257,-0.037178490310907364,9.860217094421387,-0.0034451073181671855,-0.00029275289172984846,-0.014592625785818356,0.7900261878967285,2019-07-26 15:08:24:056,-143.95049906148643,-140.6020170621703,0,-92.06251525878906,79.46764373779297,-31.787057876586914
0.10690881311893463,-0.05394173786044121,9.76682186126709,-0.0015804392950054507,0.002371058611727432,-0.00846585933111754,0.8000237941741943,2019-07-26 15:08:24:066,-144.66027727807017,-141.3827607405722,0,-92.06251525878906,79.46764373779297,-31.787057876586914
0.09254030883312225,-0.008441492915153503,9.850637435913086,-0.00024853360829539187,-0.001624658562185262,-0.008199478203528315,0.8100223541259766,2019-07-26 15:08:24:076,-145.35539480798647,-142.15398400370975,0,-92.06251525878906,79.46764373779297,-31.787057876586914
0.128461554646492,-0.04196798801422119,9.81950569152832,-0.0015804392950054507,0.0007727717161549218,-0.007666715948349867,0.8200328350067139,2019-07-26 15:08:24:086,-146.03373093969958,-142.90511843322543,0,-92.06251525878906,79.46764373779297,-31.787057876586914
0.11409305781126022,0.013111254200339317,9.853032112121582,-0.004510631828524084,0.0015719150989225955,-0.003404617386773623,0.8300235271453857,2019-07-26 15:08:24:096,-146.70066960582432,-136.44601055689176,0,-92.06251525878906,79.46764373779297,-31.787057876586914
0.0829613134264946,-0.025204740464687347,9.83626937866211,-0.002379582807810287,0.0021046773541010446,-0.005269285279898195,0.8400254249572754,2019-07-26 15:08:24:106,-147.35817353019834,-137.3128176389273,0,-92.06251525878906,79.46764373779297,-31.787057876586914
0.09014556556940079,-0.044362738728523254,9.802742958068848,-0.003977869573345634,0.0021046773541010446,-0.011396051214450361,0.8500182628631592,2019-07-26 15:08:24:116,-148.00165349754658,-138.15914346216152,0,-92.06251525878906,79.46764373779297,-31.787057876586914
0.08056656271219254,-0.015625741332769394,9.869795799255371,-0.004777012956113309,0.008764206194017472,-0.0015399493636118885,0.8600332736968994,2019-07-26 15:08:24:126,-148.63719507059258,-138.9914600821218,0,-92.06251525878906,79.46764373779297,-31.787057876586914
0.04943481832742691,-0.029994240030646324,9.776400566101074,-0.003178726190577961,0.00343658312208433,-0.00047442482074569963,0.8700282573699951,2019-07-26 15:08:24:136,-149.26058551254786,-139.80633123889442,0,-92.5123291015625,79.9174575805664,-34.63589859008789
0.01351357251405716,-0.03957323729991913,9.80753231048584,-0.0007812959122377771,0.0007727717161549218,-0.002871855131595174,0.8800241947174072,2019-07-26 15:08:24:146,-149.8742286066246,-140.60514236961563,0,-92.5123291015625,79.9174575805664,-34.63589859008789
0.08535606414079666,-0.03957323729991913,9.80753231048584,-0.0018468204225946753,0.004502107632441229,-0.0018063304912011133,0.8900265693664551,2019-07-26 15:08:24:156,-150.46929978075713,-141.38737856268455,0,-92.5123291015625,79.9174575805664,-34.63589859008789
0.09014556556940079,-0.025204740464687347,9.788373947143555,-0.0026459639353995116,0.00343658312208433,-0.0018063304912011133,0.9000205993652344,2019-07-26 15:08:24:166,-151.05128931296102,-142.1551954848732,0,-92.5123291015625,79.9174575805664,-34.63589859008789
0.07817181199789047,-0.04196798801422119,9.84824275970459,0.000816990983334733,-0.0005591340518283637,0.0024557676802636425,0.9100296497344971,2019-07-26 15:08:24:176,-151.6208536144146,-142.90766747468268,0,-92.5123291015625,79.9174575805664,-34.63589859008789
0.10690881311893463,-0.04915223643183708,9.831480026245117,1.7847537580308712e-05,0.0010391528437441464,0.006451484854176337,0.9200232028961182,2019-07-26 15:08:24:186,-152.1765593024174,-143.64379521173478,0,-92.5123291015625,79.9174575805664,-34.63589859008789
0.059013817459344864,-0.05394173786044121,9.79076862335205,0.0037471836468905284,0.0010391528437441464,0.005918722598997886,0.9300224781036377,2019-07-26 15:08:24:196,-152.72670463914017,-144.36670989419164,0,-92.5123291015625,79.9174575805664,-34.63589859008789
0.10690881311893463,-0.04196798801422119,9.783584594726562,0.0018825154936916314,-0.002423801944952936,0.006717865981765561,0.9400243759155273,2019-07-26 15:08:24:206,-153.25828798547755,-145.07551739953956,0,-92.5123291015625,79.9174575805664,-34.63589859008789
0.12127730995416641,-0.04675748944282532,9.817111015319824,-0.0018468204225946753,0.006366775525565801,0.006984247109354786,0.9500236511230469,2019-07-26 15:08:24:216,-153.782541364136,-145.76751234948946,0,-92.5123291015625,79.9174575805664,-34.63589859008789
0.11409305781126022,-0.051546987146139145,9.817111015319824,-0.0026459639353995116,-0.00029275289172984846,0.009648058385247031,0.960029125213623,2019-07-26 15:08:24:226,-154.29340899924088,-146.44465874741059,0,-92.5123291015625,79.9174575805664,-34.63589859008789
0.03985581919550896,-0.02759948931634426,9.81950569152832,0.00294804000404853,-0.0010918963070068127,0.008316152747300909,0.9700064659118652,2019-07-26 15:08:24:236,-154.80227804575924,-147.11419634839893,0,-92.5123291015625,79.9174575805664,-34.63589859008789
0.059013817459344864,-0.04915223643183708,9.79076862335205,-0.0007812959122377771,-0.0008255151794175883,0.007517009364533235,0.9800477027893066,2019-07-26 15:08:24:247,-155.2988601299129,-147.76571916613366,0,-92.5123291015625,79.9174575805664,-34.63589859008789
0.05422431603074074,-0.05394173786044121,9.84824275970459,0.0010833721109239577,0.0010391528437441464,0.005119579216230213,0.9900171756744385,2019-07-26 15:08:24:256,-155.78715529417155,-148.40473478199036,0,-92.5123291015625,79.9174575805664,-34.63589859008789
0.044645316898822784,-0.06352073699235916,9.80753231048584,0.0010833721109239577,0.0005063905560564065,0.013910156426674623,1.000032901763916,2019-07-26 15:08:24:266,-156.26648063425125,-149.0298276730507,0,-92.96215057373047,81.56678771972656,-33.28644561767578
0.07338231801986694,-0.06591548770666122,9.781189918518066,0.0002842286956469933,0.001305533971333371,0.004054054705873315,1.010024070739746,2019-07-26 15:08:24:276,-156.73328648343613,-149.6416683586903,0,-92.96215057373047,81.56678771972656,-33.28644561767578
0.030276820063591003,-0.044362738728523254,9.81950569152832,-0.0010476770398270016,0.002371058611727432,0.011512726798520253,1.020003318786621,2019-07-26 15:08:24:286,-157.1964161073422,-150.24307094029706,0,-92.96215057373047,81.56678771972656,-33.28644561767578
0.07098756730556488,-0.051546987146139145,9.781189918518066,-0.0005149147521392618,0.0029038208669058814,0.00725062823694401,1.0300414562225342,2019-07-26 15:08:24:296,-157.64580809043068,-150.83188036203705,0,-92.96215057373047,81.56678771972656,-33.28644561767578
0.06619806587696075,-0.03957323729991913,9.788373947143555,-0.0005149147521392618,0.0005063905560564065,0.006185103726587112,1.0400240421295166,2019-07-26 15:08:24:306,-158.08542614487516,-151.4103213584885,0,-92.96215057373047,81.56678771972656,-33.28644561767578
0.07338231801986694,-0.02759948931634426,9.850637435913086,0.0024152777488700805,-0.001624658562185262,0.005652341471408663,1.050034999847412,2019-07-26 15:08:24:316,-158.51426803915786,-151.9802619777473,0,-92.96215057373047,81.56678771972656,-33.28644561767578
0.07817181199789047,-0.015625741332769394,9.817111015319824,-0.00024853360829539187,0.004768488760030453,0.006451484854176337,1.0600261688232422,2019-07-26 15:08:24:326,-158.93753329594898,-152.53869337585024,0,-92.96215057373047,81.56678771972656,-33.28644561767578
0.09493505954742432,-0.03238898888230324,9.762031555175781,-0.002379582807810287,0.0029038208669058814,0.0027221488078528673,1.07002592086792,2019-07-26 15:08:24:336,-159.34926948509695,-153.08278144305103,0,-92.96215057373047,81.56678771972656,-33.28644561767578
0.10451406240463257,-0.03238898888230324,9.821900367736816,-0.002379582807810287,0.0029038208669058814,0.006185103726587112,1.080026626586914,2019-07-26 15:08:24:346,-159.75172156525687,-153.61601079597398,0,-92.96215057373047,81.56678771972656,-33.28644561767578
0.1021193116903305,-0.044362738728523254,9.843453407287598,-0.0007812959122377771,0.0015719150989225955,0.00725062823694401,1.0900228023529053,2019-07-26 15:08:24:356,-160.1456817355379,-154.1380876432073,0,-92.96215057373047,81.56678771972656,-33.28644561767578
0.07338231801986694,-0.0347837395966053,9.783584594726562,-0.0010476770398270016,0.0021046773541010446,0.0013902431699067445,1.1000301837921143,2019-07-26 15:08:24:366,-160.53535590445117,-154.65066311146032,0,-92.96215057373047,81.56678771972656,-33.28644561767578
0.10451406240463257,-0.04675748944282532,9.817111015319824,-0.0018468204225946753,-2.63717336631639e-05,0.003787673578284091,1.1100091934204102,2019-07-26 15:08:24:376,-160.91243492501576,-155.15115724868636,0,-92.96215057373047,81.56678771972656,-33.28644561767578
0.05182956904172897,-0.0347837395966053,9.769216537475586,1.7847537580308712e-05,0.003969345377262779,0.003787673578284091,1.120048999786377,2019-07-26 15:08:24:387,-161.29034440077956,-155.64406409766053,0,-92.21245574951172,80.51721954345703,-33.13650894165039
0.018303072080016136,-0.05633648484945297,9.824295043945312,0.0026816588764593053,0.003969345377262779,0.006984247109354786,1.1299965381622314,2019-07-26 15:08:24:396,-161.66461971609374,-156.12610959226186,0,-92.21245574951172,80.51721954345703,-33.13650894165039
0.09493505954742432,-0.04915223643183708,9.805137634277344,-0.004510631828524084,0.00343658312208433,0.0019230054250851934,1.1400282382965088,2019-07-26 15:08:24:406,-162.0221684667649,-156.59530233865652,0,-92.21245574951172,80.51721954345703,-33.13650894165039
0.05422431603074074,-0.04915223643183708,9.795557975769043,-0.0026459639353995116,0.0010391528437441464,0.0003247186270405554,1.1500208377838135,2019-07-26 15:08:24:416,-162.37596488002043,-157.0561617492249,0,-92.21245574951172,80.51721954345703,-33.13650894165039
0.06859281659126282,-0.03957323729991913,9.742874145507812,-0.0015804392950054507,0.004502107632441229,0.002189386552674418,1.1600189208984375,2019-07-26 15:08:24:426,-162.72290556188622,-157.5094968588744,0,-92.21245574951172,80.51721954345703,-33.13650894165039
0.08056656271219254,-0.08507348597049713,9.795557975769043,0.0021488966212808557,0.0029038208669058814,0.0005910997871390706,1.1700232028961182,2019-07-26 15:08:24:436,-163.06065391953527,-157.9505621235874,0,-92.21245574951172,80.51721954345703,-33.13650894165039
0.12606680393218994,-0.05633648484945297,9.745268821716309,-0.0018468204225946753,0.004768488760030453,-0.002871855131595174,1.1800239086151123,2019-07-26 15:08:24:446,-163.3872955568578,-158.38388946404314,0,-92.21245574951172,80.51721954345703,-33.13650894165039
0.1021193116903305,-0.044362738728523254,9.833874702453613,0.0013497532385131823,0.0015719150989225955,-0.003937379641952073,1.1900324821472168,2019-07-26 15:08:24:456,-163.70853376317382,-158.81180077078682,0,-92.21245574951172,80.51721954345703,-33.13650894165039
0.12127730995416641,-0.04675748944282532,9.785979270935059,-0.0015804392950054507,-0.00029275289172984846,-0.0020727116187903376,1.2000231742858887,2019-07-26 15:08:24:466,-164.01999829440092,-159.22920301440016,0,-92.21245574951172,80.51721954345703,-33.13650894165039
0.09972456097602844,-0.04915223643183708,9.79076862335205,-0.00371148844575641,0.003702964249673555,-0.0015399493636118885,1.210026502609253,2019-07-26 15:08:24:476,-164.33000682986645,-159.6367815151212,0,-92.21245574951172,80.51721954345703,-33.13650894165039
0.11169830709695816,-0.058731235563755035,9.80753231048584,0.0005506098557455085,0.00024000941221253666,-0.005802047535076645,1.2200250625610352,2019-07-26 15:08:24:486,-164.63049113281832,-160.03749291039475,0,-92.21245574951172,80.51721954345703,-33.13650894165039
0.1021193116903305,-0.0611259862780571,9.884163856506348,0.0002842286956469933,0.003969345377262779,-0.0055356664074874195,1.2300195693969727,2019-07-26 15:08:24:496,-164.92827013780573,-160.4298160382557,0,-92.21245574951172,80.51721954345703,-33.13650894165039
0.04943481832742691,-0.04675748944282532,9.80753231048584,0.000816990983334733,0.0026374397393166566,-0.004736523024719746,1.2400264739990234,2019-07-26 15:08:24:506,-165.22541074341382,-160.81621565312287,0,-92.21245574951172,80.51721954345703,-33.13650894165039
0.1093035638332367,-0.07309973239898682,9.783584594726562,0.0021488966212808557,0.0021046773541010446,-0.003937379641952073,1.2499995231628418,2019-07-26 15:08:24:516,-165.5092793217612,-161.19253294489778,0,-92.21245574951172,80.81709289550781,-33.736263275146484
0.06619806587696075,-0.06591548770666122,9.764426231384277,-0.0015804392950054507,0.00343658312208433,-0.006601190917844318,1.2600195407867432,2019-07-26 15:08:24:526,-165.79325860279795,-161.56005762391632,0,-92.21245574951172,80.81709289550781,-33.736263275146484
0.08535606414079666,-0.06352073699235916,9.673426628112793,-0.00024853360829539187,0.003969345377262779,-0.004736523024719746,1.2700190544128418,2019-07-26 15:08:24:536,-166.0695110744277,-161.921192358923,0,-92.21245574951172,80.81709289550781,-33.736263275146484
0.10451406240463257,-0.07788923382759094,9.84824275970459,0.0005506098557455085,-0.0013582774345960375,-0.003937379641952073,1.2800328731536865,2019-07-26 15:08:24:546,-166.33519660355907,-162.2740153085075,0,-92.21245574951172,80.81709289550781,-33.736263275146484
0.09732981026172638,-0.04915223643183708,9.812321662902832,-0.0007812959122377771,0.0010391528437441464,-0.003937379641952073,1.2900283336639404,2019-07-26 15:08:24:556,-166.59770976301735,-162.62235639109795,0,-92.21245574951172,80.81709289550781,-33.736263275146484
0.03506632149219513,-0.04675748944282532,9.764426231384277,-0.002379582807810287,0.0010391528437441464,5.833747100570152e-05,1.3000514507293701,2019-07-26 15:08:24:567,-166.86222516827846,-162.96308280443915,0,-92.21245574951172,80.81709289550781,-33.736263275146484
0.07338231801986694,-0.02759948931634426,9.814716339111328,-0.0021132015501838996,0.003969345377262779,-0.005002904152308971,1.3100247383117676,2019-07-26 15:08:24:576,-167.1186359125125,-163.29941539280625,0,-92.21245574951172,80.81709289550781,-33.736263275146484
0.07817181199789047,-0.018020492047071457,9.797953605651855,0.0016161343661024066,0.002371058611727432,-0.00793309707593909,1.3200256824493408,2019-07-26 15:08:24:586,-167.36845230835388,-163.63222705109538,0,-92.21245574951172,80.81709289550781,-33.736263275146484
0.07817181199789047,-0.07549448311328888,9.793163299560547,1.7847537580308712e-05,0.004502107632441229,-0.004470141897130521,1.330033302307129,2019-07-26 15:08:24:596,-167.61446628617497,-163.95075896927924,0,-92.21245574951172,80.81709289550781,-33.736263275146484
0.05182956904172897,-0.0347837395966053,9.771611213684082,-0.0018468204225946753,0.0031702019944951057,-0.006867572045433543,1.3400232791900635,2019-07-26 15:08:24:606,-167.8578772504807,-164.26662877468394,0,-92.21245574951172,80.81709289550781,-33.736263275146484
0.07098756730556488,-0.0611259862780571,9.81950569152832,-0.0010476770398270016,0.0021046773541010446,-0.006068428662665869,1.3500275611877441,2019-07-26 15:08:24:616,-168.0936180300001,-164.5735744966044,0,-92.21245574951172,80.81709289550781,-33.736263275146484
0.032671570777893066,-0.0611259862780571,9.860217094421387,0.0002842286956469933,0.0005063905560564065,-0.0031382362591843983,1.3600237369537354,2019-07-26 15:08:24:626,-168.32823295090756,-164.87515880932187,0,-92.21245574951172,80.81709289550781,-33.736263275146484
0.06140856817364693,-0.05394173786044121,9.77879524230957,0.0016161343661024066,-0.0008255151794175883,-0.003937379641952073,1.370023488998413,2019-07-26 15:08:24:636,-168.55400878794973,-165.17224203856225,0,-92.06251525878906,80.66715240478516,-32.38681411743164
0.032671570777893066,-0.044362738728523254,9.805137634277344,-0.0034451073181671855,0.0026374397393166566,-0.003937379641952073,1.3800320625305176,2019-07-26 15:08:24:646,-168.7805925244769,-165.46167652740553,0,-92.06251525878906,80.66715240478516,-32.38681411743164
0.06619806587696075,-0.018020492047071457,9.814716339111328,0.000816990983334733,0.00343658312208433,0.0008574809147282953,1.3900299072265625,2019-07-26 15:08:24:656,-168.99918106775468,-165.7507976600928,0,-92.06251525878906,80.66715240478516,-32.38681411743164
0.05422431603074074,-0.06352073699235916,9.838664054870605,-0.0007812959122377771,0.004502107632441229,-0.003670998514362848,1.4000232219696045,2019-07-26 15:08:24:666,-169.2154082063747,-166.02794510489258,0,-92.06251525878906,80.66715240478516,-32.38681411743164
0.02788207121193409,-0.04196798801422119,9.809926986694336,0.0005506098557455085,0.0015719150989225955,-0.006601190917844318,1.4100241661071777,2019-07-26 15:08:24:676,-169.42872580658636,-166.30279307080977,0,-92.06251525878906,80.66715240478516,-32.38681411743164
0.06380331516265869,-0.006046743132174015,9.814716339111328,-0.0010476770398270016,0.007432300035922698,-0.0018063304912011133,1.4200248718261719,2019-07-26 15:08:24:686,-169.63687557070065,-166.57544291223658,0,-92.06251525878906,80.66715240478516,-32.38681411743164
0.04704006761312485,-0.029994240030646324,9.781189918518066,-0.0021132015501838996,0.0031702019944951057,-0.003404617386773623,1.4300336837768555,2019-07-26 15:08:24:696,-169.84040875396957,-166.8392324835551,0,-92.06251525878906,80.66715240478516,-32.38681411743164
0.06619806587696075,-0.051546987146139145,9.843453407287598,0.0016161343661024066,0.0068995377807442495,-0.006601190917844318,1.440025806427002,2019-07-26 15:08:24:706,-170.03976534405962,-167.09735384120538,0,-92.06251525878906,80.66715240478516,-32.38681411743164
0.09254030883312225,-0.01323099248111248,9.785979270935059,0.00294804000404853,0.0007727717161549218,-0.0055356664074874195,1.4500203132629395,2019-07-26 15:08:24:716,-170.2285677754646,-167.3555118577939,0,-92.06251525878906,80.66715240478516,-32.38681411743164
0.03985581919550896,-0.01323099248111248,9.800348281860352,0.0002842286956469933,0.001305533971333371,-0.0015399493636118885,1.4600248336791992,2019-07-26 15:08:24:726,-170.42006965077815,-167.60701424062955,0,-92.06251525878906,80.66715240478516,-32.38681411743164
0.07817181199789047,-0.05633648484945297,9.874585151672363,-0.0015804392950054507,-2.63717336631639e-05,-0.009797764448915013,1.4700212478637695,2019-07-26 15:08:24:736,-170.6025820437226,-167.84744925262865,0,-92.06251525878906,80.66715240478516,-32.38681411743164
0.06619806587696075,-0.01323099248111248,9.800348281860352,-0.00024853360829539187,0.0007727717161549218,-0.006601190917844318,1.4800336360931396,2019-07-26 15:08:24:746,-170.78322469286428,-168.08881349723643,0,-92.06251525878906,80.66715240478516,-32.38681411743164
0.08535606414079666,-0.006046743132174015,9.826689720153809,1.7847537580308712e-05,0.00024000941221253666,-0.006601190917844318,1.4900033473968506,2019-07-26 15:08:24:756,-170.95774121568218,-168.3263420921094,0,-92.06251525878906,80.66715240478516,-32.38681411743164
0.07577706128358841,-0.02759948931634426,9.797953605651855,0.000816990983334733,0.005567632142798127,-0.003937379641952073,1.5000190734863281,2019-07-26 15:08:24:766,-171.13285522755643,-168.55704683274962,0,-92.66226959228516,80.36727905273438,-33.28644561767578
0.05422431603074074,-0.06591548770666122,9.805137634277344,-0.0013140581674162262,-2.63717336631639e-05,-0.003937379641952073,1.5099995136260986,2019-07-26 15:08:24:776,-171.3038462730389,-168.7774661433318,0,-92.66226959228516,80.36727905273438,-33.28644561767578
0.08535606414079666,-0.0347837395966053,9.764426231384277,-0.003178726190577961,0.0007727717161549218,-0.004203760769541297,1.5200276374816895,2019-07-26 15:08:24:786,-171.46818767318314,-168.99604488142216,0,-92.66226959228516,80.36727905273438,-33.28644561767578
0.09014556556940079,-0.022809991613030434,9.754847526550293,-0.00024853360829539187,0.0026374397393166566,-0.0031382362591843983,1.5300238132476807,2019-07-26 15:08:24:796,-171.62971504789147,-169.2133049691262,0,-92.66226959228516,80.36727905273438,-33.28644561767578
0.06380331516265869,-0.03957323729991913,9.764426231384277,-0.0021132015501838996,-0.00029275289172984846,-0.0020727116187903376,1.5400445461273193,2019-07-26 15:08:24:806,-171.78946842012533,-169.42320571203342,0,-92.66226959228516,80.36727905273438,-33.28644561767578
0.044645316898822784,-0.03957323729991913,9.857821464538574,-0.005309775211291758,0.0021046773541010446,-0.006867572045433543,1.5500233173370361,2019-07-26 15:08:24:816,-171.9496685881454,-169.62716635675892,0,-92.66226959228516,80.36727905273438,-33.28644561767578
0.11888255923986435,-0.015625741332769394,9.824295043945312,-0.0013140581674162262,0.005834013270387351,5.833747100570152e-05,1.5600247383117676,2019-07-26 15:08:24:826,-172.10008556865432,-169.8320624823602,0,-92.66226959228516,80.36727905273438,-33.28644561767578
0.07817181199789047,-0.0012572435662150383,9.80753231048584,-0.00371148844575641,-0.0026901830725421603,0.0013902431699067445,1.5700328350067139,2019-07-26 15:08:24:836,-172.24743867099522,-170.03318865286533,0,-92.66226959228516,80.36727905273438,-33.28644561767578
0.09493505954742432,-0.037178490310907364,9.742874145507812,-0.0007812959122377771,0.0018382962265118203,0.001656624297495969,1.5800318717956543,2019-07-26 15:08:24:846,-172.39235649274983,-170.22771347013907,0,-92.66226959228516,80.36727905273438,-33.28644561767578
0.044645316898822784,-0.08267873525619507,9.829085350036621,0.005079089284836651,-0.004554851225741058,0.005385960343819439,1.5900282859802246,2019-07-26 15:08:24:856,-172.53674783655578,-170.41637127682742,0,-92.66226959228516,80.36727905273438,-33.28644561767578
0.07817181199789047,-0.04196798801422119,9.802742958068848,-0.0018468204225946753,0.0018382962265118203,0.0005910997871390706,1.6000292301177979,2019-07-26 15:08:24:866,-172.67790728683542,-170.60210084570022,0,-92.66226959228516,80.36727905273438,-33.28644561767578
0.04943481832742691,-0.018020492047071457,9.802742958068848,0.0021488966212808557,0.0007727717161549218,0.002988529935442092,1.610025405883789,2019-07-26 15:08:24:876,-172.81900413053714,-170.78915842280543,0,-92.66226959228516,80.36727905273438,-33.28644561767578
0.02788207121193409,-0.006046743132174015,9.81950569152832,-0.0015804392950054507,0.004235726504852004,0.003521292450694866,1.6200487613677979,2019-07-26 15:08:24:887,-172.96175418723627,-170.9717801251635,0,-92.06251525878906,79.76752471923828,-32.38681411743164
0.006329323630779982,-0.03957323729991913,9.759636878967285,0.0005506098557455085,0.0015719150989225955,0.01124634515078238,1.6300997734069824,2019-07-26 15:08:24:897,-173.10266308461203,-171.14800884963643,0,-92.06251525878906,79.76752471923828,-32.38681411743164
0.01351357251405716,-0.018020492047071457,9.855426788330078,-0.0015804392950054507,-0.002423801944952936,0.01124634515078238,1.6400136947631836,2019-07-26 15:08:24:906,-173.23768931986567,-171.32207361067162,0,-92.06251525878906,79.76752471923828,-32.38681411743164
0.01351357251405716,-0.006046743132174015,9.769216537475586,-0.0026459639353995116,0.001305533971333371,0.011512726798520253,1.6500084400177002,2019-07-26 15:08:24:916,-173.37208308145736,-171.49343793949234,0,-92.06251525878906,79.76752471923828,-32.38681411743164
0.04225056990981102,-0.06352073699235916,9.79076862335205,-0.0005149147521392618,0.0005063905560564065,0.006717865981765561,1.6600089073181152,2019-07-26 15:08:24:926,-173.49998077732332,-171.65584565435952,0,-92.06251525878906,79.76752471923828,-32.38681411743164
0.003934573847800493,-0.04196798801422119,9.833874702453613,-0.0021132015501838996,-0.0029565642001313846,0.009648058385247031,1.670018196105957,2019-07-26 15:08:24:936,-173.62786102743192,-171.81665068958327,0,-92.06251525878906,79.76752471923828,-32.38681411743164
0.006329323630779982,-0.0347837395966053,9.821900367736816,0.0013497532385131823,-2.63717336631639e-05,0.00778339049212246,1.6800012588500977,2019-07-26 15:08:24:946,-173.7545505857459,-171.97701609438545,0,-92.06251525878906,79.76752471923828,-32.38681411743164
0.025487320497632027,0.010716505348682404,9.829085350036621,-0.0005149147521392618,0.0015719150989225955,0.009381677777806456,1.6900355815887451,2019-07-26 15:08:24:956,-173.87737382062912,-164.93843503041668,0,-92.06251525878906,79.76752471923828,-32.38681411743164
0.05422431603074074,-0.04196798801422119,9.805137634277344,-0.00024853360829539187,0.0018382962265118203,0.010979964543341806,1.7000329494476318,2019-07-26 15:08:24:966,-173.99452120211893,-165.2346220928688,0,-92.06251525878906,79.76752471923828,-32.38681411743164
0.06619806587696075,-0.022809991613030434,9.814716339111328,0.0026816588764593053,0.002371058611727432,0.011512726798520253,1.7100327014923096,2019-07-26 15:08:24:976,-174.10823326416516,-165.52877218946512,0,-92.06251525878906,79.76752471923828,-32.38681411743164
0.030276820063591003,-0.03238898888230324,9.785979270935059,-0.005043394083702533,-2.63717336631639e-05,0.009914440032984907,1.720017433166504,2019-07-26 15:08:24:986,-174.22250847934845,-165.81157654852737,0,-92.06251525878906,79.76752471923828,-32.38681411743164
0.06140856817364693,-0.037178490310907364,9.805137634277344,0.0021488966212808557,0.0026374397393166566,0.010979964543341806,1.7300329208374023,2019-07-26 15:08:24:996,-174.33236486457463,-166.09220850061368,0,-92.06251525878906,79.76752471923828,-32.38681411743164
0.04704006761312485,-0.04196798801422119,9.881769180297852,-0.0021132015501838996,-0.002423801944952936,0.00725062823694401,1.7400121688842773,2019-07-26 15:08:25:006,-174.43890458297713,-166.36431354564306,0,-92.06251525878906,79.76752471923828,-32.38681411743164
0.032671570777893066,-0.01323099248111248,9.776400566101074,0.0032144211316377544,-0.0013582774345960375,0.006451484854176337,1.7500441074371338,2019-07-26 15:08:25:016,-174.54553188483558,-166.63728709665955,0,-91.9125747680664,79.31770324707031,-32.836631774902344
0.044645316898822784,-0.04675748944282532,9.769216537475586,0.004812708157247427,-0.0013582774345960375,0.004853198088640989,1.7600486278533936,2019-07-26 15:08:25:027,-174.64862143397164,-166.90176035840022,0,-91.9125747680664,79.31770324707031,-32.836631774902344
0.07098756730556488,-0.029994240030646324,9.838664054870605,-0.0015804392950054507,0.0015719150989225955,0.009381677777806456,1.770026445388794,2019-07-26 15:08:25:036,-174.74826185100974,-167.15934626743524,0,-91.9125747680664,79.31770324707031,-32.836631774902344
0.06619806587696075,-0.02759948931634426,9.800348281860352,0.0018825154936916314,0.0018382962265118203,0.005652341471408663,1.780029058456421,2019-07-26 15:08:25:046,-174.84658892675134,-167.41398955863815,0,-91.9125747680664,79.31770324707031,-32.836631774902344
0.11888255923986435,-0.06831023842096329,9.809926986694336,0.0018825154936916314,0.00024000941221253666,0.001656624297495969,1.7900323867797852,2019-07-26 15:08:25:056,-174.93590574767123,-167.6587878337115,0,-91.9125747680664,79.31770324707031,-32.836631774902344
0.0829613134264946,-0.04196798801422119,9.905716896057129,-0.00371148844575641,0.005034869887619677,0.0013902431699067445,1.800065040588379,2019-07-26 15:08:25:067,-175.03042700999166,-167.89866635417198,0,-91.9125747680664,79.31770324707031,-32.836631774902344
0.12367206066846848,-0.06591548770666122,9.805137634277344,0.000816990983334733,-0.0010918963070068127,0.005918722598997886,1.8104350566864014,2019-07-26 15:08:25:077,-175.11473003531484,-168.1334653864091,0,-91.9125747680664,79.31770324707031,-32.836631774902344
0.15001431107521057,-0.04675748944282532,9.776400566101074,-0.002912345062988736,-0.0013582774345960375,0.00432043583346254,1.8200340270996094,2019-07-26 15:08:25:086,-175.19412118812753,-168.36374586356456,0,-91.9125747680664,79.31770324707031,-32.836631774902344
0.11648780852556229,-0.06591548770666122,9.788373947143555,-0.0007812959122377771,-0.0008255151794175883,0.008049771619711684,1.8300087451934814,2019-07-26 15:08:25:096,-175.27613993782677,-168.58831681225342,0,-91.9125747680664,79.31770324707031,-32.836631774902344
0.11648780852556229,-0.037178490310907364,9.776400566101074,-0.0034451073181671855,-0.001624658562185262,0.005119579216230213,1.8400237560272217,2019-07-26 15:08:25:106,-175.35605035405513,-168.81025538931274,0,-91.9125747680664,79.31770324707031,-32.836631774902344
0.12367206066846848,-0.06352073699235916,9.831480026245117,-0.0026459639353995116,-0.0005591340518283637,0.003521292450694866,1.8500311374664307,2019-07-26 15:08:25:116,-175.43420123189034,-169.0251598751879,0,-91.9125747680664,79.31770324707031,-32.836631774902344
0.11409305781126022,-0.05633648484945297,9.824295043945312,-0.0018468204225946753,0.00024000941221253666,0.005385960343819439,1.8600339889526367,2019-07-26 15:08:25:126,-175.51234468060727,-169.2370483229766,0,-91.9125747680664,79.31770324707031,-32.836631774902344
0.08056656271219254,-0.08267873525619507,9.762031555175781,-0.0021132015501838996,0.00024000941221253666,0.0027221488078528673,1.8700323104858398,2019-07-26 15:08:25:136,-175.59277544207544,-169.44141598868785,0,-92.21245574951172,79.9174575805664,-34.03614044189453
0.11409305781126022,-0.06352073699235916,9.793163299560547,-0.0021132015501838996,0.003702964249673555,0.003521292450694866,1.8800232410430908,2019-07-26 15:08:25:146,-175.6696476276624,-169.64396961420852,0,-92.21245574951172,79.9174575805664,-34.03614044189453
0.059013817459344864,-0.058731235563755035,9.776400566101074,-0.00371148844575641,0.002371058611727432,0.0019230054250851934,1.8900303840637207,2019-07-26 15:08:25:156,-175.7506699038047,-169.84212079004564,0,-92.21245574951172,79.9174575805664,-34.03614044189453
0.0566190667450428,-0.07788923382759094,9.788373947143555,-0.0010476770398270016,0.004235726504852004,-0.0026054740040059496,1.9000284671783447,2019-07-26 15:08:25:166,-175.8314061383432,-170.0355719920046,0,-92.21245574951172,79.9174575805664,-34.03614044189453
0.09732981026172638,-0.0012572435662150383,9.800348281860352,-0.0013140581674162262,0.0010391528437441464,0.0032549110630313164,1.9100327491760254,2019-07-26 15:08:25:176,-175.9039817363974,-170.2339753898789,0,-92.21245574951172,79.9174575805664,-34.03614044189453
0.08535606414079666,-0.025204740464687347,9.817111015319824,0.0018825154936916314,0.00024000941221253666,0.0011238620423175197,1.9200255870819092,2019-07-26 15:08:25:186,-175.97607371887375,-170.42741010388343,0,-92.21245574951172,79.9174575805664,-34.03614044189453
0.06619806587696075,-0.051546987146139145,9.785979270935059,0.0002842286956469933,-0.0013582774345960375,-0.0026054740040059496,1.930009365081787,2019-07-26 15:08:25:196,-176.04803928824995,-170.61298525951847,0,-92.21245574951172,79.9174575805664,-34.03614044189453
0.11409305781126022,-0.058731235563755035,9.771611213684082,-0.00024853360829539187,0.004768488760030453,-0.003670998514362848,1.940004825592041,2019-07-26 15:08:25:206,-176.11637571673094,-170.79369874488717,0,-92.21245574951172,79.9174575805664,-34.03614044189453
0.07817181199789047,-0.06352073699235916,9.788373947143555,-0.00664168084923788,0.002371058611727432,-0.006068428662665869,1.950005292892456,2019-07-26 15:08:25:216,-176.18622830596743,-170.96665909332617,0,-92.21245574951172,79.9174575805664,-34.03614044189453
0.09254030883312225,-0.05394173786044121,9.83626937866211,-0.0013140581674162262,0.0005063905560564065,0.0003247186270405554,1.960019826889038,2019-07-26 15:08:25:226,-176.25200795492108,-171.14030290144294,0,-92.21245574951172,79.9174575805664,-34.03614044189453
0.0566190667450428,-0.07309973239898682,9.860217094421387,1.7847537580308712e-05,0.0026374397393166566,-0.0015399493636118885,1.9700078964233398,2019-07-26 15:08:25:236,-176.3218669752525,-171.30901164550863,0,-92.21245574951172,79.9174575805664,-34.03614044189453
0.06140856817364693,-0.03238898888230324,9.853032112121582,0.004546327029658202,0.0029038208669058814,-0.0015399493636118885,1.9800043106079102,2019-07-26 15:08:25:246,-176.38991776895648,-171.4816164016768,0,-92.21245574951172,79.9174575805664,-34.03614044189453
0.06859281659126282,-0.03957323729991913,9.769216537475586,0.0013497532385131823,0.0021046773541010446,-0.004736523024719746,1.990009069442749,2019-07-26 15:08:25:256,-176.45525603911648,-171.64810045829364,0,-92.21245574951172,79.9174575805664,-34.03614044189453
0.06859281659126282,-0.058731235563755035,9.800348281860352,0.0032144211316377544,-0.001624658562185262,-0.004470141897130521,2.0000057220458984,2019-07-26 15:08:25:266,-176.51721882694167,-171.8100756114046,0,-92.5123291015625,79.9174575805664,-31.936996459960938
0.1021193116903305,-0.0611259862780571,9.865006446838379,0.0005506098557455085,0.0007727717161549218,-0.003404617386773623,2.0100104808807373,2019-07-26 15:08:25:276,-176.57544684842924,-171.96708313133965,0,-92.5123291015625,79.9174575805664,-31.936996459960938
0.08056656271219254,-0.06831023842096329,9.841058731079102,-0.0018468204225946753,0.0018382962265118203,-0.003670998514362848,2.0200140476226807,2019-07-26 15:08:25:286,-176.63558933353409,-172.1187500376281,0,-92.5123291015625,79.9174575805664,-31.936996459960938
0.1021193116903305,-0.010836242698132992,9.805137634277344,-0.0007812959122377771,-2.63717336631639e-05,-0.003670998514362848,2.0300028324127197,2019-07-26 15:08:25:296,-176.69092861625563,-172.2746704131084,0,-92.5123291015625,79.9174575805664,-31.936996459960938
0.07577706128358841,-0.022809991613030434,9.805137634277344,-0.0015804392950054507,0.00024000941221253666,-0.012195195117366683,2.0400044918060303,2019-07-26 15:08:25:306,-176.74838902621968,-172.42562366939399,0,-92.5123291015625,79.9174575805664,-31.936996459960938
0.07817181199789047,-0.06352073699235916,9.817111015319824,0.000816990983334733,0.004235726504852004,-0.007133953173022766,2.0500128269195557,2019-07-26 15:08:25:316,-176.80667706488055,-172.57015587703913,0,-92.5123291015625,79.9174575805664,-31.936996459960938
0.07098756730556488,-0.029994240030646324,9.781189918518066,-0.0026459639353995116,0.0021046773541010446,-0.007400334300611992,2.0600061416625977,2019-07-26 15:08:25:326,-176.86340810250096,-172.71375408253,0,-92.5123291015625,79.9174575805664,-31.936996459960938
0.030276820063591003,-0.08507348597049713,9.824295043945312,0.0013497532385131823,0.001305533971333371,-0.006867572045433543,2.070033073425293,2019-07-26 15:08:25:336,-176.92334346288297,-172.85031611821685,0,-92.5123291015625,79.9174575805664,-31.936996459960938
0.09732981026172638,-0.06591548770666122,9.769216537475586,0.0024152777488700805,0.00024000941221253666,-0.003404617386773623,2.0800065994262695,2019-07-26 15:08:25:346,-176.97359472737273,-172.98693070245687,0,-92.5123291015625,79.9174575805664,-31.936996459960938
0.06619806587696075,-0.03957323729991913,9.793163299560547,-0.0021132015501838996,0.0018382962265118203,-0.006601190917844318,2.0900070667266846,2019-07-26 15:08:25:356,-177.02740924552674,-173.12137496294375,0,-92.5123291015625,79.9174575805664,-31.936996459960938
0.07098756730556488,-0.06831023842096329,9.81950569152832,-0.0021132015501838996,0.0029038208669058814,-0.00793309707593909,2.1000096797943115,2019-07-26 15:08:25:366,-177.08020802316352,-173.2497890617681,0,-92.5123291015625,79.9174575805664,-31.936996459960938
0.06140856817364693,-0.037178490310907364,9.805137634277344,-0.0015804392950054507,0.0026374397393166566,-0.013793481882902033,2.1100122928619385,2019-07-26 15:08:25:376,-177.13290851088917,-173.37956064591367,0,-92.5123291015625,79.9174575805664,-31.936996459960938
0.05422431603074074,-0.04675748944282532,9.805137634277344,-0.00371148844575641,0.003702964249673555,-0.009797764448915013,2.1200029850006104,2019-07-26 15:08:25:386,-177.18599054352197,-173.50442292238398,0,-91.76263427734375,79.76752471923828,-31.787057876586914
0.09732981026172638,-0.058731235563755035,9.809926986694336,0.004279945902068978,0.0007727717161549218,-0.007400334300611992,2.1300039291381836,2019-07-26 15:08:25:396,-177.23133578300485,-173.6298774530914,0,-91.76263427734375,79.76752471923828,-31.787057876586914
0.04943481832742691,-0.0347837395966053,9.809926986694336,0.0018825154936916314,0.0031702019944951057,-0.00793309707593909,2.1400091648101807,2019-07-26 15:08:25:406,-177.28271554038233,-173.7542743518583,0,-91.76263427734375,79.76752471923828,-31.787057876586914
0.025487320497632027,-0.04915223643183708,9.788373947143555,0.0013497532385131823,-0.0008255151794175883,-0.012461576765104558,2.1500043869018555,2019-07-26 15:08:25:416,-177.33361415586563,-173.8741922303021,0,-91.76263427734375,79.76752471923828,-31.787057876586914
0.011118822731077671,-0.05394173786044121,9.81950569152832,0.0005506098557455085,0.0031702019944951057,-0.011129670607009786,2.160019636154175,2019-07-26 15:08:25:426,-177.38742710872694,-173.99072320019022,0,-91.76263427734375,79.76752471923828,-31.787057876586914
0.037461068481206894,-0.051546987146139145,9.76682186126709,-0.0018468204225946753,0.002371058611727432,-0.00953138384147444,2.1700246334075928,2019-07-26 15:08:25:436,-177.43661539069367,-174.10382341418435,0,-91.76263427734375,79.76752471923828,-31.787057876586914
0.05422431603074074,-0.037178490310907364,9.812321662902832,-0.002379582807810287,-0.00029275289172984846,-0.012727957372545133,2.1800239086151123,2019-07-26 15:08:25:446,-177.4813862827579,-174.21606910314082,0,-91.76263427734375,79.76752471923828,-31.787057876586914
0.03506632149219513,-0.0036519933491945267,9.80753231048584,-0.00024853360829539187,-0.001624658562185262,-0.00953138384147444,2.190033435821533,2019-07-26 15:08:25:456,-177.52674830030537,-174.33118133664965,0,-91.76263427734375,79.76752471923828,-31.787057876586914
0.10451406240463257,-0.037178490310907364,9.829085350036621,-0.0007812959122377771,0.0015719150989225955,-0.011396051214450361,2.2000272274017334,2019-07-26 15:08:25:466,-177.56491119025807,-174.4397848835549,0,-91.76263427734375,79.76752471923828,-31.787057876586914
0.09254030883312225,-0.03238898888230324,9.757242202758789,0.0016161343661024066,0.0021046773541010446,-0.010596908351831337,2.2105553150177,2019-07-26 15:08:25:477,-177.6039893021663,-174.54814073273562,0,-91.76263427734375,79.76752471923828,-31.787057876586914
0.07338231801986694,-0.04915223643183708,9.795557975769043,0.000816990983334733,0.003702964249673555,-0.011662432862188236,2.22003436088562,2019-07-26 15:08:25:486,-177.64529607139252,-174.6518628221843,0,-91.76263427734375,79.76752471923828,-31.787057876586914
0.03506632149219513,-0.09944198280572891,9.757242202758789,0.0021488966212808557,0.0029038208669058814,-0.00953138384147444,2.230020046234131,2019-07-26 15:08:25:496,-177.6899000462886,-174.74835212346326,0,-91.76263427734375,79.76752471923828,-31.787057876586914
0.09732981026172638,-0.06831023842096329,9.783584594726562,-0.005309775211291758,-0.0005591340518283637,-0.004736523024719746,2.240025281906128,2019-07-26 15:08:25:506,-177.72438841824334,-174.8424012893195,0,-91.76263427734375,79.76752471923828,-31.787057876586914
0.044645316898822784,-0.010836242698132992,9.80753231048584,-0.0015804392950054507,0.001305533971333371,-0.0026054740040059496,2.2500195503234863,2019-07-26 15:08:25:516,-177.7654169464731,-174.9434002476831,0,-92.5123291015625,79.9174575805664,-33.13650894165039
0.06140856817364693,-0.025204740464687347,9.826689720153809,0.0016161343661024066,0.0007727717161549218,-0.005802047535076645,2.2600176334381104,2019-07-26 15:08:25:526,-177.8033815165992,-175.04250034278974,0,-92.5123291015625,79.9174575805664,-33.13650894165039
0.059013817459344864,0.0011375061003491282,9.793163299560547,-0.0010476770398270016,0.005034869887619677,-0.00846585933111754,2.27001953125,2019-07-26 15:08:25:536,-177.84323626641208,-167.94119505668627,0,-92.5123291015625,79.9174575805664,-33.13650894165039
0.07817181199789047,-0.008441492915153503,9.817111015319824,0.0021488966212808557,0.0029038208669058814,-0.003937379641952073,2.280015468597412,2019-07-26 15:08:25:546,-177.87887685226815,-168.18259192342052,0,-92.5123291015625,79.9174575805664,-33.13650894165039
0.09014556556940079,-0.029994240030646324,9.783584594726562,0.005345470412425876,0.0031702019944951057,-0.002871855131595174,2.290022611618042,2019-07-26 15:08:25:556,-177.91252252820746,-168.418430598312,0,-92.5123291015625,79.9174575805664,-33.13650894165039
0.08056656271219254,-0.05633648484945297,9.821900367736816,0.0032144211316377544,-0.00029275289172984846,-0.006867572045433543,2.3000235557556152,2019-07-26 15:08:25:566,-177.9447082370373,-168.64529437592887,0,-92.5123291015625,79.9174575805664,-33.13650894165039
0.07817181199789047,-0.029994240030646324,9.862611770629883,-0.002912345062988736,0.0018382962265118203,-0.00020804367690182974,2.3100244998931885,2019-07-26 15:08:25:576,-177.97776394653354,-168.8672681009132,0,-92.5123291015625,79.9174575805664,-33.13650894165039
0.04225056990981102,-0.029994240030646324,9.795557975769043,0.0005506098557455085,0.0031702019944951057,0.0032549110630313164,2.3200619220733643,2019-07-26 15:08:25:587,-178.01505281742746,-169.08672425172514,0,-92.5123291015625,79.9174575805664,-33.13650894165039
0.04225056990981102,-0.0347837395966053,9.81950569152832,0.0005506098557455085,-0.0010918963070068127,0.0013902431699067445,2.330012559890747,2019-07-26 15:08:25:596,-178.04921116726285,-169.30123823523894,0,-92.5123291015625,79.9174575805664,-33.13650894165039
0.09732981026172638,-0.02759948931634426,9.802742958068848,0.0010833721109239577,-0.001624658562185262,0.002189386552674418,2.3400001525878906,2019-07-26 15:08:25:606,-178.07593860005883,-169.51259472653337,0,-92.5123291015625,79.9174575805664,-33.13650894165039
0.05182956904172897,-0.04196798801422119,9.793163299560547,-0.0042442507009348585,0.0031702019944951057,5.833747100570152e-05,2.3500356674194336,2019-07-26 15:08:25:616,-178.1101415998844,-169.71504050788806,0,-92.5123291015625,79.9174575805664,-33.13650894165039
0.03985581919550896,-0.06352073699235916,9.79076862335205,-0.0007812959122377771,0.00343658312208433,0.002189386552674418,2.36004376411438,2019-07-26 15:08:25:626,-178.1452052512815,-169.91286625703998,0,-92.5123291015625,79.9174575805664,-33.13650894165039
0.06859281659126282,-0.029994240030646324,9.747663497924805,-0.0015804392950054507,0.0005063905560564065,0.001656624297495969,2.370039463043213,2019-07-26 15:08:25:636,-178.17452186198307,-170.11019584805183,0,-92.66226959228516,80.36727905273438,-35.38559341430664
0.0566190667450428,-0.03957323729991913,9.797953605651855,0.0037471836468905284,0.00343658312208433,0.009648058385247031,2.3800032138824463,2019-07-26 15:08:25:646,-178.2063322810144,-170.305460096298,0,-92.66226959228516,80.36727905273438,-35.38559341430664
0.08775081485509872,-0.044362738728523254,9.711742401123047,0.0002842286956469933,0.0015719150989225955,0.003787673578284091,2.390017509460449,2019-07-26 15:08:25:656,-178.2327358435593,-170.49427626960028,0,-92.66226959228516,80.36727905273438,-35.38559341430664
0.037461068481206894,-0.04196798801422119,9.829085350036621,-0.0007812959122377771,0.0021046773541010446,0.00432043583346254,2.4000003337860107,2019-07-26 15:08:25:666,-178.26489352458964,-170.67906002850532,0,-92.66226959228516,80.36727905273438,-35.38559341430664
0.05422431603074074,-0.03957323729991913,9.771611213684082,1.7847537580308712e-05,-0.0005591340518283637,0.010979964543341806,2.4099788665771484,2019-07-26 15:08:25:676,-178.2929235617602,-170.86084810471246,0,-92.66226959228516,80.36727905273438,-35.38559341430664
0.032671570777893066,-0.006046743132174015,9.886558532714844,-0.0013140581674162262,0.0031702019944951057,0.009914440032984907,2.4199979305267334,2019-07-26 15:08:25:686,-178.32506171716733,-171.042191037875,0,-92.66226959228516,80.36727905273438,-35.38559341430664
0.059013817459344864,-0.051546987146139145,9.793163299560547,-0.004777012956113309,-0.0018910396897744866,0.008316152747300909,2.4300031661987305,2019-07-26 15:08:25:696,-178.3505928817084,-171.21263197683206,0,-92.66226959228516,80.36727905273438,-35.38559341430664
0.06859281659126282,-0.0012572435662150383,9.771611213684082,1.7847537580308712e-05,0.003969345377262779,0.011512726798520253,2.4400134086608887,2019-07-26 15:08:25:706,-178.37776835026025,-171.38824193213733,0,-92.66226959228516,80.36727905273438,-35.38559341430664
0.07577706128358841,-0.07788923382759094,9.81950569152832,0.0037471836468905284,0.003969345377262779,0.007517009364533235,2.450002908706665,2019-07-26 15:08:25:716,-178.40359657748039,-171.55348960420332,0,-92.66226959228516,80.36727905273438,-35.38559341430664
0.08775081485509872,-0.08986297994852066,9.817111015319824,0.0016161343661024066,0.003702964249673555,0.005385960343819439,2.4600067138671875,2019-07-26 15:08:25:726,-178.42736208646153,-171.71283852948076,0,-92.66226959228516,80.36727905273438,-35.38559341430664
0.0829613134264946,-0.0347837395966053,9.824295043945312,-0.004510631828524084,-2.63717336631639e-05,0.002988529935442092,2.470003128051758,2019-07-26 15:08:25:736,-178.44912358186136,-171.87199276025288,0,-92.66226959228516,80.36727905273438,-35.38559341430664
0.09493505954742432,-0.051546987146139145,9.84824275970459,0.003480802519301304,0.003702964249673555,0.01018082064042548,2.4800031185150146,2019-07-26 15:08:25:746,-178.47117426627497,-172.03050955216847,0,-92.66226959228516,80.36727905273438,-35.38559341430664
0.13325105607509613,-0.05394173786044121,9.77879524230957,-0.0005149147521392618,-0.0005591340518283637,0.005918722598997886,2.490013837814331,2019-07-26 15:08:25:756,-178.48582260350162,-172.18328889795217,0,-92.66226959228516,80.36727905273438,-35.38559341430664
0.1093035638332367,-0.05394173786044121,9.79076862335205,-0.00024853360829539187,0.005034869887619677,0.01018082064042548,2.500004291534424,2019-07-26 15:08:25:766,-178.50613812254795,-172.3331704026018,0,-91.46276092529297,79.46764373779297,-33.88620376586914
0.12127730995416641,-0.037178490310907364,9.759636878967285,0.0026816588764593053,0.0018382962265118203,0.009115296130068581,2.5100035667419434,2019-07-26 15:08:25:776,-178.52280859491617,-172.4836473882753,0,-91.46276092529297,79.46764373779297,-33.88620376586914
0.09972456097602844,-0.06591548770666122,9.759636878967285,-0.003178726190577961,0.007965062811249798,0.011779107405960828,2.5200045108795166,2019-07-26 15:08:25:786,-178.5451165897507,-172.62445015447094,0,-91.46276092529297,79.46764373779297,-33.88620376586914
0.1093035638332367,-0.08507348597049713,9.762031555175781,-0.0015804392950054507,0.002371058611727432,0.004586816961051765,2.5300047397613525,2019-07-26 15:08:25:796,-178.56271557733223,-172.7610876224206,0,-91.46276092529297,79.46764373779297,-33.88620376586914
0.08535606414079666,-0.04675748944282532,9.785979270935059,-0.00024853360829539187,-0.0026901830725421603,0.005119579216230213,2.5400187969207764,2019-07-26 15:08:25:806,-178.5799538635836,-172.90025097006935,0,-91.46276092529297,79.46764373779297,-33.88620376586914
0.08775081485509872,-0.051546987146139145,9.829085350036621,-0.0026459639353995116,-0.0018910396897744866,5.833747100570152e-05,2.549975872039795,2019-07-26 15:08:25:816,-178.59706744529277,-173.0347571161473,0,-91.46276092529297,79.46764373779297,-33.88620376586914
0.07338231801986694,-0.05633648484945297,9.802742958068848,0.0026816588764593053,0.0010391528437441464,0.005652341471408663,2.5600125789642334,2019-07-26 15:08:25:826,-178.61713367594407,-173.1689877302234,0,-91.46276092529297,79.46764373779297,-33.88620376586914
0.1093035638332367,-0.05633648484945297,9.754847526550293,-0.0026459639353995116,0.0007727717161549218,-0.0031382362591843983,2.570037841796875,2019-07-26 15:08:25:836,-178.63238650359418,-173.29750066501794,0,-91.46276092529297,79.46764373779297,-33.88620376586914
0.0566190667450428,-0.06831023842096329,9.77879524230957,-0.003977869573345634,-0.0026901830725421603,0.004853198088640989,2.580018997192383,2019-07-26 15:08:25:846,-178.65159632728316,-173.42131657488005,0,-91.46276092529297,79.46764373779297,-33.88620376586914
0.06859281659126282,-0.07309973239898682,9.821900367736816,-0.0021132015501838996,0.001305533971333371,0.005652341471408663,2.5900001525878906,2019-07-26 15:08:25:856,-178.67129351964638,-173.54317757242106,0,-91.46276092529297,79.46764373779297,-33.88620376586914
0.07817181199789047,-0.03238898888230324,9.850637435913086,0.0013497532385131823,0.0010391528437441464,0.005385960343819439,2.600003957748413,2019-07-26 15:08:25:866,-178.6893578901,-173.6693044262658,0,-91.46276092529297,79.46764373779297,-33.88620376586914
0.05422431603074074,-0.06831023842096329,9.84824275970459,1.7847537580308712e-05,0.0029038208669058814,0.0005910997871390706,2.610004425048828,2019-07-26 15:08:25:876,-178.71089196511045,-173.7879800876101,0,-91.46276092529297,79.46764373779297,-33.88620376586914
0.07098756730556488,-0.05394173786044121,9.805137634277344,-0.0015804392950054507,0.0021046773541010446,0.0024557676802636425,2.6200039386749268,2019-07-26 15:08:25:886,-178.72955974827073,-173.90502906686194,0,-91.9125747680664,80.51721954345703,-33.13650894165039
0.0015398240648210049,-0.02759948931634426,9.757242202758789,0.0010833721109239577,0.0007727717161549218,0.005385960343819439,2.6300148963928223,2019-07-26 15:08:25:896,-178.7552220981466,-174.02429611777927,0,-91.9125747680664,80.51721954345703,-33.13650894165039
0.06140856817364693,-0.022809991613030434,9.764426231384277,-0.0013140581674162262,-0.0018910396897744866,-0.0026054740040059496,2.6400036811828613,2019-07-26 15:08:25:906,-178.77185045193247,-174.14039629284582,0,-91.9125747680664,80.51721954345703,-33.13650894165039
0.0566190667450428,-0.06591548770666122,9.793163299560547,-0.0005149147521392618,0.0021046773541010446,0.008049771619711684,2.650007963180542,2019-07-26 15:08:25:916,-178.79097069773388,-174.2495863463643,0,-91.9125747680664,80.51721954345703,-33.13650894165039
0.0829613134264946,-0.051546987146139145,9.838664054870605,-0.0013140581674162262,0.0005063905560564065,-0.0007408059808442149,2.659999370574951,2019-07-26 15:08:25:926,-178.80577304802733,-174.3578537554346,0,-91.9125747680664,80.51721954345703,-33.13650894165039
0.0829613134264946,-0.04196798801422119,9.84824275970459,0.0010833721109239577,-0.0005591340518283637,-0.002339092876416725,2.6700048446655273,2019-07-26 15:08:25:936,-178.8196905305915,-174.466422070293,0,-91.9125747680664,80.51721954345703,-33.13650894165039
0.10451406240463257,-0.07788923382759094,9.84824275970459,0.0018825154936916314,0.00343658312208433,-0.006601190917844318,2.6800191402435303,2019-07-26 15:08:25:946,-178.8330685907199,-174.56908937270927,0,-91.9125747680664,80.51721954345703,-33.13650894165039
0.1021193116903305,-0.044362738728523254,9.79076862335205,-0.00024853360829539187,0.0026374397393166566,-0.00047442482074569963,2.690004348754883,2019-07-26 15:08:25:956,-178.84593429433832,-174.67237604271858,0,-91.9125747680664,80.51721954345703,-33.13650894165039
0.04704006761312485,-0.04196798801422119,9.821900367736816,0.000816990983334733,0.0029038208669058814,-0.00020804367690182974,2.7000041007995605,2019-07-26 15:08:25:966,-178.86515796322425,-174.7744908980623,0,-91.9125747680664,80.51721954345703,-33.13650894165039
0.0829613134264946,-0.03238898888230324,9.800348281860352,0.0013497532385131823,0.00024000941221253666,-0.003404617386773623,2.7100000381469727,2019-07-26 15:08:25:976,-178.87828941076054,-174.87597155545777,0,-91.9125747680664,80.51721954345703,-33.13650894165039
0.06619806587696075,-0.02759948931634426,9.886558532714844,-0.0042442507009348585,0.002371058611727432,-0.0007408059808442149,2.720015048980713,2019-07-26 15:08:25:986,-178.89438430112946,-174.97286645641455,0,-91.9125747680664,80.51721954345703,-33.13650894165039
0.09732981026172638,-0.022809991613030434,9.79076862335205,-0.0010476770398270016,0.0026374397393166566,-0.011129670607009786,2.7300026416778564,2019-07-26 15:08:25:996,-178.90658455067572,-175.07015190195895,0,-91.9125747680664,80.51721954345703,-33.13650894165039
0.08535606414079666,-0.029994240030646324,9.869795799255371,1.7847537580308712e-05,-0.0008255151794175883,-0.002871855131595174,2.7400026321411133,2019-07-26 15:08:26:006,-178.91807946314123,-175.165276466578,0,-91.9125747680664,80.51721954345703,-33.13650894165039
0.037461068481206894,0.003532255766913295,9.860217094421387,-0.003178726190577961,0.006366775525565801,-0.006601190917844318,2.750004291534424,2019-07-26 15:08:26:016,-178.93893984602536,-168.0605962954728,0,-92.66226959228516,79.76752471923828,-34.78583526611328
0.0829613134264946,-0.04675748944282532,9.754847526550293,0.0005506098557455085,0.003969345377262779,-0.0031382362591843983,2.7599990367889404,2019-07-26 15:08:26:026,-178.9526433133284,-168.29420074813441,0,-92.66226959228516,79.76752471923828,-34.78583526611328
0.09972456097602844,-0.05633648484945297,9.783584594726562,0.0010833721109239577,0.002371058611727432,-0.005002904152308971,2.7700085639953613,2019-07-26 15:08:26:036,-178.9632430919379,-168.52232721056382,0,-92.66226959228516,79.76752471923828,-34.78583526611328
0.1093035638332367,-0.03957323729991913,9.805137634277344,-0.002912345062988736,0.004768488760030453,-0.004203760769541297,2.780005931854248,2019-07-26 15:08:26:046,-178.97388136778804,-168.74562096362936,0,-92.66226959228516,79.76752471923828,-34.78583526611328
0.08775081485509872,-0.06831023842096329,9.814716339111328,-0.0007812959122377771,0.0010391528437441464,-0.010596908351831337,2.790003776550293,2019-07-26 15:08:26:056,-178.98474203862068,-168.9622945204559,0,-92.66226959228516,79.76752471923828,-34.78583526611328
0.09972456097602844,-0.0611259862780571,9.781189918518066,0.0016161343661024066,0.0029038208669058814,-0.011129670607009786,2.8000035285949707,2019-07-26 15:08:26:066,-178.99499481982963,-169.17679494131073,0,-92.66226959228516,79.76752471923828,-34.78583526611328
0.07817181199789047,-0.051546987146139145,9.833874702453613,0.0002842286956469933,0.004235726504852004,-0.006068428662665869,2.8100006580352783,2019-07-26 15:08:26:076,-179.00836363131114,-169.38741201068706,0,-92.66226959228516,79.76752471923828,-34.78583526611328
0.07338231801986694,-0.022809991613030434,9.797953605651855,0.000816990983334733,-0.002157420817363711,0.0011238620423175197,2.8200175762176514,2019-07-26 15:08:26:086,-179.01840068235475,-169.59745555763635,0,-92.66226959228516,79.76752471923828,-34.78583526611328
0.05422431603074074,-0.058731235563755035,9.80753231048584,-0.002379582807810287,0.0029038208669058814,-0.0018063304912011133,2.830002784729004,2019-07-26 15:08:26:096,-179.0333252244684,-169.7973101937267,0,-92.66226959228516,79.76752471923828,-34.78583526611328
0.07338231801986694,-0.015625741332769394,9.747663497924805,0.0010833721109239577,0.00024000941221253666,-0.008199478203528315,2.8399972915649414,2019-07-26 15:08:26:106,-179.04416689710098,-170.0001350387134,0,-92.66226959228516,79.76752471923828,-34.78583526611328
0.07098756730556488,-0.029994240030646324,9.829085350036621,0.0002842286956469933,0.00343658312208433,-0.006601190917844318,2.850004196166992,2019-07-26 15:08:26:116,-179.05693864672367,-170.19679519994392,0,-92.66226959228516,79.76752471923828,-34.78583526611328
0.09972456097602844,-0.029994240030646324,9.87697982788086,-0.0010476770398270016,0.0007727717161549218,-0.006068428662665869,2.860002279281616,2019-07-26 15:08:26:126,-179.06466416766438,-170.38879125370127,0,-92.66226959228516,79.76752471923828,-34.78583526611328
0.08535606414079666,-0.037178490310907364,9.83626937866211,-0.0005149147521392618,0.001305533971333371,-0.006601190917844318,2.8700122833251953,2019-07-26 15:08:26:136,-179.07416102630197,-170.5763947789709,0,-91.76263427734375,80.06739807128906,-34.18608093261719
0.11169830709695816,-0.0347837395966053,9.783584594726562,-0.00024853360829539187,0.00343658312208433,-0.004736523024719746,2.880002021789551,2019-07-26 15:08:26:146,-179.0815232153735,-170.7606533998864,0,-91.76263427734375,80.06739807128906,-34.18608093261719
0.06619806587696075,-0.04675748944282532,9.80753231048584,1.7847537580308712e-05,-0.0013582774345960375,-0.003404617386773623,2.8900012969970703,2019-07-26 15:08:26:156,-179.09139564712586,-170.939987232096,0,-91.76263427734375,80.06739807128906,-34.18608093261719
0.06380331516265869,-0.06352073699235916,9.788373947143555,-0.0013140581674162262,0.003702964249673555,0.001656624297495969,2.9000003337860107,2019-07-26 15:08:26:166,-179.10417745590752,-171.1130135090168,0,-91.76263427734375,80.06739807128906,-34.18608093261719
0.1021193116903305,-0.05633648484945297,9.812321662902832,-0.002912345062988736,0.0018382962265118203,0.0005910997871390706,2.910004138946533,2019-07-26 15:08:26:176,-179.11120109773861,-171.2825382488349,0,-91.76263427734375,80.06739807128906,-34.18608093261719
0.07338231801986694,-0.051546987146139145,9.774005889892578,-0.002912345062988736,0.0031702019944951057,-0.004736523024719746,2.9200005531311035,2019-07-26 15:08:26:186,-179.12215323664006,-171.44920942095555,0,-91.76263427734375,80.06739807128906,-34.18608093261719
0.08775081485509872,-0.02041524089872837,9.754847526550293,-0.0010476770398270016,0.001305533971333371,0.0024557676802636425,2.9300038814544678,2019-07-26 15:08:26:196,-179.13013553845408,-171.61723856409225,0,-91.76263427734375,80.06739807128906,-34.18608093261719
0.08056656271219254,-0.04675748944282532,9.783584594726562,0.0021488966212808557,0.0026374397393166566,0.0003247186270405554,2.9400174617767334,2019-07-26 15:08:26:206,-179.1395795032166,-171.78062554138998,0,-91.76263427734375,80.06739807128906,-34.18608093261719
0.06619806587696075,-0.04675748944282532,9.84824275970459,-0.003178726190577961,0.00024000941221253666,5.833747100570152e-05,2.9500060081481934,2019-07-26 15:08:26:216,-179.14922000716155,-171.93778968698567,0,-91.76263427734375,80.06739807128906,-34.18608093261719
0.07577706128358841,-0.04675748944282532,9.81950569152832,0.0013497532385131823,0.0031702019944951057,0.0024557676802636425,2.960002899169922,2019-07-26 15:08:26:226,-179.15917227011454,-172.0943350831303,0,-91.76263427734375,80.06739807128906,-34.18608093261719
0.08056656271219254,-0.058731235563755035,9.843453407287598,-0.00371148844575641,0.002371058611727432,0.003521292450694866,2.9700088500976562,2019-07-26 15:08:26:236,-179.1679420983613,-172.24352608982088,0,-91.76263427734375,80.06739807128906,-34.18608093261719
0.08775081485509872,-0.03238898888230324,9.84824275970459,1.7847537580308712e-05,0.004235726504852004,0.003787673578284091,2.9800031185150146,2019-07-26 15:08:26:246,-179.1767500643829,-172.39489689979268,0,-91.76263427734375,80.06739807128906,-34.18608093261719
0.06140856817364693,-0.029994240030646324,9.776400566101074,0.0016161343661024066,0.002371058611727432,0.004853198088640989,2.9900131225585938,2019-07-26 15:08:26:256,-179.18734998880836,-172.54439164037464,0,-91.76263427734375,80.06739807128906,-34.18608093261719
0.08056656271219254,-0.025204740464687347,9.716531753540039,0.0013497532385131823,0.0026374397393166566,-0.00020804367690182974,3.0000033378601074,2019-07-26 15:08:26:266,-179.1955810886936,-172.69128844549905,0,-92.66226959228516,80.06739807128906,-33.586326599121094
0.06619806587696075,-0.037178490310907364,9.81950569152832,0.0018825154936916314,-0.0013582774345960375,0.001656624297495969,3.0100035667419434,2019-07-26 15:08:26:276,-179.2031817209818,-172.8341811000477,0,-92.66226959228516,80.06739807128906,-33.586326599121094
0.06140856817364693,-0.03957323729991913,9.785979270935059,-0.004510631828524084,0.003702964249673555,-0.0026054740040059496,3.0200083255767822,2019-07-26 15:08:26:286,-179.21400757816895,-172.97032964962787,0,-92.66226959228516,80.06739807128906,-33.586326599121094
0.08535606414079666,-0.0611259862780571,9.79076862335205,-0.0007812959122377771,0.0007727717161549218,0.0003247186270405554,3.0300021171569824,2019-07-26 15:08:26:296,-179.22017121168096,-173.103330514757,0,-92.66226959228516,80.06739807128906,-33.586326599121094
0.09732981026172638,-0.04196798801422119,9.759636878967285,0.0032144211316377544,0.0005063905560564065,5.833747100570152e-05,3.0400173664093018,2019-07-26 15:08:26:306,-179.22462507921156,-173.2381439612896,0,-92.66226959228516,80.06739807128906,-33.586326599121094
0.0566190667450428,-0.025204740464687347,9.812321662902832,0.0005506098557455085,0.0031702019944951057,0.002189386552674418,3.050004482269287,2019-07-26 15:08:26:316,-179.23529825855024,-173.37074636338647,0,-92.66226959228516,80.06739807128906,-33.586326599121094
0.07338231801986694,-0.07309973239898682,9.76682186126709,-0.0005149147521392618,0.0031702019944951057,0.006451484854176337,3.060004949569702,2019-07-26 15:08:26:326,-179.2437628477849,-173.4944658589578,0,-92.66226959228516,80.06739807128906,-33.586326599121094
0.04704006761312485,-0.06352073699235916,9.80753231048584,-0.0005149147521392618,-0.0018910396897744866,-0.0026054740040059496,3.070003032684326,2019-07-26 15:08:26:336,-179.25232984194054,-173.616865791365,0,-92.66226959228516,80.06739807128906,-33.586326599121094
0.02069782093167305,-0.025204740464687347,9.865006446838379,-0.0007812959122377771,0.002371058611727432,-0.00047442482074569963,3.080012321472168,2019-07-26 15:08:26:346,-179.26621158005975,-173.74116160426055,0,-92.66226959228516,80.06739807128906,-33.586326599121094
0.0566190667450428,-0.04196798801422119,9.783584594726562,-0.002912345062988736,0.0015719150989225955,0.004586816961051765,3.090001344680786,2019-07-26 15:08:26:356,-179.27513749699554,-173.85978936213516,0,-92.66226959228516,80.06739807128906,-33.586326599121094
0.02788207121193409,-0.03957323729991913,9.860217094421387,0.0005506098557455085,0.0029038208669058814,0.003787673578284091,3.1000027656555176,2019-07-26 15:08:26:366,-179.28802513436054,-173.97830376444617,0,-92.66226959228516,80.06739807128906,-33.586326599121094
0.04225056990981102,-0.015625741332769394,9.831480026245117,0.0016161343661024066,0.001305533971333371,0.002189386552674418,3.1100144386291504,2019-07-26 15:08:26:376,-179.29807402610015,-174.09782493711143,0,-92.66226959228516,80.06739807128906,-33.586326599121094
0.06619806587696075,-0.05633648484945297,9.781189918518066,-0.0010476770398270016,0.0026374397393166566,0.0013902431699067445,3.120041608810425,2019-07-26 15:08:26:386,-179.30584217015482,-174.20867854125493,0,-92.21245574951172,79.9174575805664,-32.53675079345703
0.07338231801986694,-0.025204740464687347,9.742874145507812,0.0013497532385131823,-0.0010918963070068127,5.833747100570152e-05,3.1300482749938965,2019-07-26 15:08:26:397,-179.31048106553342,-174.32229889205283,0,-92.21245574951172,79.9174575805664,-32.53675079345703
0.11169830709695816,-0.09225773066282272,9.7500581741333,-0.00371148844575641,-0.0013582774345960375,-0.002871855131595174,3.1400163173675537,2019-07-26 15:08:26:406,-179.3103839830491,-174.4229329337265,0,-92.21245574951172,79.9174575805664,-32.53675079345703
0.10690881311893463,-0.07070498168468475,9.762031555175781,0.0005506098557455085,0.005567632142798127,0.001656624297495969,3.1500084400177,2019-07-26 15:08:26:416,-179.31475107457183,-174.5264836425513,0,-92.21245574951172,79.9174575805664,-32.53675079345703
0.1021193116903305,-0.04196798801422119,9.862611770629883,-0.0010476770398270016,0.0007727717161549218,0.0005910997871390706,3.160004138946533,2019-07-26 15:08:26:426,-179.3170251781277,-174.6304898129057,0,-92.21245574951172,79.9174575805664,-32.53675079345703
0.09493505954742432,-0.04675748944282532,9.805137634277344,0.000816990983334733,0.001305533971333371,-0.0018063304912011133,3.170008420944214,2019-07-26 15:08:26:436,-179.32032343527973,-174.73287449775114,0,-92.21245574951172,79.9174575805664,-32.53675079345703
0.07577706128358841,-0.044362738728523254,9.795557975769043,-0.00024853360829539187,0.00024000941221253666,0.0003247186270405554,3.180018901824951,2019-07-26 15:08:26:446,-179.32518740747315,-174.8328876511724,0,-92.21245574951172,79.9174575805664,-32.53675079345703
0.0829613134264946,-0.08507348597049713,9.841058731079102,-0.002379582807810287,0.00024000941221253666,0.0005910997871390706,3.190028190612793,2019-07-26 15:08:26:456,-179.329158571496,-174.92498661824948,0,-92.21245574951172,79.9174575805664,-32.53675079345703
0.1093035638332367,-0.018020492047071457,9.800348281860352,-0.003178726190577961,0.0031702019944951057,0.0019230054250851934,3.2000086307525635,2019-07-26 15:08:26:466,-179.33157208301876,-175.02259846479478,0,-92.21245574951172,79.9174575805664,-32.53675079345703
0.08056656271219254,-0.058731235563755035,9.843453407287598,-0.00024853360829539187,0.0021046773541010446,0.003787673578284091,3.2100038528442383,2019-07-26 15:08:26:476,-179.33674298537872,-175.11516995512812,0,-92.21245574951172,79.9174575805664,-32.53675079345703
0.09493505954742432,-0.058731235563755035,9.788373947143555,0.00294804000404853,0.0031702019944951057,-0.001273568236022664,3.220015287399292,2019-07-26 15:08:26:486,-179.34067661690312,-175.2076482421097,0,-92.21245574951172,79.9174575805664,-32.53675079345703
0.07098756730556488,-0.02759948931634426,9.838664054870605,-0.0005149147521392618,0.002371058611727432,0.0005910997871390706,3.2300028800964355,2019-07-26 15:08:26:496,-179.34692495432293,-175.2999919900518,0,-92.21245574951172,79.9174575805664,-32.53675079345703
0.08056656271219254,-0.029994240030646324,9.76682186126709,-0.0015804392950054507,0.0031702019944951057,-0.0031382362591843983,3.2400054931640625,2019-07-26 15:08:26:506,-179.352314535408,-175.38958536940623,0,-92.21245574951172,79.9174575805664,-32.53675079345703
0.0566190667450428,-0.07309973239898682,9.771611213684082,0.0021488966212808557,0.004768488760030453,0.0005910997871390706,3.2500040531158447,2019-07-26 15:08:26:516,-179.36130572270568,-175.47442785447976,0,-92.66226959228516,81.26691436767578,-33.88620376586914
0.06859281659126282,-0.025204740464687347,9.759636878967285,0.0021488966212808557,0.002371058611727432,-0.005002904152308971,3.2600038051605225,2019-07-26 15:08:26:526,-179.36735731402774,-175.56318649341773,0,-92.66226959228516,81.26691436767578,-33.88620376586914
0.10451406240463257,-0.010836242698132992,9.76682186126709,0.0010833721109239577,-0.0018910396897744866,0.005119579216230213,3.2700140476226807,2019-07-26 15:08:26:536,-179.3666853711972,-175.6512603111664,0,-92.66226959228516,81.26691436767578,-33.88620376586914
0.032671570777893066,-0.022809991613030434,9.781189918518066,1.7847537580308712e-05,0.00024000941221253666,5.833747100570152e-05,3.280003309249878,2019-07-26 15:08:26:546,-179.37565865942352,-175.73557281516122,0,-92.66226959228516,81.26691436767578,-33.88620376586914
0.06380331516265869,-0.0036519933491945267,9.769216537475586,-0.0007812959122377771,-0.0005591340518283637,-0.005002904152308971,3.290001392364502,2019-07-26 15:08:26:556,-179.38034765917743,-175.8199943726099,0,-92.66226959228516,81.26691436767578,-33.88620376586914
0.04704006761312485,-0.022809991613030434,9.831480026245117,0.0013497532385131823,0.0021046773541010446,0.0013902431699067445,3.3000028133392334,2019-07-26 15:08:26:566,-179.38843989857114,-175.90169384640402,0,-92.66226959228516,81.26691436767578,-33.88620376586914
0.08056656271219254,-0.06591548770666122,9.80753231048584,-0.0007812959122377771,0.0026374397393166566,0.0003247186270405554,3.3100032806396484,2019-07-26 15:08:26:576,-179.39273887430284,-175.9755197791343,0,-92.66226959228516,81.26691436767578,-33.88620376586914
0.09254030883312225,0.008321755565702915,9.802742958068848,-0.0021132015501838996,-2.63717336631639e-05,-0.0010071871084334394,3.3200180530548096,2019-07-26 15:08:26:586,-179.39405186306925,-168.85579386263802,0,-92.66226959228516,81.26691436767578,-33.88620376586914
0.06619806587696075,-0.06591548770666122,9.831480026245117,-0.0013140581674162262,0.0010391528437441464,-0.003404617386773623,3.330005168914795,2019-07-26 15:08:26:596,-179.3990379079125,-169.07025837974822,0,-92.66226959228516,81.26691436767578,-33.88620376586914
0.044645316898822784,-0.051546987146139145,9.814716339111328,0.0018825154936916314,0.0005063905560564065,0.0003247186270405554,3.3400018215179443,2019-07-26 15:08:26:606,-179.40612887151104,-169.2838915835491,0,-92.66226959228516,81.26691436767578,-33.88620376586914
0.07098756730556488,-0.04675748944282532,9.802742958068848,-0.002912345062988736,0.0029038208669058814,-0.006068428662665869,3.3500030040740967,2019-07-26 15:08:26:616,-179.41133885827995,-169.4911124911822,0,-92.66226959228516,81.26691436767578,-33.88620376586914
0.0566190667450428,-0.058731235563755035,9.845848083496094,0.004812708157247427,-0.0008255151794175883,-0.00047442482074569963,3.360016345977783,2019-07-26 15:08:26:626,-179.41605836185607,-169.69716078294482,0,-92.66226959228516,81.26691436767578,-33.88620376586914
0.06619806587696075,-0.051546987146139145,9.783584594726562,0.0016161343661024066,-0.002423801944952936,0.0003247186270405554,3.3700058460235596,2019-07-26 15:08:26:636,-179.41862424236731,-169.89808661692075,0,-92.36239624023438,79.76752471923828,-33.586326599121094
0.044645316898822784,-0.025204740464687347,9.812321662902832,0.0018825154936916314,-2.63717336631639e-05,0.0003247186270405554,3.3800437450408936,2019-07-26 15:08:26:646,-179.42502310094844,-170.09824243348234,0,-92.36239624023438,79.76752471923828,-33.586326599121094
0.06140856817364693,-0.04915223643183708,9.752452850341797,0.0016161343661024066,0.004235726504852004,0.0013902431699067445,3.3900327682495117,2019-07-26 15:08:26:656,-179.431682956539,-170.291408695086,0,-92.36239624023438,79.76752471923828,-33.586326599121094
0.05182956904172897,-0.01323099248111248,9.754847526550293,-0.002379582807810287,0.006366775525565801,0.0005910997871390706,3.4000024795532227,2019-07-26 15:08:26:666,-179.44052497047215,-170.48269417339733,0,-92.36239624023438,79.76752471923828,-33.586326599121094
0.0829613134264946,0.0059270053170621395,9.805137634277344,0.00294804000404853,0.0018382962265118203,0.004853198088640989,3.410017728805542,2019-07-26 15:08:26:676,-179.44305288033618,-163.4753908170914,0,-92.36239624023438,79.76752471923828,-33.586326599121094
0.08056656271219254,-0.037178490310907364,9.81950569152832,-0.0010476770398270016,-0.0005591340518283637,0.0013902431699067445,3.4200034141540527,2019-07-26 15:08:26:686,-179.44447658226372,-163.80095694298137,0,-92.36239624023438,79.76752471923828,-33.586326599121094
0.07577706128358841,-0.07549448311328888,9.809926986694336,0.0016161343661024066,0.003702964249673555,-0.0007408059808442149,3.430004358291626,2019-07-26 15:08:26:696,-179.4488149746436,-164.11702687189046,0,-92.36239624023438,79.76752471923828,-33.586326599121094
0.0566190667450428,-0.04196798801422119,9.774005889892578,-0.0007812959122377771,0.0005063905560564065,-0.0026054740040059496,3.440005302429199,2019-07-26 15:08:26:706,-179.453485029938,-164.4293272519338,0,-92.36239624023438,79.76752471923828,-33.586326599121094
0.0566190667450428,-0.044362738728523254,9.857821464538574,0.006144613795193549,0.003702964249673555,-0.005269285279898195,3.450002431869507,2019-07-26 15:08:26:716,-179.45991237026956,-164.7390330279289,0,-92.36239624023438,79.76752471923828,-33.586326599121094
0.059013817459344864,-0.0611259862780571,9.81950569152832,-0.00024853360829539187,0.0015719150989225955,-0.0026054740040059496,3.460010290145874,2019-07-26 15:08:26:726,-179.46471073960862,-165.0369795249673,0,-92.36239624023438,79.76752471923828,-33.586326599121094
0.08056656271219254,-0.044362738728523254,9.824295043945312,-0.0018468204225946753,0.0005063905560564065,0.003521292450694866,3.47005295753479,2019-07-26 15:08:26:737,-179.46630492189902,-165.33002404375864,0,-92.36239624023438,79.76752471923828,-33.586326599121094
0.07338231801986694,-0.080283984541893,9.84824275970459,0.0032144211316377544,-0.002157420817363711,0.0011238620423175197,3.479975938796997,2019-07-26 15:08:26:746,-179.4672383493347,-165.61587312884873,0,-92.36239624023438,79.76752471923828,-33.586326599121094
0.1021193116903305,-0.044362738728523254,9.802742958068848,-0.002379582807810287,-2.63717336631639e-05,0.0024557676802636425,3.4900336265563965,2019-07-26 15:08:26:756,-179.46594163457442,-165.89702597057675,0,-92.36239624023438,79.76752471923828,-33.586326599121094
0.07577706128358841,-0.04675748944282532,9.771611213684082,0.0013497532385131823,-0.0018910396897744866,0.004054054705873315,3.5000030994415283,2019-07-26 15:08:26:766,-179.4666780389855,-166.17435781924416,0,-92.5123291015625,80.81709289550781,-34.63589859008789
0.059013817459344864,-0.02041524089872837,9.797953605651855,-0.0013140581674162262,0.0021046773541010446,-0.001273568236022664,3.5100173950195312,2019-07-26 15:08:26:776,-179.47162608806448,-166.4477441136428,0,-92.5123291015625,80.81709289550781,-34.63589859008789
0.0566190667450428,-0.015625741332769394,9.879374504089355,0.0002842286956469933,0.0015719150989225955,-0.004203760769541297,3.5200486183166504,2019-07-26 15:08:26:787,-179.47651173691344,-166.71713688449603,0,-92.5123291015625,80.81709289550781,-34.63589859008789
0.08775081485509872,-0.058731235563755035,9.797953605651855,0.0010833721109239577,0.0026374397393166566,0.0013902431699067445,3.5300049781799316,2019-07-26 15:08:26:796,-179.47819337256593,-166.97653099912026,0,-92.5123291015625,80.81709289550781,-34.63589859008789
0.07338231801986694,-0.02041524089872837,9.805137634277344,-0.002912345062988736,0.003969345377262779,-0.0026054740040059496,3.5400052070617676,2019-07-26 15:08:26:806,-179.48228238792774,-167.2329791607438,0,-92.5123291015625,80.81709289550781,-34.63589859008789
0.07577706128358841,-0.025204740464687347,9.843453407287598,-0.002912345062988736,0.0015719150989225955,-0.003404617386773623,3.5500106811523438,2019-07-26 15:08:26:816,-179.484698516459,-167.4837492268279,0,-92.5123291015625,80.81709289550781,-34.63589859008789
0.03985581919550896,-0.010836242698132992,9.817111015319824,-0.0013140581674162262,-2.63717336631639e-05,0.0024557676802636425,3.560002565383911,2019-07-26 15:08:26:826,-179.49033755149446,-167.7320721246302,0,-92.5123291015625,80.81709289550781,-34.63589859008789
0.08535606414079666,-0.03957323729991913,9.81950569152832,0.0010833721109239577,0.0026374397393166566,0.0011238620423175197,3.570003032684326,2019-07-26 15:08:26:836,-179.49205116681867,-167.97342093425732,0,-92.5123291015625,80.81709289550781,-34.63589859008789
0.12127730995416641,-0.07788923382759094,9.826689720153809,0.0018825154936916314,0.003702964249673555,0.0019230054250851934,3.5800037384033203,2019-07-26 15:08:26:846,-179.49014775819575,-168.20592694615573,0,-92.5123291015625,80.81709289550781,-34.63589859008789
0.1021193116903305,-0.06352073699235916,9.79076862335205,0.0013497532385131823,0.00024000941221253666,-0.0015399493636118885,3.5900039672851562,2019-07-26 15:08:26:856,-179.48852791818223,-168.4351319202864,0,-92.5123291015625,80.81709289550781,-34.63589859008789
0.10690881311893463,-0.05633648484945297,9.81950569152832,-0.0013140581674162262,0.0015719150989225955,0.002988529935442092,3.6000144481658936,2019-07-26 15:08:26:866,-179.48716537313348,-168.65911638993123,0,-92.5123291015625,80.81709289550781,-34.63589859008789
0.08535606414079666,-0.029994240030646324,9.821900367736816,-0.0018468204225946753,0.004768488760030453,-0.001273568236022664,3.6100029945373535,2019-07-26 15:08:26:876,-179.49013830561336,-168.88139886247305,0,-92.5123291015625,80.81709289550781,-34.63589859008789
0.0829613134264946,-0.008441492915153503,9.752452850341797,-0.0021132015501838996,0.004502107632441229,0.0011238620423175197,3.620004177093506,2019-07-26 15:08:26:886,-179.49311602629987,-169.10159230788122,0,-92.5123291015625,80.21733856201172,-33.736263275146484
0.07338231801986694,-0.04196798801422119,9.730899810791016,0.0002842286956469933,0.0018382962265118203,0.002988529935442092,3.63000226020813,2019-07-26 15:08:26:896,-179.4956443343664,-169.31477788470605,0,-92.5123291015625,80.21733856201172,-33.736263275146484
0.06380331516265869,-0.044362738728523254,9.759636878967285,-0.003178726190577961,-0.00029275289172984846,-0.004470141897130521,3.640002727508545,2019-07-26 15:08:26:906,-179.49807577970458,-169.52148863341827,0,-92.5123291015625,80.21733856201172,-33.736263275146484
0.08775081485509872,-0.04915223643183708,9.795557975769043,-0.0007812959122377771,-0.0005591340518283637,0.007517009364533235,3.650017738342285,2019-07-26 15:08:26:916,-179.49753474443443,-169.7248695686309,0,-92.5123291015625,80.21733856201172,-33.736263275146484
0.0829613134264946,-0.051546987146139145,9.757242202758789,0.0010833721109239577,0.005034869887619677,0.003787673578284091,3.6600029468536377,2019-07-26 15:08:26:926,-179.50066398548037,-169.9249258351665,0,-92.5123291015625,80.21733856201172,-33.736263275146484
0.06140856817364693,-0.07549448311328888,9.833874702453613,-0.0010476770398270016,0.007165918908333475,0.004054054705873315,3.670003652572632,2019-07-26 15:08:26:936,-179.50751895729567,-170.11704200670334,0,-92.5123291015625,80.21733856201172,-33.736263275146484
0.044645316898822784,-0.07309973239898682,9.841058731079102,0.0010833721109239577,0.0021046773541010446,0.0003247186270405554,3.6799886226654053,2019-07-26 15:08:26:946,-179.51335000735534,-170.30679681924977,0,-92.5123291015625,80.21733856201172,-33.736263275146484
0.06140856817364693,-0.051546987146139145,9.814716339111328,0.0013497532385131823,0.0015719150989225955,0.0032549110630313164,3.690042734146118,2019-07-26 15:08:26:956,-179.51680075771907,-170.49540456383497,0,-92.5123291015625,80.21733856201172,-33.736263275146484
0.0566190667450428,-0.03957323729991913,9.809926986694336,0.0018825154936916314,-0.0034893267153841595,-0.0007408059808442149,3.7000205516815186,2019-07-26 15:08:26:966,-179.5178961327184,-170.68192856023072,0,-92.5123291015625,80.21733856201172,-33.736263275146484
0.05182956904172897,-0.02041524089872837,9.814716339111328,0.0005506098557455085,0.002371058611727432,-0.003404617386773623,3.7100181579589844,2019-07-26 15:08:26:976,-179.5228179410107,-170.86621550705263,0,-92.5123291015625,80.21733856201172,-33.736263275146484
0.0829613134264946,-0.02759948931634426,9.77879524230957,-0.0021132015501838996,0.0010391528437441464,-0.0007408059808442149,3.7199954986572266,2019-07-26 15:08:26:986,-179.523222260986,-171.04447312357559,0,-92.5123291015625,80.21733856201172,-33.736263275146484
0.02069782093167305,-0.04675748944282532,9.769216537475586,0.0010833721109239577,-0.0034893267153841595,0.0024557676802636425,3.729990005493164,2019-07-26 15:08:26:996,-179.52837181767296,-171.21870709194175,0,-92.5123291015625,80.21733856201172,-33.736263275146484
0.04704006761312485,-0.058731235563755035,9.817111015319824,-0.00024853360829539187,0.003702964249673555,0.0027221488078528673,3.740034341812134,2019-07-26 15:08:27:006,-179.5344020355235,-171.38733737880614,0,-92.5123291015625,80.21733856201172,-33.736263275146484
0.032671570777893066,-0.03957323729991913,9.757242202758789,-0.0007812959122377771,-2.63717336631639e-05,-0.0026054740040059496,3.750255823135376,2019-07-26 15:08:27:017,-179.53986184029387,-171.55449466116073,0,-93.4119644165039,79.31770324707031,-34.336021423339844
0.06619806587696075,-0.06831023842096329,9.802742958068848,-0.00024853360829539187,-2.63717336631639e-05,0.0008574809147282953,3.7600278854370117,2019-07-26 15:08:27:026,-179.54131186628695,-171.71528323457477,0,-93.4119644165039,79.31770324707031,-34.336021423339844
0.07817181199789047,0.0011375061003491282,9.77879524230957,-0.0015804392950054507,-0.00029275289172984846,-0.0010071871084334394,3.7700588703155518,2019-07-26 15:08:27:037,-179.54116047078136,-164.68022070292085,0,-93.4119644165039,79.31770324707031,-34.336021423339844
0.08775081485509872,-0.0611259862780571,9.862611770629883,0.005878232667604326,0.0010391528437441464,0.0008574809147282953,3.7800426483154297,2019-07-26 15:08:27:046,-179.54072448885,-164.9828095486634,0,-93.4119644165039,79.31770324707031,-34.336021423339844
0.07098756730556488,-0.02759948931634426,9.802742958068848,-0.0026459639353995116,0.0029038208669058814,-0.0010071871084334394,3.790040969848633,2019-07-26 15:08:27:056,-179.54324209678475,-165.27844160069586,0,-93.4119644165039,79.31770324707031,-34.336021423339844
0.08056656271219254,-0.029994240030646324,9.817111015319824,-0.0013140581674162262,0.0021046773541010446,0.0003247186270405554,3.799994707107544,2019-07-26 15:08:27:066,-179.54414953099058,-165.56863723283743,0,-93.4119644165039,79.31770324707031,-34.336021423339844
0.10451406240463257,-0.029994240030646324,9.80753231048584,0.000816990983334733,0.0021046773541010446,-0.0010071871084334394,3.8100039958953857,2019-07-26 15:08:27:076,-179.54223841327317,-165.85421912678999,0,-93.4119644165039,79.31770324707031,-34.336021423339844
0.09732981026172638,-0.044362738728523254,9.855426788330078,0.0024152777488700805,0.0029038208669058814,0.0011238620423175197,3.8200037479400635,2019-07-26 15:08:27:086,-179.54170767883926,-166.13333275193955,0,-93.4119644165039,79.31770324707031,-34.336021423339844
0.07577706128358841,-0.0611259862780571,9.80753231048584,-0.0015804392950054507,-0.0010918963070068127,-0.00020804367690182974,3.830015182495117,2019-07-26 15:08:27:096,-179.54140608309902,-166.4026357779974,0,-93.4119644165039,79.31770324707031,-34.336021423339844
0.07338231801986694,-0.06352073699235916,9.843453407287598,-0.0015804392950054507,-0.0010918963070068127,5.833747100570152e-05,3.840009927749634,2019-07-26 15:08:27:106,-179.54142261584732,-166.6663015150597,0,-93.4119644165039,79.31770324707031,-34.336021423339844
0.07817181199789047,-0.025204740464687347,9.865006446838379,-0.0013140581674162262,0.004768488760030453,0.002988529935442092,3.850013494491577,2019-07-26 15:08:27:116,-179.5441923990451,-166.92930961252685,0,-93.4119644165039,79.31770324707031,-34.336021423339844
0.12367206066846848,-0.06352073699235916,9.793163299560547,-0.0018468204225946753,0.005834013270387351,0.0024557676802636425,3.8603453636169434,2019-07-26 15:08:27:127,-179.54222273466354,-167.1822194476658,0,-93.4119644165039,79.31770324707031,-34.336021423339844
0.09014556556940079,-0.0347837395966053,9.79076862335205,-0.0042442507009348585,0.001305533971333371,-0.002339092876416725,3.870058298110962,2019-07-26 15:08:27:137,-179.54153991603846,-167.43218924340297,0,-92.21245574951172,79.9174575805664,-33.736263275146484
0.09493505954742432,-0.0611259862780571,9.831480026245117,-0.005309775211291758,-2.63717336631639e-05,-0.00047442482074569963,3.880064010620117,2019-07-26 15:08:27:147,-179.5396294177973,-167.67343783007175,0,-92.21245574951172,79.9174575805664,-33.736263275146484
0.08056656271219254,-0.04196798801422119,9.805137634277344,-0.0010476770398270016,-2.63717336631639e-05,0.0027221488078528673,3.8900301456451416,2019-07-26 15:08:27:156,-179.53940655871546,-167.91447807402182,0,-92.21245574951172,79.9174575805664,-33.736263275146484
0.05182956904172897,-0.008441492915153503,9.809926986694336,-0.0021132015501838996,-2.63717336631639e-05,0.003521292450694866,3.9000110626220703,2019-07-26 15:08:27:166,-179.54254939727798,-168.15401815101188,0,-92.21245574951172,79.9174575805664,-33.736263275146484
0.08775081485509872,-0.03238898888230324,9.759636878967285,0.0032144211316377544,-0.00588675686368718,-0.002871855131595174,3.9100186824798584,2019-07-26 15:08:27:176,-179.53808760985092,-168.38894115761838,0,-92.21245574951172,79.9174575805664,-33.736263275146484
0.05422431603074074,-0.05633648484945297,9.797953605651855,1.7847537580308712e-05,0.0007727717161549218,-0.005269285279898195,3.9200186729431152,2019-07-26 15:08:27:186,-179.54141804991457,-168.61458361827016,0,-92.21245574951172,79.9174575805664,-33.736263275146484
0.04943481832742691,-0.0347837395966053,9.845848083496094,0.0002842286956469933,0.002371058611727432,-0.003404617386773623,3.9300129413604736,2019-07-26 15:08:27:196,-179.54616681610128,-168.83840313658803,0,-92.21245574951172,79.9174575805664,-33.736263275146484
0.09254030883312225,-0.04915223643183708,9.817111015319824,0.0021488966212808557,0.0015719150989225955,-0.0015399493636118885,3.9400181770324707,2019-07-26 15:08:27:206,-179.54532499702373,-169.0571049946402,0,-92.21245574951172,79.9174575805664,-33.736263275146484
0.06619806587696075,-0.05633648484945297,9.824295043945312,-0.003178726190577961,0.0029038208669058814,-0.0015399493636118885,3.9500086307525635,2019-07-26 15:08:27:216,-179.5483261403435,-169.2676086763272,0,-92.21245574951172,79.9174575805664,-33.736263275146484
0.08775081485509872,-0.06831023842096329,9.752452850341797,-0.006375299721648655,-2.63717336631639e-05,0.0013902431699067445,3.96003794670105,2019-07-26 15:08:27:226,-179.54703430251217,-169.47063994796056,0,-92.21245574951172,79.9174575805664,-33.736263275146484
0.07577706128358841,-0.06591548770666122,9.833874702453613,-0.00024853360829539187,0.003969345377262779,-0.001273568236022664,3.970012664794922,2019-07-26 15:08:27:236,-179.54948683654754,-169.67340710690544,0,-92.21245574951172,79.9174575805664,-33.736263275146484
0.08056656271219254,-0.0347837395966053,9.809926986694336,-0.0034451073181671855,0.00343658312208433,0.001656624297495969,3.980048894882202,2019-07-26 15:08:27:247,-179.55102281106147,-169.87393439777904,0,-92.21245574951172,79.9174575805664,-33.736263275146484
0.05182956904172897,-0.03957323729991913,9.793163299560547,-0.0015804392950054507,0.0021046773541010446,-0.003937379641952073,3.990063190460205,2019-07-26 15:08:27:257,-179.55512120357716,-170.07093651647844,0,-92.21245574951172,79.9174575805664,-33.736263275146484
0.07338231801986694,-0.04915223643183708,9.831480026245117,-0.002379582807810287,-2.63717336631639e-05,-0.005269285279898195,4.000047445297241,2019-07-26 15:08:27:267,-179.55545102238094,-170.26245482904108,0,-92.06251525878906,79.16776275634766,-32.986568450927734
0.05422431603074074,-0.0347837395966053,9.797953605651855,-0.0034451073181671855,-2.63717336631639e-05,-0.0055356664074874195,4.00999116897583,2019-07-26 15:08:27:276,-179.5579855599804,-170.45121409489838,0,-92.06251525878906,79.16776275634766,-32.986568450927734
0.04704006761312485,-0.08507348597049713,9.795557975769043,-0.005576156338880983,0.003702964249673555,-0.00047442482074569963,4.019983768463135,2019-07-26 15:08:27:286,-179.56340066472148,-170.6291092086025,0,-92.06251525878906,79.16776275634766,-32.986568450927734
0.0566190667450428,-0.0874682292342186,9.795557975769043,-0.0015804392950054507,0.002371058611727432,-0.0020727116187903376,4.0299766063690186,2019-07-26 15:08:27:296,-179.56683963897706,-170.80540820521676,0,-92.06251525878906,79.16776275634766,-32.986568450927734
0.07098756730556488,-0.07309973239898682,9.821900367736816,-0.00024853360829539187,-0.00029275289172984846,-0.0007408059808442149,4.040033340454102,2019-07-26 15:08:27:306,-179.56705559791348,-170.98063135090658,0,-92.06251525878906,79.16776275634766,-32.986568450927734
0.06619806587696075,-0.022809991613030434,9.795557975769043,0.000816990983334733,-0.0029565642001313846,-0.003670998514362848,4.050070762634277,2019-07-26 15:08:27:317,-179.56630422386783,-171.1588107992255,0,-92.06251525878906,79.16776275634766,-32.986568450927734
0.08056656271219254,-0.02759948931634426,9.824295043945312,-0.0013140581674162262,-0.0013582774345960375,0.004853198088640989,4.060063600540161,2019-07-26 15:08:27:327,-179.56481886097149,-171.33167804627533,0,-92.06251525878906,79.16776275634766,-32.986568450927734
0.023092571645975113,-0.0347837395966053,9.797953605651855,0.0002842286956469933,-0.0008255151794175883,0.0019230054250851934,4.070278644561768,2019-07-26 15:08:27:337,-179.5703482131453,-171.50113941063756,0,-92.06251525878906,79.16776275634766,-32.986568450927734
0.0829613134264946,-0.05394173786044121,9.757242202758789,-0.0005149147521392618,-0.002157420817363711,-0.00047442482074569963,4.080033779144287,2019-07-26 15:08:27:346,-179.56801656775818,-171.66449958640715,0,-92.06251525878906,79.16776275634766,-32.986568450927734
0.07817181199789047,-0.029994240030646324,9.714137077331543,-0.004510631828524084,0.0018382962265118203,-0.0015399493636118885,4.09008264541626,2019-07-26 15:08:27:357,-179.56847224377157,-171.82512628421114,0,-92.06251525878906,79.16776275634766,-32.986568450927734
0.0829613134264946,-0.022809991613030434,9.797953605651855,0.0013497532385131823,-2.63717336631639e-05,-0.0026054740040059496,4.100053548812866,2019-07-26 15:08:27:367,-179.5673855602339,-171.98671170968092,0,-92.06251525878906,79.16776275634766,-32.986568450927734
0.07338231801986694,-0.06831023842096329,9.826689720153809,0.000816990983334733,0.0015719150989225955,0.0024557676802636425,4.11007285118103,2019-07-26 15:08:27:377,-179.56836503891194,-172.13947139580736,0,-92.06251525878906,79.16776275634766,-32.986568450927734
0.07577706128358841,-0.022809991613030434,9.829085350036621,-0.0018468204225946753,-0.002157420817363711,-0.002871855131595174,4.120063304901123,2019-07-26 15:08:27:387,-179.56695327622077,-172.29298669189578,0,-91.9125747680664,80.21733856201172,-31.936996459960938
0.04225056990981102,-0.04196798801422119,9.757242202758789,-0.0021132015501838996,0.002371058611727432,0.0003247186270405554,4.130077362060547,2019-07-26 15:08:27:397,-179.57198544391758,-172.44100993236532,0,-91.9125747680664,80.21733856201172,-31.936996459960938
0.08535606414079666,-0.025204740464687347,9.800348281860352,-0.0015804392950054507,-0.0008255151794175883,0.004853198088640989,4.140285015106201,2019-07-26 15:08:27:407,-179.57009249274068,-172.5883368086134,0,-91.9125747680664,80.21733856201172,-31.936996459960938
0.06859281659126282,-0.05394173786044121,9.802742958068848,0.0024152777488700805,0.0018382962265118203,0.006984247109354786,4.150301694869995,2019-07-26 15:08:27:417,-179.57170637136738,-172.73162292207303,0,-91.9125747680664,80.21733856201172,-31.936996459960938
0.09254030883312225,-0.008441492915153503,9.733294486999512,0.0016161343661024066,0.004768488760030453,0.0005910997871390706,4.1600282192230225,2019-07-26 15:08:27:426,-179.57198193748957,-172.8768792745594,0,-91.9125747680664,80.21733856201172,-31.936996459960938
0.07577706128358841,-0.04675748944282532,9.81950569152832,-0.0042442507009348585,0.004768488760030453,0.0008574809147282953,4.170288801193237,2019-07-26 15:08:27:437,-179.57444672191923,-173.01143998861986,0,-91.9125747680664,80.21733856201172,-31.936996459960938
0.09972456097602844,-0.05394173786044121,9.812321662902832,0.007210138305550448,0.004235726504852004,0.006717865981765561,4.180042505264282,2019-07-26 15:08:27:446,-179.57363179897058,-173.14886052694155,0,-91.9125747680664,80.21733856201172,-31.936996459960938
0.07817181199789047,-0.058731235563755035,9.845848083496094,-0.0005149147521392618,0.002371058611727432,-0.0015399493636118885,4.190242290496826,2019-07-26 15:08:27:457,-179.57441922023844,-173.2787530232844,0,-91.9125747680664,80.21733856201172,-31.936996459960938
0.06859281659126282,-0.06831023842096329,9.857821464538574,-0.00024853360829539187,0.00024000941221253666,-0.00020804367690182974,4.199979782104492,2019-07-26 15:08:27:466,-179.57508866758863,-173.4051015258828,0,-91.9125747680664,80.21733856201172,-31.936996459960938
0.06859281659126282,-0.06352073699235916,9.788373947143555,0.0002842286956469933,0.004235726504852004,0.004586816961051765,4.210006475448608,2019-07-26 15:08:27:476,-179.57794163343465,-173.5297233077667,0,-91.9125747680664,80.21733856201172,-31.936996459960938
0.04225056990981102,-0.02041524089872837,9.745268821716309,-0.003977869573345634,0.004768488760030453,0.0019230054250851934,4.219994306564331,2019-07-26 15:08:27:486,-179.58408896164707,-173.65449743063846,0,-91.9125747680664,80.21733856201172,-31.936996459960938
0.04943481832742691,-0.03238898888230324,9.79076862335205,-0.0013140581674162262,0.003702964249673555,0.0032549110630313164,4.229993581771851,2019-07-26 15:08:27:496,-179.58870041878086,-173.77687888686694,0,-91.9125747680664,80.21733856201172,-31.936996459960938
0.06619806587696075,-0.03957323729991913,9.80753231048584,-0.0015804392950054507,0.0010391528437441464,-0.004203760769541297,4.23999547958374,2019-07-26 15:08:27:506,-179.58977551576027,-173.89583000006496,0,-91.9125747680664,80.21733856201172,-31.936996459960938
0.10451406240463257,-0.05633648484945297,9.76682186126709,-0.005043394083702533,0.0007727717161549218,0.0024557676802636425,4.249996185302734,2019-07-26 15:08:27:516,-179.58615205355778,-174.00847160260886,0,-92.66226959228516,79.76752471923828,-34.18608093261719
0.0829613134264946,-0.03957323729991913,9.821900367736816,-0.004777012956113309,-0.0010918963070068127,-0.0020727116187903376,4.259997129440308,2019-07-26 15:08:27:526,-179.5841370367187,-174.12100266868805,0,-92.66226959228516,79.76752471923828,-34.18608093261719
0.06619806587696075,-0.010836242698132992,9.817111015319824,0.0021488966212808557,0.0005063905560564065,0.002189386552674418,4.269994020462036,2019-07-26 15:08:27:536,-179.58501160333498,-174.23852396810923,0,-92.66226959228516,79.76752471923828,-34.18608093261719
0.12367206066846848,-0.044362738728523254,9.833874702453613,-0.0021132015501838996,-0.0008255151794175883,0.0011238620423175197,4.279979705810547,2019-07-26 15:08:27:546,-179.5784380884164,-174.3473991891142,0,-92.66226959228516,79.76752471923828,-34.18608093261719
0.14283005893230438,-0.07788923382759094,9.800348281860352,-0.006375299721648655,0.0018382962265118203,0.002189386552674418,4.290049314498901,2019-07-26 15:08:27:557,-179.57120934629714,-174.44773947989435,0,-92.66226959228516,79.76752471923828,-34.18608093261719
0.04943481832742691,-0.07070498168468475,9.754847526550293,-0.0026459639353995116,0.003969345377262779,0.005119579216230213,4.3000102043151855,2019-07-26 15:08:27:566,-179.57619809701384,-174.5489991280691,0,-92.66226959228516,79.76752471923828,-34.18608093261719
0.06380331516265869,-0.025204740464687347,9.793163299560547,-0.00371148844575641,-0.0013582774345960375,0.0008574809147282953,4.309991359710693,2019-07-26 15:08:27:576,-179.57644726673027,-174.65298983165832,0,-92.66226959228516,79.76752471923828,-34.18608093261719
0.09014556556940079,-0.010836242698132992,9.721321105957031,-0.0005149147521392618,0.005301251015208902,0.003521292450694866,4.319993734359741,2019-07-26 15:08:27:586,-179.57726993164772,-174.758363504287,0,-92.66226959228516,79.76752471923828,-34.18608093261719
0.09972456097602844,-0.010836242698132992,9.821900367736816,-0.0007812959122377771,0.006633156653155026,0.0008574809147282953,4.330026865005493,2019-07-26 15:08:27:596,-179.5778269723436,-174.86149182635322,0,-92.66226959228516,79.76752471923828,-34.18608093261719
0.05422431603074074,-0.09225773066282272,9.829085350036621,0.0005506098557455085,-0.0005591340518283637,-0.00020804367690182974,4.34013295173645,2019-07-26 15:08:27:607,-179.57963151743715,-174.95381896281998,0,-92.66226959228516,79.76752471923828,-34.18608093261719
0.09732981026172638,-0.022809991613030434,9.774005889892578,0.0005506098557455085,0.004768488760030453,-0.0015399493636118885,4.350064754486084,2019-07-26 15:08:27:617,-179.57928744649985,-175.0523753772576,0,-92.66226959228516,79.76752471923828,-34.18608093261719
0.06140856817364693,-0.037178490310907364,9.850637435913086,-0.0005149147521392618,0.00024000941221253666,0.0013902431699067445,4.359988451004028,2019-07-26 15:08:27:626,-179.58069192452228,-175.1467160328584,0,-92.66226959228516,79.76752471923828,-34.18608093261719
0.06859281659126282,-0.03238898888230324,9.80753231048584,-0.00024853360829539187,0.0029038208669058814,0.0024557676802636425,4.370011329650879,2019-07-26 15:08:27:636,-179.58269802923604,-175.23985751433196,0,-92.96215057373047,81.56678771972656,-33.28644561767578
0.09493505954742432,-0.051546987146139145,9.81950569152832,-0.00024853360829539187,0.0026374397393166566,0.0024557676802636425,4.379992485046387,2019-07-26 15:08:27:646,-179.58144382081113,-175.32890570638483,0,-92.96215057373047,81.56678771972656,-33.28644561767578
0.06859281659126282,-0.04675748944282532,9.845848083496094,0.000816990983334733,0.004768488760030453,-0.0031382362591843983,4.389978647232056,2019-07-26 15:08:27:656,-179.5845056477526,-175.41734383612965,0,-92.96215057373047,81.56678771972656,-33.28644561767578
0.0829613134264946,-0.07070498168468475,9.81950569152832,0.0018825154936916314,0.004235726504852004,-0.0015399493636118885,4.400002956390381,2019-07-26 15:08:27:666,-179.58551849119883,-175.50180557929838,0,-92.96215057373047,81.56678771972656,-33.28644561767578
0.02069782093167305,-0.02041524089872837,9.795557975769043,-0.00024853360829539187,0.003969345377262779,-0.00020804367690182974,4.409991025924683,2019-07-26 15:08:27:676,-179.59361295090935,-175.58924184643527,0,-92.96215057373047,81.56678771972656,-33.28644561767578
0.06619806587696075,-0.05633648484945297,9.829085350036621,-0.00024853360829539187,0.003969345377262779,0.0027221488078528673,4.41999363899231,2019-07-26 15:08:27:686,-179.59625252756,-175.67074955230956,0,-92.96215057373047,81.56678771972656,-33.28644561767578
0.06140856817364693,-0.0347837395966053,9.802742958068848,0.0026816588764593053,-0.0026901830725421603,-0.00047442482074569963,4.429995775222778,2019-07-26 15:08:27:696,-179.595638209466,-175.7547745175698,0,-92.96215057373047,81.56678771972656,-33.28644561767578
0.015908321365714073,-0.05633648484945297,9.764426231384277,0.00294804000404853,0.0021046773541010446,0.0013902431699067445,4.439991474151611,2019-07-26 15:08:27:706,-179.60303977256444,-175.83472227539934,0,-92.96215057373047,81.56678771972656,-33.28644561767578
0.05422431603074074,-0.0611259862780571,9.781189918518066,-0.0005149147521392618,0.0007727717161549218,-0.003937379641952073,4.449993848800659,2019-07-26 15:08:27:716,-179.6050604041696,-175.91057751381936,0,-92.96215057373047,81.56678771972656,-33.28644561767578
0.05182956904172897,-0.03957323729991913,9.869795799255371,-0.003178726190577961,0.0021046773541010446,-0.0007408059808442149,4.460002422332764,2019-07-26 15:08:27:726,-179.60812445549442,-175.98598502513616,0,-92.96215057373047,81.56678771972656,-33.28644561767578
0.04704006761312485,-0.05394173786044121,9.752452850341797,-0.0007812959122377771,-2.63717336631639e-05,0.0027221488078528673,4.469993829727173,2019-07-26 15:08:27:736,-179.6104199948532,-176.05948890226537,0,-92.96215057373047,81.56678771972656,-33.28644561767578
0.05422431603074074,-0.058731235563755035,9.896138191223145,0.0016161343661024066,0.0015719150989225955,-0.00846585933111754,4.479996681213379,2019-07-26 15:08:27:746,-179.6128156753506,-176.13240618253286,0,-92.96215057373047,81.56678771972656,-33.28644561767578
0.07817181199789047,-0.058731235563755035,9.860217094421387,0.0032144211316377544,0.0031702019944951057,-0.0015399493636118885,4.490015506744385,2019-07-26 15:08:27:756,-179.61325814728102,-176.20474091764999,0,-92.96215057373047,81.56678771972656,-33.28644561767578
0.07577706128358841,-0.02759948931634426,9.783584594726562,0.0002842286956469933,0.002371058611727432,-0.0020727116187903376,4.500018358230591,2019-07-26 15:08:27:766,-179.61344939673842,-176.27757311985675,0,-92.06251525878906,79.76752471923828,-33.88620376586914
0.07817181199789047,-0.018020492047071457,9.817111015319824,-0.003977869573345634,0.0005063905560564065,-0.0031382362591843983,4.509993314743042,2019-07-26 15:08:27:776,-179.61233951646227,-176.34769021874303,0,-92.06251525878906,79.76752471923828,-33.88620376586914
