ACCELEROMETER X (m/s²),ACCELEROMETER Y (m/s²),ACCELEROMETER Z (m/s²),GYROSCOPE X (rad/s),GYROSCOPE Y (rad/s),GYROSCOPE Z (rad/s),Time since start in ms ,YYYY-MO-DD HH-MI-SS_SSS,Pitch (Deg),Roll (Deg),Heading (Deg),MagX,MagY,MagZ
0.14299289882183075,0.42768314480781555,9.779460906982422,0.004200830512119234,0.004461884017156674,0.07440638226848169,0.0,2019-08-07 13:27:48:949,-3.5832458948662844,3.5499178221494283,0,-44.83174514770508,16.94310188293457,-37.03491973876953
0.049597661942243576,0.47318339347839355,9.875250816345215,0.002336162618994662,0.002330834996442878,0.0658821820244373,0.010007143020629883,2019-08-07 13:27:48:959,-7.107135450960573,7.022740947672476,0,-44.83174514770508,16.94310188293457,-37.03491973876953
0.03762391209602356,0.5665786266326904,9.841724395751953,0.0071310231756750294,-0.0048614559686148365,0.06055456155324741,0.019990205764770508,2019-08-07 13:27:48:969,-10.55788696689933,10.412392323833169,0,-44.83174514770508,16.94310188293457,-37.03491973876953
0.011281665414571762,0.5546048879623413,9.712408065795898,0.012192264599870297,0.0033963595067997765,0.05362864911503566,0.03004312515258789,2019-08-07 13:27:48:979,-13.94731530744584,13.731898398371731,0,-44.83174514770508,16.94310188293457,-37.03491973876953
-0.02463958039879799,0.46599912643432617,9.839329719543457,0.001803400363816213,0.0033963595067997765,0.03871130597003909,0.04000258445739746,2019-08-07 13:27:48:989,-10.073137908996955,17.00202090326102,0,-44.83174514770508,16.94310188293457,-37.03491973876953
-0.02463958039879799,0.5498153567314148,9.750723838806152,-0.0013931734273288073,0.005527408527513573,0.026457775141232064,0.049996137619018555,2019-08-07 13:27:48:999,-6.277672446242572,20.19821570254396,0,-44.83174514770508,16.94310188293457,-37.03491973876953
-0.0629555732011795,0.46839389204978943,9.86567211151123,0.001803400363816213,0.0004661670057904337,0.017667196370341698,0.05999875068664551,2019-08-07 13:27:49:009,-2.559693121853171,23.33887454496575,0,-44.83174514770508,16.94310188293457,-37.03491973876953
-0.015060581266880035,0.4947361350059509,9.822566032409668,-0.003524222448042604,-0.00566059935138251,0.011007667660462434,0.07003545761108398,2019-08-07 13:27:49:019,1.0929338373255844,26.41641522134703,0,-44.83174514770508,16.94310188293457,-37.03491973876953
0.054387159645557404,0.48036763072013855,9.820171356201172,0.0034016871293515603,0.006060170782692022,-0.002844151494325895,0.07999897003173828,2019-08-07 13:27:49:029,-2.5259688295215437,29.43017439968767,0,-44.83174514770508,16.94310188293457,-37.03491973876953
0.10467690229415894,0.4564201235771179,9.853697776794434,0.0015370192362269886,0.002597216124032102,-0.011101966449591856,0.09001278877258301,2019-08-07 13:27:49:039,-6.064737073525858,32.38766615329371,0,-44.83174514770508,16.94310188293457,-37.03491973876953
0.1789141446352005,0.4636043906211853,9.731565475463867,0.0012706381086377639,-0.0008657387296835611,-0.010036441939234959,0.10002422332763672,2019-08-07 13:27:49:049,-9.521890460987784,35.28464924571268,0,-45.881317138671875,17.093040466308594,-36.58510208129883
0.18370364606380463,0.3869723975658417,9.707618713378906,-0.0005940299795425521,0.001531691613675204,-0.008704536821437486,0.10999631881713867,2019-08-07 13:27:49:059,-12.910627969060112,38.13363370043594,0,-45.881317138671875,17.093040466308594,-36.58510208129883
0.19328264892101288,0.40134090185165405,9.769882202148438,-6.126766340918298e-05,0.002330834996442878,-0.007639012311080588,0.12001538276672363,2019-08-07 13:27:49:069,-16.23105937959015,40.92394842082801,0,-45.881317138671875,17.093040466308594,-36.58510208129883
0.2962568700313568,0.3797881305217743,9.738750457763672,0.0020697814914054373,0.002330834996442878,-0.006307106152985815,0.13000011444091797,2019-08-07 13:27:49:079,-19.47289646892398,43.65964369522022,0,-45.881317138671875,17.093040466308594,-36.58510208129883
0.2627303898334503,0.3151299059391022,9.86567211151123,-0.0029914601928641544,-0.004328693453362062,-0.005507962770218141,0.14002490043640137,2019-08-07 13:27:49:089,-22.650492562593854,46.35154422009568,0,-45.881317138671875,17.093040466308594,-36.58510208129883
0.1717298924922943,0.40134090185165405,9.793828964233398,0.0015370192362269886,-0.0019312633050590406,-0.0017786268539318336,0.149993896484375,2019-08-07 13:27:49:099,-25.776310673835727,48.97672080976403,0,-45.881317138671875,17.093040466308594,-36.58510208129883
0.18130889534950256,0.36302489042282104,9.832145690917969,-0.00032764881944403687,0.002330834996442878,-0.00018034003963255039,0.15998625755310059,2019-08-07 13:27:49:109,-28.840963451318714,51.55507966200496,0,-45.881317138671875,17.093040466308594,-36.58510208129883
0.1405981481075287,0.32231414318084717,9.789039611816406,0.0010042569160299579,-0.001132119922291367,-0.00257777036673667,0.17001843452453613,2019-08-07 13:27:49:119,-31.84704901301266,54.08569554834615,0,-45.881317138671875,17.093040466308594,-36.58510208129883
0.11665065586566925,0.38218289613723755,9.911171913146973,-0.00272507906527493,-0.0016648821774698163,-0.005241581642628916,0.17998862266540527,2019-08-07 13:27:49:129,-34.7956896304737,56.561341643261,0,-45.881317138671875,17.093040466308594,-36.58510208129883
0.12383490055799484,0.43486738204956055,9.860882759094238,-0.0005940299795425521,-0.0027304066878267143,-0.00257777036673667,0.19002604484558105,2019-08-07 13:27:49:139,-37.683847104562126,58.97994716573395,0,-45.881317138671875,17.093040466308594,-36.58510208129883
0.15496665239334106,0.3606301546096802,9.779460906982422,-0.005122509213577951,0.002064453868853653,-0.008171774566259036,0.1999986171722412,2019-08-07 13:27:49:149,-40.513169358236134,61.36097864833902,0,-45.881317138671875,17.093040466308594,-36.58510208129883
0.16933514177799225,0.33668264746665955,9.84411907196045,0.0007378757884407334,-0.001132119922291367,-0.00897091742887806,0.21000957489013672,2019-08-07 13:27:49:159,-43.28255988972788,63.69416765909879,0,-45.881317138671875,17.093040466308594,-36.58510208129883
0.25554612278938293,0.36781439185142517,9.810592651367188,0.0010042569160299579,0.0028635972516213265,-0.017228732904292672,0.21999835968017578,2019-08-07 13:27:49:169,-45.98867275605376,65.97677900245745,0,-46.03125762939453,16.043468475341797,-36.735042572021484
0.2627303898334503,0.3510511517524719,9.822566032409668,-0.0019259356825072562,0.00019978586194656375,-0.011368348097329731,0.23002982139587402,2019-08-07 13:27:49:179,-48.63836861023814,68.21739149368982,0,-46.03125762939453,16.043468475341797,-36.735042572021484
0.2842831313610077,0.37499865889549255,9.817776679992676,0.00020511348449834825,0.001531691613675204,-0.013233016510602954,0.24000120162963867,2019-08-07 13:27:49:189,-51.233287004282474,70.40918083031762,0,-46.03125762939453,16.043468475341797,-36.735042572021484
0.31302013993263245,0.3797881305217743,9.781855583190918,0.0020697814914054373,0.0007325481658889489,-0.0148313032761383,0.2500293254852295,2019-08-07 13:27:49:199,-53.77237686659085,72.55536303976082,0,-46.03125762939453,16.043468475341797,-36.735042572021484
0.3633098602294922,0.37499865889549255,9.832145690917969,0.0007378757884407334,-0.0016648821774698163,-0.011634728704770307,0.2600083351135254,2019-08-07 13:27:49:209,-56.25367272965797,74.66015821294701,0,-46.03125762939453,16.043468475341797,-36.735042572021484
0.37049412727355957,0.44684112071990967,9.736355781555176,-0.0011267922997395827,-0.003529550070594388,-0.010302823586972834,0.27002763748168945,2019-08-07 13:27:49:219,-58.68302951709407,76.7150350938129,0,-46.03125762939453,16.043468475341797,-36.735042572021484
0.34415188431739807,0.4109198749065399,9.750723838806152,0.0020697814914054373,0.00019978586194656375,-0.010036441939234959,0.2800016403198242,2019-08-07 13:27:49:229,-61.069052495811505,78.7313120446778,0,-46.03125762939453,16.043468475341797,-36.735042572021484
0.3609151244163513,0.43486738204956055,9.738750457763672,0.0012706381086377639,0.0041955028895674495,-0.009237299076615935,0.2900207042694092,2019-08-07 13:27:49:239,-63.407583849302334,80.70483603342382,0,-46.03125762939453,16.043468475341797,-36.735042572021484
0.3609151244163513,0.4228936433792114,9.798619270324707,0.002336162618994662,-0.0016648821774698163,-0.004975200515039691,0.29999351501464844,2019-08-07 13:27:49:249,-65.69631114631972,82.64000580916247,0,-46.03125762939453,16.043468475341797,-36.735042572021484
0.3297833800315857,0.4109198749065399,9.817776679992676,0.002602543746583887,-0.00033297644199582136,-0.003643294877093568,0.31002235412597656,2019-08-07 13:27:49:259,-67.94372008352165,84.53780620400514,0,-46.03125762939453,16.043468475341797,-36.735042572021484
0.30583587288856506,0.43486738204956055,9.736355781555176,0.00047149462834221814,0.0007325481658889489,-0.0015122457263426093,0.32000231742858887,2019-08-07 13:27:49:269,-70.14927281210234,86.39563835809186,0,-46.03125762939453,16.043468475341797,-36.735042572021484
0.2890726327896118,0.40852513909339905,9.805803298950195,-0.0019259356825072562,0.004994646272335123,-0.0017786268539318336,0.330014705657959,2019-08-07 13:27:49:279,-72.31532379258299,88.22109529299472,0,-46.03125762939453,16.043468475341797,-36.735042572021484
0.2387828826904297,0.4037356376647949,9.8034086227417,-0.0029914601928641544,0.004728265144745899,-0.0007131023435749355,0.3399958610534668,2019-08-07 13:27:49:289,-74.44376153257627,90.0111841166424,0,-46.03125762939453,16.043468475341797,-36.735042572021484
0.2315986305475235,0.4324726462364197,9.750723838806152,-0.00032764881944403687,0.00019978586194656375,-0.0033769137495043436,0.3500082492828369,2019-08-07 13:27:49:299,-76.52778601594414,91.76035327215841,0,-46.03125762939453,16.64322280883789,-35.83540725708008
0.17651939392089844,0.4755781292915344,9.753118515014648,0.0012706381086377639,-0.004595074841025611,-0.00257777036673667,0.3600313663482666,2019-08-07 13:27:49:309,-78.57390681067955,93.46859858642412,0,-46.03125762939453,16.64322280883789,-35.83540725708008
0.1334138959646225,0.38936713337898254,9.78664493560791,0.0012706381086377639,0.002064453868853653,-0.005241581642628916,0.37001705169677734,2019-08-07 13:27:49:319,-80.58796577399664,95.15294731512502,0,-46.03125762939453,16.64322280883789,-35.83540725708008
0.13580864667892456,0.4396568834781647,9.85609245300293,-0.0056552714687564,-0.0019312633050590406,-0.005774343897807364,0.380021333694458,2019-08-07 13:27:49:329,-82.5593328406671,96.8019824461694,0,-46.03125762939453,16.64322280883789,-35.83540725708008
0.13101914525032043,0.4061304032802582,9.74593448638916,-0.004589746958399502,-0.0048614559686148365,-0.0031105326219151193,0.3899986743927002,2019-08-07 13:27:49:339,-84.49001851816804,98.42078936845898,0,-46.03125762939453,16.64322280883789,-35.83540725708008
0.1262296438217163,0.39415663480758667,9.827356338500977,-0.0008604111071317767,-0.0013985010498805918,-0.0020450079815210586,0.4000210762023926,2019-08-07 13:27:49:349,-86.38471297636319,100.00692190199051,0,-46.03125762939453,16.64322280883789,-35.83540725708008
0.1334138959646225,0.43486738204956055,9.805803298950195,-0.005388890341167176,0.0017980727412644285,-0.004975200515039691,0.4100058078765869,2019-08-07 13:27:49:359,-88.24243687663197,101.55901895539272,0,-46.03125762939453,16.64322280883789,-35.83540725708008
0.17412464320659637,0.42768314480781555,9.868066787719727,-0.005388890341167176,-0.00246402556023749,-0.0068398684081642635,0.42003297805786133,2019-08-07 13:27:49:369,-90.05598294805758,103.08123960003935,0,-46.03125762939453,16.64322280883789,-35.83540725708008
0.1334138959646225,0.4109198749065399,9.789039611816406,-0.0008604111071317767,-0.0013985010498805918,-0.007639012311080588,0.43000006675720215,2019-08-07 13:27:49:379,-91.83846400859689,104.5720218359533,0,-46.03125762939453,16.64322280883789,-35.83540725708008
0.10946640372276306,0.39415663480758667,9.765092849731445,-0.004856128085988727,-0.0019312633050590406,-0.0023113892391474454,0.4400191307067871,2019-08-07 13:27:49:389,-93.58776311737257,106.03708484927678,0,-46.03125762939453,16.64322280883789,-35.83540725708008
0.152571901679039,0.4037356376647949,9.834540367126465,-0.00272507906527493,0.002330834996442878,-0.004708819387450467,0.4500091075897217,2019-08-07 13:27:49:399,-95.2995391303655,107.47085507883794,0,-46.03125762939453,16.64322280883789,-35.83540725708008
0.15017715096473694,0.38936713337898254,9.820171356201172,-0.004323365830810277,-0.0016648821774698163,-0.008438155693848261,0.460005521774292,2019-08-07 13:27:49:409,-96.97509105120557,108.87845321532178,0,-46.03125762939453,16.64322280883789,-35.83540725708008
0.1980721354484558,0.4109198749065399,9.851303100585938,-0.0032578413204533796,0.0009989292934781736,-0.0015122457263426093,0.4700138568878174,2019-08-07 13:27:49:419,-98.61311370674488,110.25494394115833,0,-46.03125762939453,16.64322280883789,-36.13528823852539
0.18130889534950256,0.3989461362361908,9.760302543640137,-0.0008604111071317767,-0.0048614559686148365,-0.006573487280575038,0.4799966812133789,2019-08-07 13:27:49:429,-100.21684216222107,111.6035148424156,0,-46.03125762939453,16.64322280883789,-36.13528823852539
0.16694039106369019,0.40134090185165405,9.726776123046875,-6.126766340918298e-05,0.005793789655102798,-0.0041760571322720175,0.4900219440460205,2019-08-07 13:27:49:439,-101.79610135552134,112.92422369891887,0,-46.03125762939453,16.64322280883789,-36.13528823852539
0.22680914402008057,0.38218289613723755,9.808197975158691,0.00020511348449834825,0.002064453868853653,-0.003643294877093568,0.4999988079071045,2019-08-07 13:27:49:449,-103.33484189317977,114.2209955423318,0,-46.03125762939453,16.64322280883789,-36.13528823852539
0.22920389473438263,0.3534458875656128,9.793828964233398,-0.004589746958399502,-0.0008657387296835611,-0.003909676004682793,0.5100257396697998,2019-08-07 13:27:49:459,-104.84084479372184,115.49782312222518,0,-46.03125762939453,16.64322280883789,-36.13528823852539
0.24117763340473175,0.3247089087963104,9.781855583190918,-0.0013931734273288073,0.0033963595067997765,-0.0041760571322720175,0.5199971199035645,2019-08-07 13:27:49:469,-106.31768196422203,116.75062195550478,0,-46.03125762939453,16.64322280883789,-36.13528823852539
0.2435723841190338,0.3726038932800293,9.769882202148438,0.00020511348449834825,0.0028635972516213265,-0.0031105326219151193,0.5300266742706299,2019-08-07 13:27:49:479,-107.76437814256367,117.97181223181725,0,-46.03125762939453,16.64322280883789,-36.13528823852539
0.24117763340473175,0.3654196560382843,9.808197975158691,-0.005921652596345625,0.002064453868853653,-0.006307106152985815,0.5400099754333496,2019-08-07 13:27:49:489,-109.18207614036984,119.1730223056499,0,-46.03125762939453,16.64322280883789,-36.13528823852539
0.24117763340473175,0.3654196560382843,9.834540367126465,0.0012706381086377639,0.00019978586194656375,-0.00018034003963255039,0.5500195026397705,2019-08-07 13:27:49:499,-110.57045064150209,120.34628878644837,0,-46.03125762939453,16.64322280883789,-36.13528823852539
0.2651251256465912,0.40134090185165405,9.834540367126465,0.0010042569160299579,0.004461884017156674,-0.008438155693848261,0.5599997043609619,2019-08-07 13:27:49:509,-111.93065724745283,121.49206213694339,0,-46.03125762939453,16.64322280883789,-36.13528823852539
0.35373085737228394,0.3654196560382843,9.81538200378418,-0.00272507906527493,0.009256744313762716,-0.004442438259861242,0.5700080394744873,2019-08-07 13:27:49:519,-113.25596696149486,122.62111037300991,0,-46.03125762939453,16.64322280883789,-36.13528823852539
0.3178096413612366,0.3989461362361908,9.810592651367188,-0.0008604111071317767,0.002064453868853653,-0.0033769137495043436,0.579998254776001,2019-08-07 13:27:49:529,-114.55489724400537,123.72259800360267,0,-46.03125762939453,16.64322280883789,-36.13528823852539
0.37288886308670044,0.3654196560382843,9.84411907196045,0.0010042569160299579,0.003662740634389001,8.60411123386422e-05,0.5900201797485352,2019-08-07 13:27:49:539,-115.82247463349401,124.80506335997963,0,-46.03125762939453,16.64322280883789,-36.13528823852539
0.3872573673725128,0.3797881305217743,9.750723838806152,-0.0008604111071317767,-0.0037959311981836125,-0.005774343897807364,0.6000006198883057,2019-08-07 13:27:49:549,-117.05841090194065,125.86483370661044,0,-46.18119812011719,17.992673873901367,-36.88498306274414
0.39683637022972107,0.4133146405220032,9.748329162597656,-0.0029914601928641544,0.0041955028895674495,-0.010302823586972834,0.610015869140625,2019-08-07 13:27:49:559,-118.27297969266874,126.90066326143548,0,-46.18119812011719,17.992673873901367,-36.88498306274414
0.40402060747146606,0.4324726462364197,9.781855583190918,-0.00272507906527493,0.006060170782692022,-0.00950367968405651,0.6199972629547119,2019-08-07 13:27:49:569,-119.46361360667736,127.91354735100629,0,-46.18119812011719,17.992673873901367,-36.88498306274414
0.35133612155914307,0.4396568834781647,9.801013946533203,0.0007378757884407334,-0.0008657387296835611,-0.006307106152985815,0.6300182342529297,2019-08-07 13:27:49:579,-120.63279424567006,128.90349182442688,0,-46.18119812011719,17.992673873901367,-36.88498306274414
0.39923110604286194,0.4516306221485138,9.767487525939941,0.00393444938453001,-0.001132119922291367,-0.012167492000246055,0.639998197555542,2019-08-07 13:27:49:589,-121.77269246121989,129.8702699131416,0,-46.18119812011719,17.992673873901367,-36.88498306274414
0.3154148757457733,0.4181041419506073,9.817776679992676,0.004467211899782784,0.002064453868853653,-0.011368348097329731,0.6500251293182373,2019-08-07 13:27:49:599,-122.90159884743058,130.82157843190197,0,-46.18119812011719,17.992673873901367,-36.88498306274414
0.27949362993240356,0.40134090185165405,9.726776123046875,-0.0037906035756318283,0.0004661670057904337,-0.011101966449591856,0.6600000858306885,2019-08-07 13:27:49:609,-124.01090976274013,131.7600146164441,0,-46.18119812011719,17.992673873901367,-36.88498306274414
0.2579408884048462,0.3510511517524719,9.777066230773926,-0.00032764881944403687,-0.00246402556023749,-0.00950367968405651,0.6700315475463867,2019-08-07 13:27:49:619,-125.09907886084135,132.6838717907494,0,-46.18119812011719,17.992673873901367,-36.88498306274414
0.19088789820671082,0.45402538776397705,9.808197975158691,0.00047149462834221814,-0.0008657387296835611,-0.004975200515039691,0.6800096035003662,2019-08-07 13:27:49:629,-126.17431315762154,133.57692314314377,0,-46.18119812011719,17.992673873901367,-36.88498306274414
0.09030840545892715,0.3845776319503784,9.796224594116211,-0.0013931734273288073,-0.00246402556023749,-0.0033769137495043436,0.6900269985198975,2019-08-07 13:27:49:639,-127.23887739384688,134.46120533947183,0,-46.18119812011719,17.992673873901367,-36.88498306274414
0.07593990862369537,0.36302489042282104,9.858488082885742,-0.006454414851524075,-0.00246402556023749,0.009143000287486512,0.700002908706665,2019-08-07 13:27:49:649,-128.28389282161328,135.33341898236438,0,-46.18119812011719,17.992673873901367,-36.88498306274414
0.006492166314274073,0.3654196560382843,9.817776679992676,-0.0032578413204533796,-0.0037959311981836125,0.011806811563378757,0.7100074291229248,2019-08-07 13:27:49:659,-129.31532483607063,136.18594916962553,0,-46.18119812011719,17.992673873901367,-36.88498306274414
-0.03182382881641388,0.3773933947086334,9.860882759094238,-0.0061880337239348495,-0.004328693453362062,0.013937860584092555,0.7199976444244385,2019-08-07 13:27:49:669,-123.13028833961376,137.02186653966004,0,-46.03125762939453,16.94310188293457,-37.03491973876953
-0.05816607549786568,0.38218289613723755,9.784250259399414,-0.0013931734273288073,-0.006992504989328633,0.008876618639748637,0.7300195693969727,2019-08-07 13:27:49:679,-117.07055991900458,137.83747528924775,0,-46.03125762939453,16.94310188293457,-37.03491973876953
-0.07492932677268982,0.3702091574668884,9.808197975158691,0.00020511348449834825,-0.001132119922291367,0.009942143150105534,0.7399933338165283,2019-08-07 13:27:49:689,-111.13726870951125,138.6373790023812,0,-46.03125762939453,16.94310188293457,-37.03491973876953
-0.05337657779455185,0.39415663480758667,9.798619270324707,0.00020511348449834825,0.002064453868853653,0.006212807363856391,0.7499985694885254,2019-08-07 13:27:49:699,-105.32192527990297,139.41844573572206,0,-46.03125762939453,16.94310188293457,-37.03491973876953
-0.005481582134962082,0.3773933947086334,9.81538200378418,0.0007378757884407334,-0.004328693453362062,0.005413663981088718,0.7599856853485107,2019-08-07 13:27:49:709,-99.61369930813213,140.185625215559,0,-46.03125762939453,16.94310188293457,-37.03491973876953
0.028044912964105606,0.3869723975658417,9.78664493560791,0.002336162618994662,-0.0008657387296835611,-0.00897091742887806,0.770010232925415,2019-08-07 13:27:49:719,-101.21765425533303,140.93531083832593,0,-46.03125762939453,16.94310188293457,-37.03491973876953
0.11186115443706512,0.38936713337898254,9.798619270324707,-0.0016595545549180318,0.0009989292934781736,-0.005241581642628916,0.7799980640411377,2019-08-07 13:27:49:729,-102.78078016732404,141.6720240920347,0,-46.03125762939453,16.94310188293457,-37.03491973876953
0.1789141446352005,0.3534458875656128,9.817776679992676,-0.002192316810096481,0.0017980727412644285,-0.011901110352508182,0.7900032997131348,2019-08-07 13:27:49:739,-104.30529443911394,142.39857939288194,0,-46.03125762939453,16.94310188293457,-37.03491973876953
0.2387828826904297,0.4061304032802582,9.829751014709473,0.003668068256940785,0.001531691613675204,-0.014032159373221978,0.8000106811523438,2019-08-07 13:27:49:749,-105.79221828641907,143.10122841933725,0,-46.03125762939453,16.94310188293457,-37.03491973876953
0.27949362993240356,0.40134090185165405,9.839329719543457,0.0020697814914054373,0.0012653104860859794,-0.008171774566259036,0.8100225925445557,2019-08-07 13:27:49:759,-107.24454338549636,143.7913249107005,0,-46.03125762939453,16.94310188293457,-37.03491973876953
0.3417571187019348,0.3654196560382843,9.841724395751953,-0.0016595545549180318,0.0009989292934781736,-0.011368348097329731,0.8200316429138184,2019-08-07 13:27:49:769,-108.66043760977946,144.4739031992998,0,-46.03125762939453,16.94310188293457,-37.03491973876953
0.4088101089000702,0.4492358863353729,9.801013946533203,0.001803400363816213,0.0033963595067997765,-0.010835585842151283,0.830024003982544,2019-08-07 13:27:49:779,-110.04136485542737,145.1309262474576,0,-46.03125762939453,16.94310188293457,-37.03491973876953
0.44473135471343994,0.3869723975658417,9.781855583190918,-0.002192316810096481,0.003929121761978225,-0.013233016510602954,0.8400063514709473,2019-08-07 13:27:49:789,-111.39067674391063,145.78422748157212,0,-46.03125762939453,16.94310188293457,-37.03491973876953
0.5189685821533203,0.3869723975658417,9.753118515014648,-0.0029914601928641544,-0.0016648821774698163,-0.009770061331794384,0.8500270843505859,2019-08-07 13:27:49:799,-112.70100911823441,146.42478370332032,0,-45.881317138671875,16.493284225463867,-36.28522491455078
0.49023160338401794,0.40134090185165405,9.619012832641602,0.003668068256940785,-0.001132119922291367,-0.005774343897807364,0.8600053787231445,2019-08-07 13:27:49:809,-113.98800369449651,147.0464487504405,0,-45.881317138671875,16.493284225463867,-36.28522491455078
0.4590998589992523,0.42049887776374817,9.750723838806152,0.00020511348449834825,0.002330834996442878,-0.008438155693848261,0.870009183883667,2019-08-07 13:27:49:819,-115.25563878500688,147.65601767935345,0,-45.881317138671875,16.493284225463867,-36.28522491455078
0.48304736614227295,0.4061304032802582,9.801013946533203,0.003668068256940785,0.0028635972516213265,-0.00604072502539659,0.8801002502441406,2019-08-07 13:27:49:829,-116.49571725632919,148.25336212305422,0,-45.881317138671875,16.493284225463867,-36.28522491455078
0.4351523518562317,0.3869723975658417,9.798619270324707,-6.126766340918298e-05,0.0004661670057904337,-0.003909676004682793,0.8900208473205566,2019-08-07 13:27:49:839,-117.7152063954058,148.84309739342822,0,-45.881317138671875,16.493284225463867,-36.28522491455078
0.3824678659439087,0.3989461362361908,9.669301986694336,-0.0011267922997395827,0.006592933558019122,-0.006573487280575038,0.9000263214111328,2019-08-07 13:27:49:849,-118.91930330579201,149.4196159055035,0,-45.881317138671875,16.493284225463867,-36.28522491455078
0.39683637022972107,0.4109198749065399,9.726776123046875,0.0034016871293515603,0.0071256958131975705,-0.009237299076615935,0.910010814666748,2019-08-07 13:27:49:859,-120.0981865574407,149.9809346325189,0,-45.881317138671875,16.493284225463867,-36.28522491455078
0.3896521031856537,0.3773933947086334,9.743539810180664,0.001803400363816213,0.005793789655102798,-0.009237299076615935,0.9200248718261719,2019-08-07 13:27:49:869,-121.25367891134405,150.53593970495288,0,-45.881317138671875,16.493284225463867,-36.28522491455078
0.3896521031856537,0.3989461362361908,9.824960708618164,0.0020697814914054373,0.005793789655102798,-0.0068398684081642635,0.9299895763397217,2019-08-07 13:27:49:879,-122.38642452900677,151.07755805786513,0,-45.881317138671875,16.493284225463867,-36.28522491455078
0.3369676172733307,0.3582353889942169,9.827356338500977,-0.00032764881944403687,0.002597216124032102,-0.00604072502539659,0.9400136470794678,2019-08-07 13:27:49:889,-123.50088127395848,151.61443788411904,0,-45.881317138671875,16.493284225463867,-36.28522491455078
0.3154148757457733,0.3702091574668884,9.77467155456543,0.005799117537728906,0.003662740634389001,-0.004442438259861242,0.950019359588623,2019-08-07 13:27:49:899,-124.59595719229964,152.13551101646394,0,-45.881317138671875,16.493284225463867,-36.28522491455078
0.32020437717437744,0.35584065318107605,9.750723838806152,0.0010042569160299579,0.003929121761978225,-0.0068398684081642635,0.9600212574005127,2019-08-07 13:27:49:909,-125.66862741793226,152.6504365724392,0,-45.881317138671875,16.493284225463867,-36.28522491455078
0.2627303898334503,0.4109198749065399,9.789039611816406,-0.0005940299795425521,0.004461884017156674,-0.003909676004682793,0.9700164794921875,2019-08-07 13:27:49:919,-126.72701089172752,153.1496867269084,0,-47.08082962036133,15.593650817871094,-35.985347747802734
0.24596713483333588,0.38936713337898254,9.836935043334961,0.002336162618994662,0.0041955028895674495,-0.0033769137495043436,0.9800214767456055,2019-08-07 13:27:49:929,-127.76618060228927,153.64004643671595,0,-47.08082962036133,15.593650817871094,-35.985347747802734
0.2435723841190338,0.3869723975658417,9.74593448638916,0.00020511348449834825,0.005793789655102798,-0.0007131023435749355,0.9900176525115967,2019-08-07 13:27:49:939,-128.78547595529687,154.1216545072756,0,-47.08082962036133,15.593650817871094,-35.985347747802734
0.2244143933057785,0.4133146405220032,9.820171356201172,0.0034016871293515603,0.006859314685608345,-0.0020450079815210586,1.0000224113464355,2019-08-07 13:27:49:949,-129.78743741117054,154.58910923694853,0,-47.08082962036133,15.593650817871094,-35.985347747802734
0.20046688616275787,0.37499865889549255,9.793828964233398,0.0055327364101396825,0.006859314685608345,0.0016843279347652483,1.0100326538085938,2019-08-07 13:27:49:959,-130.77209198321466,155.0503623865171,0,-47.08082962036133,15.593650817871094,-35.985347747802734
0.19567739963531494,0.3989461362361908,9.808197975158691,0.001803400363816213,0.006592933558019122,-0.00018034003963255039,1.020007848739624,2019-08-07 13:27:49:969,-131.73748445066022,155.50176087656845,0,-47.08082962036133,15.593650817871094,-35.985347747802734
0.20046688616275787,0.4061304032802582,9.760302543640137,0.006864642048085805,0.006326551910281247,-0.0004467211834764202,1.0300242900848389,2019-08-07 13:27:49:979,-132.68276029710285,155.94021028285104,0,-47.08082962036133,15.593650817871094,-35.985347747802734
0.18849314749240875,0.3917618989944458,9.841724395751953,0.0010042569160299579,0.004728265144745899,0.004081758343142595,1.0400056838989258,2019-08-07 13:27:49:989,-133.6098106561789,156.37525273304115,0,-47.08082962036133,15.593650817871094,-35.985347747802734
0.18849314749240875,0.4037356376647949,9.78664493560791,0.004999974154961233,0.0012653104860859794,-0.0007131023435749355,1.0500237941741943,2019-08-07 13:27:49:999,-134.51625831702052,156.79768860973712,0,-47.08082962036133,15.593650817871094,-35.985347747802734
0.1860983967781067,0.3797881305217743,9.75790786743164,0.00020511348449834825,0.0028635972516213265,-0.0004467211834764202,1.0600194931030273,2019-08-07 13:27:50:009,-135.40568863131037,157.21704196560756,0,-47.08082962036133,15.593650817871094,-35.985347747802734
0.19567739963531494,0.4061304032802582,9.84411907196045,0.003135306001762336,0.004461884017156674,-0.0007131023435749355,1.0700194835662842,2019-08-07 13:27:50:019,-136.27730515283568,157.623691393256,0,-47.08082962036133,15.593650817871094,-35.985347747802734
0.22920389473438263,0.4252883791923523,9.784250259399414,-0.0008604111071317767,0.001531691613675204,-0.0009794834711641602,1.0800223350524902,2019-08-07 13:27:50:029,-137.12578025651413,158.02192306801052,0,-47.08082962036133,15.593650817871094,-35.985347747802734
0.16933514177799225,0.4181041419506073,9.781855583190918,0.003668068256940785,0.00019978586194656375,-0.003643294877093568,1.0900218486785889,2019-08-07 13:27:50:039,-137.96354169318016,158.4104752170161,0,-47.08082962036133,15.593650817871094,-35.985347747802734
0.16454564034938812,0.4037356376647949,9.805803298950195,0.0012706381086377639,0.0033963595067997765,-0.00257777036673667,1.1000316143035889,2019-08-07 13:27:50:049,-138.78695261590894,158.794397253743,0,-45.731380462646484,16.94310188293457,-35.53553009033203
0.21004588901996613,0.38936713337898254,9.824960708618164,-0.0024586979376857053,0.007924839195965244,-0.0023113892391474454,1.1100249290466309,2019-08-07 13:27:50:059,-139.59116580409818,159.17449959925906,0,-45.731380462646484,16.94310188293457,-35.53553009033203
0.17651939392089844,0.4181041419506073,9.793828964233398,0.001803400363816213,0.0012653104860859794,-0.0033769137495043436,1.120009183883667,2019-08-07 13:27:50:069,-140.37940062865852,159.54110849102358,0,-45.731380462646484,16.94310188293457,-35.53553009033203
0.1717298924922943,0.3965514004230499,9.796224594116211,0.0010042569160299579,0.001531691613675204,-0.0041760571322720175,1.1300339698791504,2019-08-07 13:27:50:079,-141.15258870485292,159.90335965682033,0,-45.731380462646484,16.94310188293457,-35.53553009033203
0.14299289882183075,0.3917618989944458,9.777066230773926,0.0020697814914054373,0.005793789655102798,-0.003643294877093568,1.1400022506713867,2019-08-07 13:27:50:089,-141.91602160875829,160.25824228598702,0,-45.731380462646484,16.94310188293457,-35.53553009033203
0.16933514177799225,0.3869723975658417,9.777066230773926,-0.0016595545549180318,0.00019978586194656375,8.60411123386422e-05,1.1500401496887207,2019-08-07 13:27:50:099,-142.6579689345727,160.6086815868586,0,-45.731380462646484,16.94310188293457,-35.53553009033203
0.13580864667892456,0.4037356376647949,9.779460906982422,0.0012706381086377639,0.002597216124032102,-0.005241581642628916,1.160022497177124,2019-08-07 13:27:50:109,-143.39035285876773,160.94851457935718,0,-45.731380462646484,16.94310188293457,-35.53553009033203
0.13580864667892456,0.3989461362361908,9.836935043334961,-0.0008604111071317767,0.003662740634389001,-0.0041760571322720175,1.1700248718261719,2019-08-07 13:27:50:119,-144.10878341740207,161.28357929414705,0,-45.731380462646484,16.94310188293457,-35.53553009033203
0.20286163687705994,0.3989461362361908,9.868066787719727,0.001803400363816213,0.004994646272335123,-0.0017786268539318336,1.180020809173584,2019-08-07 13:27:50:129,-144.8058573877235,161.6105936598113,0,-45.731380462646484,16.94310188293457,-35.53553009033203
0.15496665239334106,0.3797881305217743,9.765092849731445,0.00020511348449834825,0.004994646272335123,-0.003909676004682793,1.190021276473999,2019-08-07 13:27:50:139,-145.49436133432343,161.93372162623714,0,-45.731380462646484,16.94310188293457,-35.53553009033203
0.1405981481075287,0.3797881305217743,9.781855583190918,-0.003524222448042604,0.0017980727412644285,-0.0020450079815210586,1.200019121170044,2019-08-07 13:27:50:149,-146.16901398031197,162.25255688735712,0,-45.731380462646484,16.94310188293457,-35.53553009033203
0.16454564034938812,0.4181041419506073,9.827356338500977,-0.0005940299795425521,0.00019978586194656375,-0.0023113892391474454,1.2100048065185547,2019-08-07 13:27:50:159,-146.82656072310044,162.55911530940165,0,-45.731380462646484,16.94310188293457,-35.53553009033203
0.15017715096473694,0.3797881305217743,9.767487525939941,-0.0008604111071317767,0.004728265144745899,-0.0009794834711641602,1.220017910003662,2019-08-07 13:27:50:169,-147.47507059969635,162.863882681895,0,-46.481075286865234,17.39291763305664,-36.88498306274414
0.1453876495361328,0.40852513909339905,9.812987327575684,0.0007378757884407334,0.003662740634389001,-0.00257777036673667,1.2300035953521729,2019-08-07 13:27:50:179,-148.1106464077238,163.1585131473288,0,-46.481075286865234,17.39291763305664,-36.88498306274414
0.18130889534950256,0.3965514004230499,9.777066230773926,-0.0029914601928641544,0.004994646272335123,-0.006307106152985815,1.2400257587432861,2019-08-07 13:27:50:189,-148.72999640988937,163.45057418347474,0,-46.481075286865234,17.39291763305664,-36.88498306274414
0.19567739963531494,0.41570937633514404,9.796224594116211,-6.126766340918298e-05,0.0028635972516213265,-0.0068398684081642635,1.2500133514404297,2019-08-07 13:27:50:199,-149.3341160280398,163.73299851826332,0,-46.481075286865234,17.39291763305664,-36.88498306274414
0.1980721354484558,0.4133146405220032,9.860882759094238,-0.0016595545549180318,-6.659528596096748e-05,-0.003643294877093568,1.260021686553955,2019-08-07 13:27:50:209,-149.9243817686337,164.01126870291745,0,-46.481075286865234,17.39291763305664,-36.88498306274414
0.2244143933057785,0.40134090185165405,9.827356338500977,-0.0013931734273288073,0.0033963595067997765,-0.007639012311080588,1.2700245380401611,2019-08-07 13:27:50:219,-150.50163851035273,164.28505358688693,0,-46.481075286865234,17.39291763305664,-36.88498306274414
0.20765113830566406,0.40852513909339905,9.793828964233398,0.0020697814914054373,0.0004661670057904337,-0.0017786268539318336,1.2800021171569824,2019-08-07 13:27:50:229,-151.06757456464723,164.55042162509702,0,-46.481075286865234,17.39291763305664,-36.88498306274414
0.22920389473438263,0.4061304032802582,9.781855583190918,0.002336162618994662,0.003662740634389001,-0.0033769137495043436,1.2900469303131104,2019-08-07 13:27:50:239,-151.62144326433796,164.81054589031913,0,-46.481075286865234,17.39291763305664,-36.88498306274414
0.24117763340473175,0.3726038932800293,9.779460906982422,-0.005122509213577951,0.0004661670057904337,-0.003909676004682793,1.3000245094299316,2019-08-07 13:27:50:249,-152.1610211232782,165.0735657760175,0,-46.481075286865234,17.39291763305664,-36.88498306274414
0.24836188554763794,0.4109198749065399,9.793828964233398,0.003135306001762336,-0.00033297644199582136,-0.007639012311080588,1.3100247383117676,2019-08-07 13:27:50:259,-152.68856066331534,165.32228293011923,0,-46.481075286865234,17.39291763305664,-36.88498306274414
0.2962568700313568,0.40134090185165405,9.750723838806152,0.0012706381086377639,-0.0027304066878267143,-0.007905393438669812,1.3200063705444336,2019-08-07 13:27:50:269,-153.19845342670806,165.56798571290423,0,-46.481075286865234,17.39291763305664,-36.88498306274414
0.27470412850379944,0.38936713337898254,9.755513191223145,-0.002192316810096481,0.001531691613675204,-0.006307106152985815,1.3300271034240723,2019-08-07 13:27:50:279,-153.70308703208758,165.81214741567717,0,-46.481075286865234,17.39291763305664,-36.88498306274414
0.30104637145996094,0.3797881305217743,9.784250259399414,-0.0011267922997395827,-0.004062312325772837,-0.009237299076615935,1.3400397300720215,2019-08-07 13:27:50:289,-154.1914944835428,166.05208010533707,0,-46.481075286865234,17.39291763305664,-36.88498306274414
0.29865163564682007,0.3845776319503784,9.748329162597656,0.0015370192362269886,0.004728265144745899,-0.002844151494325895,1.350010633468628,2019-08-07 13:27:50:299,-154.67521627623734,166.28499433018288,0,-45.58143997192383,17.093040466308594,-36.58510208129883
0.2890726327896118,0.39415663480758667,9.765092849731445,0.00047149462834221814,0.0004661670057904337,-0.0012458645987533845,1.3600244522094727,2019-08-07 13:27:50:309,-155.14806182923937,166.51280087669014,0,-45.58143997192383,17.093040466308594,-36.58510208129883
0.30104637145996094,0.4228936433792114,9.78664493560791,-0.0005940299795425521,0.0012653104860859794,-0.0031105326219151193,1.3700413703918457,2019-08-07 13:27:50:319,-155.61057393888737,166.7333932538072,0,-45.58143997192383,17.093040466308594,-36.58510208129883
0.26751989126205444,0.3965514004230499,9.805803298950195,0.0020697814914054373,0.002064453868853653,-0.0004467211834764202,1.380021572113037,2019-08-07 13:27:50:329,-156.0682644745137,166.95124937065538,0,-45.58143997192383,17.093040466308594,-36.58510208129883
0.2818883955478668,0.34865638613700867,9.791434288024902,0.002336162618994662,0.00019978586194656375,0.0038153772155533703,1.3900163173675537,2019-08-07 13:27:50:339,-156.51403032445378,167.17012644043834,0,-45.58143997192383,17.093040466308594,-36.58510208129883
0.2699146270751953,0.40134090185165405,9.71719741821289,0.001803400363816213,0.002597216124032102,-0.0023113892391474454,1.4000186920166016,2019-08-07 13:27:50:349,-156.95338647869144,167.37840920008765,0,-45.58143997192383,17.093040466308594,-36.58510208129883
0.23399338126182556,0.38218289613723755,9.839329719543457,-0.0024586979376857053,-0.003529550070594388,-0.0004467211834764202,1.4100279808044434,2019-08-07 13:27:50:359,-157.3850886890995,167.58773513973753,0,-45.58143997192383,17.093040466308594,-36.58510208129883
0.22920389473438263,0.3797881305217743,9.848908424377441,0.002602543746583887,-0.0008657387296835611,0.0014179468071760237,1.4200217723846436,2019-08-07 13:27:50:369,-157.81023815972708,167.7903537424327,0,-45.58143997192383,17.093040466308594,-36.58510208129883
0.21004588901996613,0.3390774130821228,9.832145690917969,-0.002192316810096481,0.0028635972516213265,-0.002844151494325895,1.4300341606140137,2019-08-07 13:27:50:379,-158.23116661759798,167.99627608256793,0,-45.58143997192383,17.093040466308594,-36.58510208129883
0.152571901679039,0.3917618989944458,9.827356338500977,0.00020511348449834825,0.001531691613675204,-0.0009794834711641602,1.4400193691253662,2019-08-07 13:27:50:389,-158.64961288960527,168.19057847089329,0,-45.58143997192383,17.093040466308594,-36.58510208129883
0.152571901679039,0.36302489042282104,9.781855583190918,-0.00272507906527493,-6.659528596096748e-05,-0.0041760571322720175,1.4500377178192139,2019-08-07 13:27:50:399,-159.05871127002683,168.38579204808255,0,-45.58143997192383,17.093040466308594,-36.58510208129883
0.1597561538219452,0.38218289613723755,9.801013946533203,0.002336162618994662,-0.0021976444326482656,-0.0007131023435749355,1.4600203037261963,2019-08-07 13:27:50:409,-159.45762849261894,168.57210528189157,0,-45.58143997192383,17.093040466308594,-36.58510208129883
0.1597561538219452,0.38936713337898254,9.805803298950195,-0.0037906035756318283,0.005527408527513573,-0.0017786268539318336,1.4700195789337158,2019-08-07 13:27:50:419,-159.85291172415722,168.75731351542592,0,-45.28156280517578,16.793163299560547,-35.38559341430664
0.21723014116287231,0.3654196560382843,9.748329162597656,0.0034016871293515603,0.005527408527513573,0.0011515656795867992,1.4800333976745605,2019-08-07 13:27:50:429,-160.23343024441826,168.93731960378935,0,-45.28156280517578,16.793163299560547,-35.38559341430664
0.18130889534950256,0.3989461362361908,9.870461463928223,0.00020511348449834825,-6.659528596096748e-05,0.0008851845519975746,1.4900100231170654,2019-08-07 13:27:50:439,-160.60767756430363,169.11216767807957,0,-45.28156280517578,16.793163299560547,-35.38559341430664
0.12144014984369278,0.40852513909339905,9.836935043334961,0.00047149462834221814,-0.003529550070594388,0.0048809017259102685,1.5000238418579102,2019-08-07 13:27:50:449,-160.97939345623763,169.28209699491245,0,-45.28156280517578,16.793163299560547,-35.38559341430664
0.1453876495361328,0.36302489042282104,9.798619270324707,-0.0011267922997395827,-0.006193361606560959,0.0014179468071760237,1.5100195407867432,2019-08-07 13:27:50:459,-161.3393281693232,169.4546523427759,0,-45.28156280517578,16.793163299560547,-35.38559341430664
0.1453876495361328,0.38218289613723755,9.781855583190918,0.00393444938453001,0.0009989292934781736,0.00035242226430983473,1.5200340747833252,2019-08-07 13:27:50:469,-161.69607283735152,169.6185980563305,0,-45.28156280517578,16.793163299560547,-35.38559341430664
0.13580864667892456,0.40852513909339905,9.801013946533203,0.002336162618994662,0.0033963595067997765,0.0014179468071760237,1.5300161838531494,2019-08-07 13:27:50:479,-162.04817755184328,169.77718035359666,0,-45.28156280517578,16.793163299560547,-35.38559341430664
0.16215088963508606,0.40134090185165405,9.81538200378418,-0.0032578413204533796,0.002064453868853653,0.003016233572711371,1.5400114059448242,2019-08-07 13:27:50:489,-162.38944374036134,169.93663591936888,0,-45.28156280517578,16.793163299560547,-35.38559341430664
0.16933514177799225,0.42049887776374817,9.832145690917969,-0.0019259356825072562,-0.0008657387296835611,-0.003909676004682793,1.550025224685669,2019-08-07 13:27:50:499,-162.721434384389,170.09000770638957,0,-45.28156280517578,16.793163299560547,-35.38559341430664
0.19328264892101288,0.40852513909339905,9.848908424377441,0.002602543746583887,0.00019978586194656375,0.003016233572711371,1.5600240230560303,2019-08-07 13:27:50:509,-163.04463240909269,170.2392419383473,0,-45.28156280517578,16.793163299560547,-35.38559341430664
0.21483539044857025,0.37499865889549255,9.841724395751953,-0.0029914601928641544,0.003929121761978225,-0.0015122457263426093,1.5700368881225586,2019-08-07 13:27:50:519,-163.3609385310693,170.3924973174655,0,-45.28156280517578,16.793163299560547,-35.38559341430664
0.22920389473438263,0.3726038932800293,9.798619270324707,-0.0016595545549180318,-0.0013985010498805918,-0.0017786268539318336,1.5800166130065918,2019-08-07 13:27:50:529,-163.6661363581993,170.5420235311194,0,-45.28156280517578,16.793163299560547,-35.38559341430664
0.26751989126205444,0.3965514004230499,9.805803298950195,-0.002192316810096481,-0.003263168943005164,0.00061880342440835,1.5900242328643799,2019-08-07 13:27:50:539,-163.9597250913132,170.68609884189402,0,-45.28156280517578,16.793163299560547,-35.38559341430664
0.2579408884048462,0.34865638613700867,9.750723838806152,0.00047149462834221814,-0.00033297644199582136,-0.00257777036673667,1.6000211238861084,2019-08-07 13:27:50:549,-164.2500372582152,170.8311551783487,0,-45.28156280517578,16.793163299560547,-36.88498306274414
0.30583587288856506,0.3726038932800293,9.829751014709473,-0.0037906035756318283,0.0009989292934781736,-0.005507962770218141,1.610023021697998,2019-08-07 13:27:50:559,-164.5299558131756,170.97324491591633,0,-45.28156280517578,16.793163299560547,-36.88498306274414
0.2651251256465912,0.4300778806209564,9.779460906982422,-0.0016595545549180318,0.0031299783792105513,-0.0015122457263426093,1.62003493309021,2019-08-07 13:27:50:569,-164.81005764313923,171.10435072102143,0,-45.28156280517578,16.793163299560547,-36.88498306274414
0.27230939269065857,0.3797881305217743,9.760302543640137,-0.0008604111071317767,0.0009989292934781736,-0.0015122457263426093,1.6300888061523438,2019-08-07 13:27:50:579,-165.08245801373502,171.2381826045124,0,-45.28156280517578,16.793163299560547,-36.88498306274414
0.2244143933057785,0.4228936433792114,9.812987327575684,0.0010042569160299579,0.0031299783792105513,-0.0041760571322720175,1.6400108337402344,2019-08-07 13:27:50:589,-165.35635111356584,171.3635064207199,0,-45.28156280517578,16.793163299560547,-36.88498306274414
0.29386213421821594,0.42049887776374817,9.808197975158691,-0.0016595545549180318,0.0017980727412644285,-0.008704536821437486,1.650019884109497,2019-08-07 13:27:50:599,-165.61591226100467,171.4880711344137,0,-45.28156280517578,16.793163299560547,-36.88498306274414
0.2842831313610077,0.46599912643432617,9.781855583190918,-0.00272507906527493,0.006592933558019122,-0.00897091742887806,1.6600069999694824,2019-08-07 13:27:50:609,-165.8739976086214,171.60528868368357,0,-45.28156280517578,16.793163299560547,-36.88498306274414
0.34654662013053894,0.40134090185165405,9.75790786743164,-0.0011267922997395827,0.003929121761978225,-0.006573487280575038,1.6700408458709717,2019-08-07 13:27:50:619,-166.11805186805026,171.72671300241973,0,-45.28156280517578,16.793163299560547,-36.88498306274414
0.3178096413612366,0.44684112071990967,9.81538200378418,0.00047149462834221814,0.004728265144745899,-0.015097683883578876,1.6800029277801514,2019-08-07 13:27:50:629,-166.3612453403116,171.8397836732611,0,-45.28156280517578,16.793163299560547,-36.88498306274414
0.3369676172733307,0.4372621476650238,9.77467155456543,0.00020511348449834825,0.003929121761978225,-0.011368348097329731,1.6899983882904053,2019-08-07 13:27:50:639,-166.59673748940548,171.95164541283538,0,-45.28156280517578,16.793163299560547,-36.88498306274414
0.3369676172733307,0.4492358863353729,9.796224594116211,0.002602543746583887,0.003929121761978225,-0.006307106152985815,1.6999974250793457,2019-08-07 13:27:50:649,-166.82760739530863,172.05863864113087,0,-45.28156280517578,16.793163299560547,-36.88498306274414
0.33936238288879395,0.3845776319503784,9.760302543640137,0.002336162618994662,0.00019978586194656375,-0.004442438259861242,1.7100131511688232,2019-08-07 13:27:50:659,-167.0513405541529,172.1710237747193,0,-45.28156280517578,16.793163299560547,-36.88498306274414
0.33936238288879395,0.3869723975658417,9.8034086227417,-0.0029914601928641544,-6.659528596096748e-05,-0.010036441939234959,1.7199931144714355,2019-08-07 13:27:50:669,-167.2706243571444,172.2840700932746,0,-45.28156280517578,16.19340705871582,-35.68547058105469
0.3225991129875183,0.4181041419506073,9.77467155456543,0.00047149462834221814,0.0031299783792105513,-0.004975200515039691,1.7299985885620117,2019-08-07 13:27:50:679,-167.48916472110525,172.389137995837,0,-45.28156280517578,16.19340705871582,-35.68547058105469
0.30583587288856506,0.3845776319503784,9.760302543640137,-0.0056552714687564,0.002064453868853653,-0.007905393438669812,1.7399964332580566,2019-08-07 13:27:50:689,-167.7046452213645,172.4994017001691,0,-45.28156280517578,16.19340705871582,-35.68547058105469
0.27230939269065857,0.3917618989944458,9.801013946533203,0.0020697814914054373,0.0012653104860859794,-0.0031105326219151193,1.7499983310699463,2019-08-07 13:27:50:699,-167.91943322299952,172.60247159350965,0,-45.28156280517578,16.19340705871582,-35.68547058105469
0.23638813197612762,0.3989461362361908,9.793828964233398,-0.0016595545549180318,0.004994646272335123,-0.010835585842151283,1.760007381439209,2019-08-07 13:27:50:709,-168.13619863385313,172.70470240496925,0,-45.28156280517578,16.19340705871582,-35.68547058105469
0.26033562421798706,0.3917618989944458,9.796224594116211,-6.126766340918298e-05,0.0007325481658889489,-0.0041760571322720175,1.7699956893920898,2019-08-07 13:27:50:719,-168.34343985237606,172.80484068799564,0,-45.28156280517578,16.19340705871582,-35.68547058105469
0.26751989126205444,0.3965514004230499,9.767487525939941,-0.00272507906527493,0.002330834996442878,-0.0017786268539318336,1.7800028324127197,2019-08-07 13:27:50:729,-168.54650332714084,172.90377746652305,0,-45.28156280517578,16.19340705871582,-35.68547058105469
0.2627303898334503,0.4061304032802582,9.791434288024902,0.0028689248741731116,0.0033963595067997765,-0.002844151494325895,1.7899930477142334,2019-08-07 13:27:50:739,-168.7467378396404,172.99658938752995,0,-45.28156280517578,16.19340705871582,-35.68547058105469
0.205256387591362,0.4228936433792114,9.808197975158691,-0.002192316810096481,0.0012653104860859794,-0.006573487280575038,1.7999999523162842,2019-08-07 13:27:50:749,-168.948536941025,173.08851232371714,0,-45.28156280517578,16.19340705871582,-35.68547058105469
0.205256387591362,0.3917618989944458,9.824960708618164,-0.004589746958399502,-0.0008657387296835611,-0.008171774566259036,1.8100364208221436,2019-08-07 13:27:50:759,-169.14514211214532,173.18366040208014,0,-45.28156280517578,16.19340705871582,-35.68547058105469
0.18849314749240875,0.4516306221485138,9.760302543640137,0.002602543746583887,0.0041955028895674495,-0.0017786268539318336,1.8200006484985352,2019-08-07 13:27:50:769,-169.34245918417142,173.26554486215753,0,-45.28156280517578,16.19340705871582,-35.68547058105469
0.19088789820671082,0.44205164909362793,9.84411907196045,-0.004323365830810277,0.003662740634389001,-0.006573487280575038,1.8300046920776367,2019-08-07 13:27:50:779,-169.535449723082,173.3512395442027,0,-45.28156280517578,16.19340705871582,-35.68547058105469
0.16933514177799225,0.4372621476650238,9.81538200378418,-0.00032764881944403687,0.0031299783792105513,-0.005241581642628916,1.8400015830993652,2019-08-07 13:27:50:789,-169.726730266027,173.43338339291424,0,-45.28156280517578,16.19340705871582,-35.68547058105469
0.11665065586566925,0.3989461362361908,9.793828964233398,-0.0008604111071317767,0.004728265144745899,-0.0041760571322720175,1.850008249282837,2019-08-07 13:27:50:799,-169.9212044157273,173.51854672913623,0,-46.18119812011719,17.093040466308594,-35.68547058105469
0.16215088963508606,0.4181041419506073,9.789039611816406,-0.00272507906527493,0.002330834996442878,-0.005774343897807364,1.8599984645843506,2019-08-07 13:27:50:809,-170.10510798435533,173.60079043102104,0,-46.18119812011719,17.093040466308594,-35.68547058105469
0.10228215157985687,0.3582353889942169,9.817776679992676,-0.0029914601928641544,-0.0037959311981836125,-0.005774343897807364,1.8700010776519775,2019-08-07 13:27:50:819,-170.28893607609777,173.68866062770147,0,-46.18119812011719,17.093040466308594,-35.68547058105469
0.10467690229415894,0.4324726462364197,9.812987327575684,0.0007378757884407334,-0.003263168943005164,-0.00257777036673667,1.8800039291381836,2019-08-07 13:27:50:829,-170.4691013429129,173.764003470045,0,-46.18119812011719,17.093040466308594,-35.68547058105469
0.08551890403032303,0.42049887776374817,9.820171356201172,-0.0024586979376857053,-0.003529550070594388,-0.010036441939234959,1.890002727508545,2019-08-07 13:27:50:839,-170.64775876976847,173.8410657415577,0,-46.18119812011719,17.093040466308594,-35.68547058105469
0.14778240025043488,0.3726038932800293,9.870461463928223,-0.004323365830810277,0.002597216124032102,-0.013233016510602954,1.9000084400177002,2019-08-07 13:27:50:849,-170.81910717945703,173.92343629373104,0,-46.18119812011719,17.093040466308594,-35.68547058105469
0.09270315617322922,0.3797881305217743,9.868066787719727,0.0007378757884407334,-0.0021976444326482656,-0.0033769137495043436,1.9099986553192139,2019-08-07 13:27:50:859,-170.99072755994425,174.00047304200638,0,-46.18119812011719,17.093040466308594,-35.68547058105469
0.1334138959646225,0.3773933947086334,9.793828964233398,-0.003524222448042604,0.005527408527513573,-0.014298541020959853,1.9200000762939453,2019-08-07 13:27:50:869,-171.15840810953407,174.0783080682033,0,-46.18119812011719,17.093040466308594,-35.68547058105469
0.12144014984369278,0.3965514004230499,9.822566032409668,-0.0037906035756318283,0.0028635972516213265,-0.004442438259861242,1.930025577545166,2019-08-07 13:27:50:879,-171.32268528165474,174.15263856895254,0,-46.18119812011719,17.093040466308594,-35.68547058105469
0.152571901679039,0.4037356376647949,9.781855583190918,-0.005122509213577951,0.0007325481658889489,-0.003909676004682793,1.9400010108947754,2019-08-07 13:27:50:889,-171.47876999032036,174.22518540151137,0,-46.18119812011719,17.093040466308594,-35.68547058105469
0.18849314749240875,0.37499865889549255,9.772276878356934,-6.126766340918298e-05,0.0028635972516213265,-0.005774343897807364,1.950010061264038,2019-08-07 13:27:50:899,-171.62870363076175,174.29676464238673,0,-46.18119812011719,17.093040466308594,-35.68547058105469
0.24117763340473175,0.38936713337898254,9.779460906982422,-0.0013931734273288073,0.0004661670057904337,0.00035242226430983473,1.9599895477294922,2019-08-07 13:27:50:909,-171.76813633229878,174.3660097122519,0,-46.18119812011719,17.093040466308594,-35.68547058105469
0.23638813197612762,0.3797881305217743,9.762697219848633,-0.0005940299795425521,-0.0008657387296835611,-0.004708819387450467,1.9700393676757812,2019-08-07 13:27:50:919,-171.90454397617225,174.4344688230018,0,-45.731380462646484,16.64322280883789,-35.83540725708008
0.2387828826904297,0.38218289613723755,9.736355781555176,-0.0019259356825072562,0.0004661670057904337,-0.005241581642628916,1.9799957275390625,2019-08-07 13:27:50:929,-172.0386159053429,174.5018983911043,0,-45.731380462646484,16.64322280883789,-35.83540725708008
0.23638813197612762,0.36781439185142517,9.85609245300293,-0.003524222448042604,-0.001132119922291367,-0.006307106152985815,1.9900646209716797,2019-08-07 13:27:50:939,-172.16972519773617,174.57110890936323,0,-45.731380462646484,16.64322280883789,-35.83540725708008
0.26033562421798706,0.38936713337898254,9.750723838806152,0.004733593027372009,0.003929121761978225,-0.0033769137495043436,2.0000851154327393,2019-08-07 13:27:50:949,-172.29795375490406,174.63128883083027,0,-45.731380462646484,16.64322280883789,-35.83540725708008
0.3154148757457733,0.37499865889549255,9.827356338500977,-0.0008604111071317767,0.0052610273999243486,-0.0009794834711641602,2.0100045204162598,2019-08-07 13:27:50:959,-172.41815870663592,174.69543689196558,0,-45.731380462646484,16.64322280883789,-35.83540725708008
0.30104637145996094,0.34865638613700867,9.75790786743164,-0.0029914601928641544,0.004461884017156674,-0.0031105326219151193,2.0200023651123047,2019-08-07 13:27:50:969,-172.53695829718438,174.76228059549862,0,-45.731380462646484,16.64322280883789,-35.83540725708008
0.2914673686027527,0.3989461362361908,9.817776679992676,-0.0013931734273288073,0.001531691613675204,-0.003643294877093568,2.0300087928771973,2019-08-07 13:27:50:979,-172.65307009911868,174.82127898406327,0,-45.731380462646484,16.64322280883789,-35.83540725708008
0.3297833800315857,0.39415663480758667,9.748329162597656,-0.0008604111071317767,0.002597216124032102,-0.0031105326219151193,2.0400052070617676,2019-08-07 13:27:50:989,-172.76271526666636,174.87902848316375,0,-45.731380462646484,16.64322280883789,-35.83540725708008
0.31302013993263245,0.38936713337898254,9.750723838806152,-0.0019259356825072562,0.0033963595067997765,-0.0009794834711641602,2.049999237060547,2019-08-07 13:27:50:999,-172.87259303835998,174.93679413109638,0,-45.731380462646484,16.64322280883789,-35.83540725708008
0.2890726327896118,0.3797881305217743,9.817776679992676,0.00020511348449834825,0.00019978586194656375,-0.005241581642628916,2.0600054264068604,2019-08-07 13:27:51:009,-172.9815230645343,174.99363681922375,0,-45.731380462646484,16.64322280883789,-35.83540725708008
0.29865163564682007,0.3869723975658417,9.789039611816406,-0.0016595545549180318,0.005527408527513573,-0.0017786268539318336,2.070002555847168,2019-08-07 13:27:51:019,-173.09004570127698,175.04941981914786,0,-45.731380462646484,16.64322280883789,-35.83540725708008
0.3106253743171692,0.38218289613723755,9.848908424377441,0.00020511348449834825,0.002597216124032102,0.00035242226430983473,2.0800018310546875,2019-08-07 13:27:51:029,-173.19357388345918,175.10387176970698,0,-45.731380462646484,16.64322280883789,-35.83540725708008
0.26033562421798706,0.3917618989944458,9.73396110534668,0.0010042569160299579,0.0017980727412644285,-0.0015122457263426093,2.0900156497955322,2019-08-07 13:27:51:039,-173.30007310992568,175.1551349771067,0,-45.731380462646484,16.64322280883789,-35.83540725708008
0.29386213421821594,0.3582353889942169,9.801013946533203,-0.004856128085988727,-0.001132119922291367,0.0008851845519975746,2.1000020503997803,2019-08-07 13:27:51:049,-173.39908932616845,175.21288972704792,0,-45.131622314453125,17.542856216430664,-36.13528823852539
0.2435723841190338,0.3917618989944458,9.791434288024902,-0.0032578413204533796,0.0009989292934781736,-0.00257777036673667,2.110002040863037,2019-08-07 13:27:51:059,-173.5031684403337,175.264636789818,0,-45.131622314453125,17.542856216430664,-36.13528823852539
0.20286163687705994,0.3989461362361908,9.74593448638916,0.00020511348449834825,0.0041955028895674495,0.005413663981088718,2.1200013160705566,2019-08-07 13:27:51:069,-173.6116118795735,175.31234744467176,0,-45.131622314453125,17.542856216430664,-36.13528823852539
0.22680914402008057,0.38218289613723755,9.750723838806152,0.0055327364101396825,0.003662740634389001,0.002483471317532922,2.1300241947174072,2019-08-07 13:27:51:079,-173.7147909214769,175.35809519698103,0,-45.131622314453125,17.542856216430664,-36.13528823852539
0.21004588901996613,0.40852513909339905,9.793828964233398,0.0010042569160299579,0.004994646272335123,-0.0020450079815210586,2.1402268409729004,2019-08-07 13:27:51:089,-173.81878401357693,175.40258666088204,0,-45.131622314453125,17.542856216430664,-36.13528823852539
0.1717298924922943,0.3845776319503784,9.841724395751953,0.0015370192362269886,-0.0008657387296835611,-0.005507962770218141,2.1502151489257812,2019-08-07 13:27:51:099,-173.92192954702682,175.44891759484995,0,-45.131622314453125,17.542856216430664,-36.13528823852539
0.19328264892101288,0.37499865889549255,9.77467155456543,0.001803400363816213,0.0009989292934781736,-0.0004467211834764202,2.160015106201172,2019-08-07 13:27:51:109,-174.02138445092422,175.49500616565558,0,-45.131622314453125,17.542856216430664,-36.13528823852539
0.17412464320659637,0.3917618989944458,9.772276878356934,0.0020697814914054373,0.0012653104860859794,0.0014179468071760237,2.1702182292938232,2019-08-07 13:27:51:119,-174.12126564016972,175.53800610448891,0,-45.131622314453125,17.542856216430664,-36.13528823852539
0.17651939392089844,0.40134090185165405,9.836935043334961,-0.00032764881944403687,0.0004661670057904337,-0.0020450079815210586,2.1802070140838623,2019-08-07 13:27:51:129,-174.21854105058208,175.58070301433136,0,-45.131622314453125,17.542856216430664,-36.13528823852539
0.15736140310764313,0.3845776319503784,9.760302543640137,0.001803400363816213,0.008191220323554469,-0.005241581642628916,2.190028190612793,2019-08-07 13:27:51:139,-174.32021380910243,175.6229661763974,0,-45.131622314453125,17.542856216430664,-36.13528823852539
0.18370364606380463,0.4228936433792114,9.798619270324707,0.0034016871293515603,-0.0013985010498805918,0.0011515656795867992,2.2000033855438232,2019-08-07 13:27:51:149,-174.4115452168522,175.65917623003173,0,-45.131622314453125,17.542856216430664,-36.13528823852539
0.1717298924922943,0.4109198749065399,9.791434288024902,0.004733593027372009,-0.0008657387296835611,0.0014179468071760237,2.209998607635498,2019-08-07 13:27:51:159,-174.50273252317604,175.6952733112912,0,-45.131622314453125,17.542856216430664,-36.13528823852539
0.18130889534950256,0.39415663480758667,9.779460906982422,-6.126766340918298e-05,0.003929121761978225,0.0016843279347652483,2.2203588485717773,2019-08-07 13:27:51:170,-174.59372097471135,175.73524287430195,0,-47.230770111083984,16.64322280883789,-36.43516540527344
0.1860983967781067,0.44205164909362793,9.784250259399414,0.002602543746583887,0.004994646272335123,-0.00018034003963255039,2.230390787124634,2019-08-07 13:27:51:180,-174.68286708345892,175.7673348327693,0,-47.230770111083984,16.64322280883789,-36.43516540527344
0.2315986305475235,0.37499865889549255,9.765092849731445,0.005799117537728906,0.0017980727412644285,-0.0015122457263426093,2.2401063442230225,2019-08-07 13:27:51:189,-174.76301806238035,175.8048407730763,0,-47.230770111083984,16.64322280883789,-36.43516540527344
0.2124406397342682,0.3845776319503784,9.791434288024902,0.004200830512119234,0.0009989292934781736,-0.0033769137495043436,2.249993324279785,2019-08-07 13:27:51:199,-174.84345370991656,175.84142691431293,0,-47.230770111083984,16.64322280883789,-36.43516540527344
0.18370364606380463,0.43486738204956055,9.781855583190918,-0.002192316810096481,0.0031299783792105513,-0.0041760571322720175,2.2600131034851074,2019-08-07 13:27:51:209,-174.92682777850484,175.87492188138202,0,-47.230770111083984,16.64322280883789,-36.43516540527344
0.2627303898334503,0.3989461362361908,9.765092849731445,-0.0013931734273288073,0.005527408527513573,8.60411123386422e-05,2.270002603530884,2019-08-07 13:27:51:219,-175.00056810713252,175.9114153161142,0,-47.230770111083984,16.64322280883789,-36.43516540527344
0.2507566213607788,0.4109198749065399,9.827356338500977,0.0012706381086377639,0.005793789655102798,-0.003643294877093568,2.279998779296875,2019-08-07 13:27:51:229,-175.0745756573595,175.9445865425666,0,-47.230770111083984,16.64322280883789,-36.43516540527344
0.2507566213607788,0.3845776319503784,9.808197975158691,0.00047149462834221814,0.0007325481658889489,-0.0012458645987533845,2.290003776550293,2019-08-07 13:27:51:239,-175.14420554992319,175.98052180171135,0,-47.230770111083984,16.64322280883789,-36.43516540527344
0.26751989126205444,0.4324726462364197,9.805803298950195,-0.0013931734273288073,0.001531691613675204,-0.005241581642628916,2.299999713897705,2019-08-07 13:27:51:249,-175.21092625363477,176.01118687450148,0,-47.230770111083984,16.64322280883789,-36.43516540527344
0.25315138697624207,0.38936713337898254,9.71719741821289,-0.0024586979376857053,0.0004661670057904337,-0.0033769137495043436,2.3099942207336426,2019-08-07 13:27:51:259,-175.2771228176892,176.0464507614854,0,-47.230770111083984,16.64322280883789,-36.43516540527344
0.26751989126205444,0.4109198749065399,9.738750457763672,-0.0005940299795425521,0.002330834996442878,-0.00897091742887806,2.320007562637329,2019-08-07 13:27:51:269,-175.3414209025275,176.07753328192186,0,-47.230770111083984,16.64322280883789,-36.43516540527344
0.1789141446352005,0.40134090185165405,9.848908424377441,-0.0024586979376857053,0.001531691613675204,-0.007106249535753488,2.330015182495117,2019-08-07 13:27:51:279,-175.41463890031335,176.11069423084908,0,-47.230770111083984,16.64322280883789,-36.43516540527344
0.2627303898334503,0.4133146405220032,9.789039611816406,-0.0037906035756318283,-0.0027304066878267143,-0.007106249535753488,2.340108633041382,2019-08-07 13:27:51:289,-175.47405055295977,176.14227431555602,0,-47.230770111083984,16.64322280883789,-36.43516540527344
0.2244143933057785,0.4061304032802582,9.765092849731445,0.002602543746583887,-6.659528596096748e-05,-0.008171774566259036,2.350008010864258,2019-08-07 13:27:51:299,-175.5382025455322,176.17035100712974,0,-47.230770111083984,16.64322280883789,-36.43516540527344
0.2507566213607788,0.4109198749065399,9.796224594116211,-0.0013931734273288073,-0.0008657387296835611,-0.004975200515039691,2.3600006103515625,2019-08-07 13:27:51:309,-175.5976268345406,176.19968638995593,0,-47.230770111083984,16.64322280883789,-36.43516540527344
0.1860983967781067,0.4181041419506073,9.78664493560791,0.002336162618994662,-0.0008657387296835611,-0.005241581642628916,2.370004415512085,2019-08-07 13:27:51:319,-175.66340041697205,176.22545446221014,0,-47.230770111083984,16.64322280883789,-36.43516540527344
0.24117763340473175,0.3917618989944458,9.85609245300293,-0.0013931734273288073,-0.001132119922291367,-0.003643294877093568,2.3800060749053955,2019-08-07 13:27:51:329,-175.72146176982434,176.25620365448106,0,-47.230770111083984,16.64322280883789,-36.43516540527344
0.23638813197612762,0.40852513909339905,9.81538200378418,0.00393444938453001,-0.0008657387296835611,-0.0031105326219151193,2.390002489089966,2019-08-07 13:27:51:339,-175.77895434573136,176.28120464654342,0,-47.230770111083984,16.64322280883789,-36.43516540527344
0.22680914402008057,0.4228936433792114,9.829751014709473,-0.0016595545549180318,0.005527408527513573,-0.007106249535753488,2.3999931812286377,2019-08-07 13:27:51:349,-175.84004013187655,176.30724254735327,0,-47.230770111083984,16.64322280883789,-36.43516540527344
0.2244143933057785,0.4061304032802582,9.832145690917969,0.001803400363816213,0.007392076940786795,-0.002844151494325895,2.410013198852539,2019-08-07 13:27:51:359,-175.90124780101917,176.33277632404145,0,-47.230770111083984,16.64322280883789,-36.43516540527344
0.23638813197612762,0.40134090185165405,9.817776679992676,-6.126766340918298e-05,0.002330834996442878,-0.004708819387450467,2.4200127124786377,2019-08-07 13:27:51:369,-175.95694601762327,176.35933738049783,0,-47.230770111083984,16.64322280883789,-36.43516540527344
0.22920389473438263,0.3965514004230499,9.836935043334961,-0.0037906035756318283,-0.004328693453362062,-0.00950367968405651,2.4300074577331543,2019-08-07 13:27:51:379,-176.00868243067694,176.38810821530933,0,-47.230770111083984,16.64322280883789,-36.43516540527344
0.2507566213607788,0.39415663480758667,9.798619270324707,-0.00032764881944403687,0.002330834996442878,-0.002844151494325895,2.440007209777832,2019-08-07 13:27:51:389,-176.06049876538742,176.4144595654383,0,-47.230770111083984,16.64322280883789,-36.43516540527344
0.22680914402008057,0.36781439185142517,9.805803298950195,0.0007378757884407334,0.00019978586194656375,-0.003643294877093568,2.4500038623809814,2019-08-07 13:27:51:399,-176.11290052288092,176.442793195467,0,-47.230770111083984,16.64322280883789,-36.43516540527344
0.24117763340473175,0.3797881305217743,9.8034086227417,0.0010042569160299579,0.0033963595067997765,-0.005241581642628916,2.459994316101074,2019-08-07 13:27:51:409,-176.16436229403334,176.46900292281634,0,-47.230770111083984,16.64322280883789,-36.43516540527344
0.26751989126205444,0.34386688470840454,9.772276878356934,0.001803400363816213,0.004461884017156674,-0.00018034003963255039,2.470015525817871,2019-08-07 13:27:51:419,-176.21222365026435,176.49830226133182,0,-45.43150329589844,16.94310188293457,-35.83540725708008
0.21962489187717438,0.35584065318107605,9.738750457763672,0.002602543746583887,0.003662740634389001,-0.007372630663342713,2.4800150394439697,2019-08-07 13:27:51:429,-176.26419779337144,176.52502338867097,0,-45.43150329589844,16.94310188293457,-35.83540725708008
0.2770988941192627,0.3702091574668884,9.836935043334961,-0.0037906035756318283,0.001531691613675204,-0.004442438259861242,2.4900007247924805,2019-08-07 13:27:51:439,-176.30750162228077,176.55354255658614,0,-45.43150329589844,16.94310188293457,-35.83540725708008
0.21723014116287231,0.3797881305217743,9.77467155456543,0.00047149462834221814,0.004728265144745899,-0.0012458645987533845,2.5000035762786865,2019-08-07 13:27:51:449,-176.35854487778224,176.5777055103478,0,-45.43150329589844,16.94310188293457,-35.83540725708008
0.2627303898334503,0.3654196560382843,9.801013946533203,0.003668068256940785,0.002597216124032102,-0.00018034003963255039,2.5100011825561523,2019-08-07 13:27:51:459,-176.40212139019368,176.60138789881492,0,-45.43150329589844,16.94310188293457,-35.83540725708008
0.2435723841190338,0.38936713337898254,9.743539810180664,0.00020511348449834825,0.0031299783792105513,-0.004708819387450467,2.5200037956237793,2019-08-07 13:27:51:469,-176.44719687015893,176.6234767079416,0,-45.43150329589844,16.94310188293457,-35.83540725708008
0.2651251256465912,0.4037356376647949,9.801013946533203,0.0028689248741731116,0.005527408527513573,-0.003643294877093568,2.5300114154815674,2019-08-07 13:27:51:479,-176.49036857078733,176.64221773191977,0,-45.43150329589844,16.94310188293457,-35.83540725708008
0.24117763340473175,0.4228936433792114,9.836935043334961,0.004733593027372009,0.0012653104860859794,-0.0004467211834764202,2.540010929107666,2019-08-07 13:27:51:489,-176.53318220944303,176.65748256139995,0,-45.43150329589844,16.94310188293457,-35.83540725708008
0.2315986305475235,0.3390774130821228,9.78664493560791,0.0010042569160299579,-0.00033297644199582136,-0.004975200515039691,2.550009250640869,2019-08-07 13:27:51:499,-176.57521887072105,176.684082508975,0,-45.43150329589844,16.94310188293457,-35.83540725708008
0.2124406397342682,0.3845776319503784,9.812987327575684,-0.00032764881944403687,0.006060170782692022,-0.005507962770218141,2.5600104331970215,2019-08-07 13:27:51:509,-176.62231370568193,176.7056986163689,0,-45.43150329589844,16.94310188293457,-35.83540725708008
0.2387828826904297,0.3773933947086334,9.875250816345215,-0.0013931734273288073,0.0012653104860859794,-0.0023113892391474454,2.5700087547302246,2019-08-07 13:27:51:519,-176.66287502074724,176.7285956740785,0,-45.43150329589844,16.94310188293457,-35.83540725708008
0.19567739963531494,0.3726038932800293,9.798619270324707,-0.0024586979376857053,0.0004661670057904337,-0.004708819387450467,2.579986095428467,2019-08-07 13:27:51:529,-176.70699790641783,176.75184739959124,0,-45.43150329589844,16.94310188293457,-35.83540725708008
0.21962489187717438,0.3534458875656128,9.755513191223145,-0.0013931734273288073,0.002597216124032102,-0.004975200515039691,2.590023994445801,2019-08-07 13:27:51:539,-176.7485282826408,176.77609688265179,0,-45.43150329589844,16.94310188293457,-35.83540725708008
0.19567739963531494,0.3965514004230499,9.769882202148438,-0.0016595545549180318,0.003662740634389001,-0.008438155693848261,2.600006103515625,2019-08-07 13:27:51:549,-176.79266260504545,176.7950188710448,0,-45.43150329589844,16.94310188293457,-35.83540725708008
0.20286163687705994,0.4228936433792114,9.81538200378418,-0.00032764881944403687,0.001531691613675204,-0.0017786268539318336,2.610015630722046,2019-08-07 13:27:51:559,-176.8339901156611,176.80996162954835,0,-45.43150329589844,16.94310188293457,-35.83540725708008
0.16694039106369019,0.39415663480758667,9.772276878356934,-0.0008604111071317767,0.004728265144745899,-0.0017786268539318336,2.6200029850006104,2019-08-07 13:27:51:569,-176.88038802975333,176.82805039597224,0,-45.43150329589844,16.94310188293457,-35.83540725708008
0.1980721354484558,0.4037356376647949,9.769882202148438,0.00020511348449834825,0.0052610273999243486,-0.004708819387450467,2.6300089359283447,2019-08-07 13:27:51:579,-176.92250726444252,176.84404667163616,0,-45.43150329589844,16.94310188293457,-35.83540725708008
0.1980721354484558,0.40134090185165405,9.827356338500977,0.001803400363816213,0.001531691613675204,-0.004975200515039691,2.6400084495544434,2019-08-07 13:27:51:589,-176.96182411184486,176.85938095058614,0,-45.43150329589844,16.94310188293457,-35.83540725708008
0.20765113830566406,0.4252883791923523,9.75790786743164,0.00020511348449834825,-0.0008657387296835611,-0.003909676004682793,2.650012254714966,2019-08-07 13:27:51:599,-176.99771959400965,176.8721661519271,0,-45.43150329589844,16.94310188293457,-35.83540725708008
0.21723014116287231,0.34865638613700867,9.743539810180664,0.003135306001762336,0.002330834996442878,-0.00604072502539659,2.6600089073181152,2019-08-07 13:27:51:609,-177.033529812795,176.89197575034527,0,-45.43150329589844,16.94310188293457,-35.83540725708008
0.1980721354484558,0.36781439185142517,9.793828964233398,0.0015370192362269886,0.0028635972516213265,-0.00257777036673667,2.6700022220611572,2019-08-07 13:27:51:619,-177.07129400617814,176.91025829797385,0,-45.43150329589844,16.94310188293457,-35.83540725708008
0.1860983967781067,0.38218289613723755,9.81538200378418,0.00020511348449834825,0.0028635972516213265,-0.0017786268539318336,2.680006265640259,2019-08-07 13:27:51:629,-177.1097528708802,176.92734176787766,0,-45.43150329589844,16.94310188293457,-35.83540725708008
0.1860983967781067,0.3869723975658417,9.810592651367188,0.003668068256940785,0.002064453868853653,-0.002844151494325895,2.6900277137756348,2019-08-07 13:27:51:639,-177.146985073813,176.94155442988773,0,-45.43150329589844,16.94310188293457,-35.83540725708008
0.21723014116287231,0.4061304032802582,9.805803298950195,-0.0024586979376857053,-0.0019312633050590406,-0.007639012311080588,2.7000155448913574,2019-08-07 13:27:51:649,-177.17758071889517,176.95666853804477,0,-45.43150329589844,16.94310188293457,-35.83540725708008
0.20286163687705994,0.36302489042282104,9.743539810180664,0.002602543746583887,0.00019978586194656375,0.0011515656795867992,2.710009813308716,2019-08-07 13:27:51:659,-177.21028656969781,176.97339988628534,0,-45.43150329589844,16.94310188293457,-35.83540725708008
0.21962489187717438,0.4133146405220032,9.801013946533203,-0.0008604111071317767,0.002597216124032102,-0.0017786268539318336,2.720003843307495,2019-08-07 13:27:51:669,-177.24186448018318,176.9861193868609,0,-46.33113479614258,18.14261245727539,-36.13528823852539
0.1980721354484558,0.4252883791923523,9.81538200378418,0.001803400363816213,0.0017980727412644285,-0.004975200515039691,2.7300093173980713,2019-08-07 13:27:51:679,-177.27491618559992,176.99576376717374,0,-46.33113479614258,18.14261245727539,-36.13528823852539
0.21723014116287231,0.3917618989944458,9.75790786743164,-0.0011267922997395827,0.0004661670057904337,-0.004442438259861242,2.7400076389312744,2019-08-07 13:27:51:689,-177.30417345764948,177.01049938776183,0,-46.33113479614258,18.14261245727539,-36.13528823852539
0.24596713483333588,0.38936713337898254,9.820171356201172,-0.0029914601928641544,0.002330834996442878,-0.006307106152985815,2.750014305114746,2019-08-07 13:27:51:699,-177.33070372166952,177.02655876506293,0,-46.33113479614258,18.14261245727539,-36.13528823852539
0.24836188554763794,0.3773933947086334,9.743539810180664,-0.004589746958399502,0.001531691613675204,-0.004975200515039691,2.760075807571411,2019-08-07 13:27:51:709,-177.35575202575137,177.04425837182905,0,-46.33113479614258,18.14261245727539,-36.13528823852539
0.2315986305475235,0.3845776319503784,9.77467155456543,-0.0019259356825072562,-0.0008657387296835611,-0.003643294877093568,2.7700035572052,2019-08-07 13:27:51:719,-177.38100842711873,177.0593847941193,0,-46.33113479614258,18.14261245727539,-36.13528823852539
0.2387828826904297,0.3797881305217743,9.798619270324707,-0.0032578413204533796,0.001531691613675204,-0.0068398684081642635,2.7800066471099854,2019-08-07 13:27:51:729,-177.4063292372573,177.0756342128566,0,-46.33113479614258,18.14261245727539,-36.13528823852539
0.22680914402008057,0.4133146405220032,9.808197975158691,0.003668068256940785,-0.0037959311981836125,-0.0033769137495043436,2.790030002593994,2019-08-07 13:27:51:739,-177.4295723229424,177.0837971021489,0,-46.33113479614258,18.14261245727539,-36.13528823852539
0.22920389473438263,0.38218289613723755,9.760302543640137,-0.0019259356825072562,0.002597216124032102,-0.006573487280575038,2.80001163482666,2019-08-07 13:27:51:749,-177.4555316221547,177.09835302809583,0,-46.33113479614258,18.14261245727539,-36.13528823852539
0.25554612278938293,0.40134090185165405,9.805803298950195,0.00020511348449834825,0.004994646272335123,-0.006573487280575038,2.810009002685547,2019-08-07 13:27:51:759,-177.47936813121643,177.1093959065996,0,-46.33113479614258,18.14261245727539,-36.13528823852539
0.22920389473438263,0.3797881305217743,9.851303100585938,-0.002192316810096481,-0.00033297644199582136,-0.006573487280575038,2.82000732421875,2019-08-07 13:27:51:769,-177.5029373668335,177.1242832131767,0,-46.33113479614258,18.14261245727539,-36.13528823852539
0.23399338126182556,0.41570937633514404,9.892014503479004,0.0020697814914054373,0.001531691613675204,-0.0023113892391474454,2.8300085067749023,2019-08-07 13:27:51:779,-177.52663744213152,177.1325067423318,0,-46.33113479614258,18.14261245727539,-36.13528823852539
0.20765113830566406,0.4181041419506073,9.820171356201172,-0.0024586979376857053,-6.659528596096748e-05,-0.007905393438669812,2.8400135040283203,2019-08-07 13:27:51:789,-177.5518400848964,177.14247873733166,0,-46.33113479614258,18.14261245727539,-36.13528823852539
0.2315986305475235,0.4061304032802582,9.78664493560791,0.00047149462834221814,0.0031299783792105513,-0.007372630663342713,2.850005865097046,2019-08-07 13:27:51:799,-177.57544665917777,177.1518381924614,0,-46.33113479614258,18.14261245727539,-36.13528823852539
0.2627303898334503,0.3965514004230499,9.81538200378418,-0.0005940299795425521,-0.0019312633050590406,-0.005507962770218141,2.86000657081604,2019-08-07 13:27:51:809,-177.59218760708552,177.16286400986147,0,-46.33113479614258,18.14261245727539,-36.13528823852539
0.2387828826904297,0.3773933947086334,9.798619270324707,0.0012706381086377639,0.0004661670057904337,-0.007106249535753488,2.870006799697876,2019-08-07 13:27:51:819,-177.61268628325337,177.17478016653882,0,-46.33113479614258,18.14261245727539,-36.13528823852539
0.23399338126182556,0.41570937633514404,9.784250259399414,0.00047149462834221814,0.00019978586194656375,-0.004708819387450467,2.880009412765503,2019-08-07 13:27:51:829,-177.63314506232723,177.18236180456296,0,-46.33113479614258,18.14261245727539,-36.13528823852539
0.20765113830566406,0.3965514004230499,9.772276878356934,0.0015370192362269886,0.001531691613675204,-0.003643294877093568,2.890043020248413,2019-08-07 13:27:51:839,-177.65699919447093,177.19137376825623,0,-46.33113479614258,18.14261245727539,-36.13528823852539
0.2962568700313568,0.3869723975658417,9.793828964233398,0.0015370192362269886,0.0041955028895674495,-0.0012458645987533845,2.9000766277313232,2019-08-07 13:27:51:849,-177.67157027241342,177.20142664206514,0,-46.33113479614258,18.14261245727539,-36.13528823852539
0.21962489187717438,0.38936713337898254,9.810592651367188,0.0028689248741731116,0.0009989292934781736,-0.007639012311080588,2.9100093841552734,2019-08-07 13:27:51:859,-177.69304723052102,177.21034229695576,0,-46.33113479614258,18.14261245727539,-36.13528823852539
0.19567739963531494,0.3797881305217743,9.777066230773926,0.0007378757884407334,0.0007325481658889489,-0.0023113892391474454,2.9200074672698975,2019-08-07 13:27:51:869,-177.71666633288376,177.2212307268388,0,-46.33113479614258,18.14261245727539,-36.13528823852539
0.2387828826904297,0.3773933947086334,9.789039611816406,-0.005921652596345625,0.0033963595067997765,-0.003909676004682793,2.930006980895996,2019-08-07 13:27:51:879,-177.73629332356597,177.2359747383951,0,-46.33113479614258,18.14261245727539,-36.13528823852539
0.29386213421821594,0.36302489042282104,9.789039611816406,-0.0005940299795425521,0.001531691613675204,-0.006307106152985815,2.9400112628936768,2019-08-07 13:27:51:889,-177.7480383758707,177.2491123115592,0,-46.33113479614258,18.14261245727539,-36.13528823852539
0.21483539044857025,0.4109198749065399,9.805803298950195,0.0020697814914054373,0.00019978586194656375,-0.0020450079815210586,2.949995756149292,2019-08-07 13:27:51:899,-177.76808775966992,177.25497727673127,0,-46.33113479614258,18.14261245727539,-36.13528823852539
0.2435723841190338,0.40134090185165405,9.820171356201172,0.00047149462834221814,0.006060170782692022,-0.0017786268539318336,2.960012674331665,2019-08-07 13:27:51:909,-177.7877179089647,177.26280612656677,0,-46.33113479614258,18.14261245727539,-36.13528823852539
0.22920389473438263,0.38218289613723755,9.784250259399414,0.005799117537728906,-6.659528596096748e-05,-0.007639012311080588,2.970005512237549,2019-08-07 13:27:51:919,-177.80508710314268,177.26955823983138,0,-45.731380462646484,16.64322280883789,-35.235652923583984
0.2435723841190338,0.3773933947086334,9.762697219848633,-0.00272507906527493,0.00019978586194656375,-0.005241581642628916,2.9800121784210205,2019-08-07 13:27:51:929,-177.82051376247853,177.28142298417615,0,-45.731380462646484,16.64322280883789,-35.235652923583984
0.25554612278938293,0.3989461362361908,9.777066230773926,-0.00032764881944403687,0.004728265144745899,-0.005507962770218141,2.9900078773498535,2019-08-07 13:27:51:939,-177.83681293675855,177.28924608528578,0,-45.731380462646484,16.64322280883789,-35.235652923583984
0.2914673686027527,0.3965514004230499,9.805803298950195,0.00047149462834221814,0.001531691613675204,-0.003643294877093568,3.0000057220458984,2019-08-07 13:27:51:949,-177.84688540467428,177.296880337548,0,-45.731380462646484,16.64322280883789,-35.235652923583984
0.2770988941192627,0.3342879116535187,9.810592651367188,0.0034016871293515603,0.0031299783792105513,-0.0015122457263426093,3.010009288787842,2019-08-07 13:27:51:959,-177.8593481703273,177.31000097236523,0,-45.731380462646484,16.64322280883789,-35.235652923583984
0.26033562421798706,0.4181041419506073,9.805803298950195,-0.0032578413204533796,0.003929121761978225,-0.00604072502539659,3.020007371902466,2019-08-07 13:27:51:969,-177.87395105443557,177.31679940171946,0,-45.731380462646484,16.64322280883789,-35.235652923583984
0.22920389473438263,0.40852513909339905,9.801013946533203,-0.004589746958399502,0.002330834996442878,-0.0007131023435749355,3.030015707015991,2019-08-07 13:27:51:979,-177.89098869254215,177.32530636210706,0,-45.731380462646484,16.64322280883789,-35.235652923583984
0.21004588901996613,0.3965514004230499,9.765092849731445,-0.00032764881944403687,0.0028635972516213265,-0.005507962770218141,3.0400021076202393,2019-08-07 13:27:51:989,-177.91012994165058,177.33247494015015,0,-45.731380462646484,16.64322280883789,-35.235652923583984
0.21962489187717438,0.3917618989944458,9.75790786743164,-0.0024586979376857053,0.004994646272335123,-0.0033769137495043436,3.0500059127807617,2019-08-07 13:27:51:999,-177.9289456989677,177.34122483200085,0,-45.731380462646484,16.64322280883789,-35.235652923583984
0.22680914402008057,0.39415663480758667,9.812987327575684,-0.0013931734273288073,0.0012653104860859794,-0.005774343897807364,3.060009002685547,2019-08-07 13:27:52:009,-177.94459645937582,177.34917976998454,0,-45.731380462646484,16.64322280883789,-35.235652923583984
0.21723014116287231,0.38936713337898254,9.817776679992676,-0.002192316810096481,0.0031299783792105513,-0.006573487280575038,3.070009708404541,2019-08-07 13:27:52:019,-177.96211150577676,177.35800472405867,0,-45.731380462646484,16.64322280883789,-35.235652923583984
0.23399338126182556,0.38218289613723755,9.829751014709473,0.0034016871293515603,0.002597216124032102,-0.007639012311080588,3.080012559890747,2019-08-07 13:27:52:029,-177.97705510274847,177.36440302006068,0,-45.731380462646484,16.64322280883789,-35.235652923583984
0.21723014116287231,0.42049887776374817,9.829751014709473,0.0015370192362269886,0.0041955028895674495,-0.0017786268539318336,3.0900068283081055,2019-08-07 13:27:52:039,-177.99454866397383,177.3672621035274,0,-45.731380462646484,16.64322280883789,-35.235652923583984
0.19328264892101288,0.36781439185142517,9.808197975158691,-0.0005940299795425521,0.003929121761978225,-0.007905393438669812,3.100011110305786,2019-08-07 13:27:52:049,-178.01428607302765,177.377298029821,0,-45.731380462646484,16.64322280883789,-35.235652923583984
0.19088789820671082,0.3702091574668884,9.77467155456543,-0.002192316810096481,0.0007325481658889489,-0.003643294877093568,3.110006093978882,2019-08-07 13:27:52:059,-178.03203592358258,177.38760238136766,0,-45.731380462646484,16.64322280883789,-35.235652923583984
0.19328264892101288,0.36781439185142517,9.736355781555176,-0.0019259356825072562,0.00019978586194656375,8.60411123386422e-05,3.1200146675109863,2019-08-07 13:27:52:069,-178.048762162339,177.39766351356093,0,-45.731380462646484,16.64322280883789,-35.235652923583984
0.20765113830566406,0.3797881305217743,9.824960708618164,0.00047149462834221814,0.0017980727412644285,-0.006307106152985815,3.130005121231079,2019-08-07 13:27:52:079,-178.06458018060167,177.40517192992394,0,-45.731380462646484,16.64322280883789,-35.235652923583984
0.20286163687705994,0.3797881305217743,9.812987327575684,-6.126766340918298e-05,0.0028635972516213265,-0.0033769137495043436,3.140007734298706,2019-08-07 13:27:52:089,-178.0812110266455,177.4127751123658,0,-45.731380462646484,16.64322280883789,-35.235652923583984
0.1980721354484558,0.38936713337898254,9.798619270324707,-0.0011267922997395827,-6.659528596096748e-05,-0.004708819387450467,3.1500115394592285,2019-08-07 13:27:52:099,-178.09638868248734,177.41964131000447,0,-45.731380462646484,16.64322280883789,-35.235652923583984
0.22680914402008057,0.36781439185142517,9.789039611816406,-0.0013931734273288073,0.004461884017156674,-0.004708819387450467,3.1600096225738525,2019-08-07 13:27:52:109,-178.11041999564546,177.42899409289228,0,-45.731380462646484,16.64322280883789,-35.235652923583984
0.16215088963508606,0.37499865889549255,9.801013946533203,-0.0019259356825072562,0.001531691613675204,0.002483471317532922,3.1700141429901123,2019-08-07 13:27:52:119,-178.13011538837247,177.43767336838164,0,-45.731380462646484,16.64322280883789,-35.235652923583984
0.21723014116287231,0.4061304032802582,9.839329719543457,-0.0008604111071317767,0.00019978586194656375,-0.0012458645987533845,3.1800053119659424,2019-08-07 13:27:52:129,-178.14233004644802,177.44213035658723,0,-45.731380462646484,16.64322280883789,-35.235652923583984
0.15736140310764313,0.4228936433792114,9.772276878356934,-0.0024586979376857053,0.0009989292934781736,-0.0041760571322720175,3.1900105476379395,2019-08-07 13:27:52:139,-178.16159373681975,177.44511064352906,0,-45.731380462646484,16.64322280883789,-35.235652923583984
0.16933514177799225,0.3702091574668884,9.822566032409668,-0.0024586979376857053,-0.0005993576020943366,-0.0020450079815210586,3.200009346008301,2019-08-07 13:27:52:149,-178.17827242386002,177.45442008607392,0,-45.731380462646484,16.64322280883789,-35.235652923583984
0.19328264892101288,0.3318931460380554,9.841724395751953,-0.00272507906527493,-0.0008657387296835611,-0.006573487280575038,3.210010290145874,2019-08-07 13:27:52:159,-178.19171895556937,177.46823280621848,0,-45.731380462646484,16.64322280883789,-35.235652923583984
0.19328264892101288,0.3917618989944458,9.796224594116211,0.0020697814914054373,-0.003529550070594388,-0.0041760571322720175,3.2200164794921875,2019-08-07 13:27:52:169,-178.20329516377885,177.47190322092882,0,-46.481075286865234,17.093040466308594,-36.88498306274414
0.2315986305475235,0.4133146405220032,9.801013946533203,0.0015370192362269886,-6.659528596096748e-05,-0.005241581642628916,3.229999542236328,2019-08-07 13:27:52:179,-178.21211890508886,177.4733082511017,0,-46.481075286865234,17.093040466308594,-36.88498306274414
0.21004588901996613,0.3390774130821228,9.779460906982422,-0.0032578413204533796,-0.00033297644199582136,-0.00950367968405651,3.2400054931640625,2019-08-07 13:27:52:189,-178.22308095059333,177.4859567105857,0,-46.481075286865234,17.093040466308594,-36.88498306274414
0.20046688616275787,0.4061304032802582,9.81538200378418,-0.0061880337239348495,-0.0008657387296835611,-0.008704536821437486,3.250006675720215,2019-08-07 13:27:52:199,-178.2347325253503,177.4923251181025,0,-46.481075286865234,17.093040466308594,-36.88498306274414
0.23399338126182556,0.3989461362361908,9.760302543640137,0.0034016871293515603,0.00019978586194656375,-0.0020450079815210586,3.2600135803222656,2019-08-07 13:27:52:209,-178.242683225982,177.493754744443,0,-46.481075286865234,17.093040466308594,-36.88498306274414
0.2315986305475235,0.3965514004230499,9.846513748168945,-0.0032578413204533796,-0.0019312633050590406,-0.0004467211834764202,3.270005226135254,2019-08-07 13:27:52:219,-178.24979809573438,177.4995825423722,0,-46.481075286865234,17.093040466308594,-36.88498306274414
0.19088789820671082,0.38936713337898254,9.875250816345215,-0.0029914601928641544,0.004461884017156674,-0.004442438259861242,3.280005693435669,2019-08-07 13:27:52:229,-178.2651598837686,177.5061122360049,0,-46.481075286865234,17.093040466308594,-36.88498306274414
0.23638813197612762,0.37499865889549255,9.791434288024902,0.0015370192362269886,-0.00246402556023749,-0.0023113892391474454,3.2900102138519287,2019-08-07 13:27:52:239,-178.27081280332348,177.5112609921257,0,-46.481075286865234,17.093040466308594,-36.88498306274414
0.23638813197612762,0.4516306221485138,9.824960708618164,0.0015370192362269886,0.001531691613675204,-0.0004467211834764202,3.3000082969665527,2019-08-07 13:27:52:249,-178.27869106355485,177.5075348799066,0,-46.481075286865234,17.093040466308594,-36.88498306274414
0.2507566213607788,0.40852513909339905,9.839329719543457,-0.0024586979376857053,0.0009989292934781736,0.0014179468071760237,3.310016632080078,2019-08-07 13:27:52:259,-178.2844811166991,177.51121523070455,0,-46.481075286865234,17.093040466308594,-36.88498306274414
0.2244143933057785,0.39415663480758667,9.839329719543457,0.00047149462834221814,-0.003529550070594388,-0.00604072502539659,3.320005178451538,2019-08-07 13:27:52:269,-178.29068053549665,177.5148464438395,0,-46.481075286865234,17.093040466308594,-36.88498306274414
0.23399338126182556,0.4061304032802582,9.834540367126465,-0.0005940299795425521,0.0028635972516213265,-0.005241581642628916,3.330007791519165,2019-08-07 13:27:52:279,-178.29921560554064,177.51758791657676,0,-46.481075286865234,17.093040466308594,-36.88498306274414
0.22920389473438263,0.3606301546096802,9.791434288024902,0.0010042569160299579,0.004994646272335123,-0.007106249535753488,3.3400073051452637,2019-08-07 13:27:52:289,-178.30921624763775,177.52448593341168,0,-46.481075286865234,17.093040466308594,-36.88498306274414
0.25315138697624207,0.34147214889526367,9.765092849731445,-0.0032578413204533796,-0.004328693453362062,-0.00018034003963255039,3.3500046730041504,2019-08-07 13:27:52:299,-178.3109018120159,177.53577020253792,0,-46.481075286865234,17.093040466308594,-36.88498306274414
0.24836188554763794,0.36781439185142517,9.750723838806152,0.00047149462834221814,-0.0013985010498805918,-0.004708819387450467,3.360013961791992,2019-08-07 13:27:52:309,-178.31471634273484,177.5415843496589,0,-46.481075286865234,17.093040466308594,-36.88498306274414
0.27949362993240356,0.3965514004230499,9.769882202148438,0.00047149462834221814,0.0017980727412644285,-0.004442438259861242,3.370006799697876,2019-08-07 13:27:52:319,-178.31665786415311,177.54400186425127,0,-46.481075286865234,17.093040466308594,-36.88498306274414
0.32020437717437744,0.3773933947086334,9.8034086227417,-0.0016595545549180318,-0.0005993576020943366,-0.002844151494325895,3.3800110816955566,2019-08-07 13:27:52:329,-178.3125727944474,177.54996250809197,0,-46.481075286865234,17.093040466308594,-36.88498306274414
0.27949362993240356,0.3773933947086334,9.767487525939941,-0.003524222448042604,-0.0005993576020943366,-0.00257777036673667,3.3900058269500732,2019-08-07 13:27:52:339,-178.31320390237235,177.5566875176345,0,-46.481075286865234,17.093040466308594,-36.88498306274414
0.32499387860298157,0.38218289613723755,9.801013946533203,0.0012706381086377639,-0.0037959311981836125,0.0016843279347652483,3.4000160694122314,2019-08-07 13:27:52:349,-178.30682249283905,177.56017811755743,0,-46.481075286865234,17.093040466308594,-36.88498306274414
0.2244143933057785,0.4037356376647949,9.75790786743164,-0.00032764881944403687,-0.00246402556023749,-0.0004467211834764202,3.410005807876587,2019-08-07 13:27:52:359,-178.3129545556841,177.56177285247742,0,-46.481075286865234,17.093040466308594,-36.88498306274414
0.1453876495361328,0.34147214889526367,9.925540924072266,-0.0056552714687564,-0.0021976444326482656,-0.0017786268539318336,3.4200077056884766,2019-08-07 13:27:52:369,-178.3286772780324,177.5743055993307,0,-46.481075286865234,17.093040466308594,-36.88498306274414
0.19328264892101288,0.36302489042282104,9.860882759094238,-0.008052702137208073,-6.659528596096748e-05,0.002483471317532922,3.4300098419189453,2019-08-07 13:27:52:379,-178.3396081753975,177.58517460300743,0,-46.481075286865234,17.093040466308594,-36.88498306274414
0.23638813197612762,0.5019204020500183,9.762697219848633,0.001803400363816213,-0.0037959311981836125,0.0027498524451221467,3.440004587173462,2019-08-07 13:27:52:389,-178.34294462513006,177.57359697686454,0,-46.481075286865234,17.093040466308594,-36.88498306274414
0.08791365474462509,0.44205164909362793,9.824960708618164,0.00047149462834221814,-0.003529550070594388,0.004348139470731819,3.450028419494629,2019-08-07 13:27:52:399,-178.3638458037556,177.5703365582375,0,-46.481075286865234,17.093040466308594,-36.88498306274414
0.16454564034938812,0.3151299059391022,9.841724395751953,-0.004056984703221053,0.0041955028895674495,0.0016843279347652483,3.459990978240967,2019-08-07 13:27:52:409,-178.37975884323063,177.58451984973942,0,-46.481075286865234,17.093040466308594,-36.88498306274414
0.1262296438217163,0.4899466335773468,9.719592094421387,-0.0029914601928641544,-0.001132119922291367,-0.0012458645987533845,3.4699878692626953,2019-08-07 13:27:52:419,-178.3966468576315,177.57679399992142,0,-45.731380462646484,18.14261245727539,-35.83540725708008
0.08791365474462509,0.4324726462364197,9.882434844970703,-0.0024586979376857053,-0.005926980478971734,-0.00950367968405651,3.479991912841797,2019-08-07 13:27:52:429,-178.4151908434246,177.57652393721875,0,-45.731380462646484,18.14261245727539,-35.83540725708008
0.08551890403032303,0.2792086601257324,9.810592651367188,-0.005921652596345625,-0.0019312633050590406,-0.009237299076615935,3.4899888038635254,2019-08-07 13:27:52:439,-178.4358142725221,177.5957135619275,0,-45.731380462646484,18.14261245727539,-35.83540725708008
0.4279681146144867,0.5689733624458313,9.571117401123047,0.009794834971715925,0.029235331483697814,-0.005774343897807364,3.5000011920928955,2019-08-07 13:27:52:449,-178.4323289411804,177.57025162454846,0,-45.731380462646484,18.14261245727539,-35.83540725708008
0.5524951219558716,0.4755781292915344,9.872856140136719,0.006598260920496581,0.015383510768463532,-0.004442438259861242,3.5099880695343018,2019-08-07 13:27:52:459,-178.4082490547653,177.55999011270546,0,-45.731380462646484,18.14261245727539,-35.83540725708008
0.7129433155059814,0.26484015583992004,9.671697616577148,-0.0016595545549180318,-0.014717558209564796,0.0011515656795867992,3.519993305206299,2019-08-07 13:27:52:469,-178.34749788830646,177.5783518615762,0,-45.731380462646484,18.14261245727539,-35.83540725708008
0.41120487451553345,0.3797881305217743,9.678881645202637,0.005266355282550457,0.012453318885130711,0.001950709062354473,3.530014991760254,2019-08-07 13:27:52:479,-178.33890093732884,177.57888001242966,0,-45.731380462646484,18.14261245727539,-35.83540725708008
0.33217811584472656,0.34147214889526367,9.889619827270508,-0.0056552714687564,0.008457601451143694,-0.00018034003963255039,3.5400004386901855,2019-08-07 13:27:52:489,-178.338389746238,177.59092236848545,0,-45.731380462646484,18.14261245727539,-35.83540725708008
0.41838911175727844,0.23849791288375854,9.808197975158691,0.00020511348449834825,0.003662740634389001,0.0032826149603749208,3.549988031387329,2019-08-07 13:27:52:499,-178.3248242237419,177.61113009256286,0,-45.731380462646484,18.14261245727539,-35.83540725708008
0.2435723841190338,0.3869723975658417,9.789039611816406,0.009528453323978052,0.002330834996442878,0.0022170901899436976,3.5599889755249023,2019-08-07 13:27:52:509,-178.33112965826527,177.6082809381763,0,-45.731380462646484,18.14261245727539,-35.83540725708008
0.21723014116287231,0.3390774130821228,9.805803298950195,-0.003524222448042604,-0.0019312633050590406,0.0022170901899436976,3.5699894428253174,2019-08-07 13:27:52:519,-178.33804104138838,177.61848512805668,0,-45.731380462646484,18.14261245727539,-35.83540725708008
0.15496665239334106,0.3318931460380554,9.793828964233398,-0.0013931734273288073,0.002064453868853653,-0.004442438259861242,3.579989433288574,2019-08-07 13:27:52:529,-178.3543092271455,177.62807977230403,0,-45.731380462646484,18.14261245727539,-35.83540725708008
0.09749265760183334,0.3702091574668884,9.736355781555176,0.005266355282550457,0.011387794374773814,0.00035242226430983473,3.5900025367736816,2019-08-07 13:27:52:539,-178.38215168555095,177.62900664669522,0,-45.731380462646484,18.14261245727539,-35.83540725708008
0.152571901679039,0.3534458875656128,9.829751014709473,-0.00032764881944403687,0.003929121761978225,-0.002844151494325895,3.599987506866455,2019-08-07 13:27:52:549,-178.39892669921775,177.63542455600333,0,-45.731380462646484,18.14261245727539,-35.83540725708008
0.21723014116287231,0.3247089087963104,9.846513748168945,0.00020511348449834825,-0.00033297644199582136,-0.0017786268539318336,3.6099867820739746,2019-08-07 13:27:52:559,-178.40548454774375,177.64482568378048,0,-45.731380462646484,18.14261245727539,-35.83540725708008
0.16454564034938812,0.3965514004230499,9.779460906982422,0.0071310231756750294,0.0007325481658889489,-0.004708819387450467,3.619990348815918,2019-08-07 13:27:52:569,-178.41850738992423,177.64148291981152,0,-45.731380462646484,18.14261245727539,-35.83540725708008
0.1860983967781067,0.4372621476650238,9.796224594116211,0.00393444938453001,0.0017980727412644285,-0.004442438259861242,3.6299891471862793,2019-08-07 13:27:52:579,-178.4293804522165,177.6353294284601,0,-45.731380462646484,18.14261245727539,-35.83540725708008
0.16694039106369019,0.42049887776374817,9.801013946533203,-0.0011267922997395827,-0.00246402556023749,-0.0041760571322720175,3.6400034427642822,2019-08-07 13:27:52:589,-178.4398908579805,177.63412265377505,0,-45.731380462646484,18.14261245727539,-35.83540725708008
0.16694039106369019,0.4516306221485138,9.812987327575684,0.002602543746583887,-0.001132119922291367,-0.0033769137495043436,3.649991273880005,2019-08-07 13:27:52:599,-178.4509654787904,177.62727849443982,0,-45.731380462646484,18.14261245727539,-35.83540725708008
0.17412464320659637,0.4564201235771179,9.769882202148438,0.0020697814914054373,-0.0005993576020943366,-0.0031105326219151193,3.6599855422973633,2019-08-07 13:27:52:609,-178.46118879741437,177.62007650420998,0,-45.731380462646484,18.14261245727539,-35.83540725708008
0.18849314749240875,0.4492358863353729,9.779460906982422,-6.126766340918298e-05,0.0028635972516213265,-0.005507962770218141,3.6699931621551514,2019-08-07 13:27:52:619,-178.47149006265855,177.61510683309746,0,-45.731380462646484,18.14261245727539,-35.83540725708008
0.152571901679039,0.47318339347839355,9.736355781555176,0.00020511348449834825,0.003662740634389001,-0.007372630663342713,3.679990530014038,2019-08-07 13:27:52:629,-178.48616093886739,177.60704225378382,0,-45.731380462646484,18.14261245727539,-35.83540725708008
0.1597561538219452,0.4636043906211853,9.824960708618164,0.004733593027372009,0.003929121761978225,-0.011368348097329731,3.6900060176849365,2019-08-07 13:27:52:639,-178.50001612048027,177.5982078481818,0,-45.731380462646484,18.14261245727539,-35.83540725708008
0.15496665239334106,0.47318339347839355,9.887224197387695,-6.126766340918298e-05,-0.00246402556023749,-0.012167492000246055,3.6999869346618652,2019-08-07 13:27:52:649,-178.51067594139985,177.59147853930634,0,-45.731380462646484,18.14261245727539,-35.83540725708008
0.11425590515136719,0.4300778806209564,9.738750457763672,-0.0024586979376857053,0.0009989292934781736,-0.012167492000246055,3.709993839263916,2019-08-07 13:27:52:659,-178.52758033824287,177.5904579788594,0,-45.731380462646484,18.14261245727539,-35.83540725708008
0.11425590515136719,0.4516306221485138,9.779460906982422,-0.00272507906527493,0.0012653104860859794,-0.016695970649114225,3.7199885845184326,2019-08-07 13:27:52:669,-178.54435141686918,177.58729556355604,0,-46.18119812011719,17.69279670715332,-35.985347747802734
0.11425590515136719,0.40134090185165405,9.820171356201172,-0.0019259356825072562,0.0012653104860859794,-0.017228732904292672,3.730004072189331,2019-08-07 13:27:52:679,-178.56084404137144,177.58982632426296,0,-46.18119812011719,17.69279670715332,-35.985347747802734
0.16933514177799225,0.3965514004230499,9.836935043334961,-6.126766340918298e-05,0.0004661670057904337,-0.013765778765781403,3.740009069442749,2019-08-07 13:27:52:689,-178.57016495112111,177.59189449878048,0,-46.18119812011719,17.69279670715332,-35.985347747802734
0.1717298924922943,0.38218289613723755,9.805803298950195,0.002336162618994662,-0.003529550070594388,-0.012433872607686629,3.7499873638153076,2019-08-07 13:27:52:699,-178.5767176474361,177.59410803800935,0,-46.18119812011719,17.69279670715332,-35.985347747802734
0.1980721354484558,0.3845776319503784,9.834540367126465,-0.00672079649926195,-0.0008657387296835611,-0.013233016510602954,3.75998854637146,2019-08-07 13:27:52:709,-178.58162098228647,177.601212073923,0,-46.18119812011719,17.69279670715332,-35.985347747802734
0.20286163687705994,0.3797881305217743,9.817776679992676,-0.0016595545549180318,0.001531691613675204,-0.012700254255424506,3.7699897289276123,2019-08-07 13:27:52:719,-178.58717438190496,177.6058135932389,0,-46.18119812011719,17.69279670715332,-35.985347747802734
0.20046688616275787,0.3654196560382843,9.836935043334961,-0.004589746958399502,0.0007325481658889489,-0.014564921628400425,3.7800018787384033,2019-08-07 13:27:52:729,-178.59249333852998,177.61372900833533,0,-46.18119812011719,17.69279670715332,-35.985347747802734
0.20286163687705994,0.3773933947086334,9.836935043334961,-0.004056984703221053,-0.003263168943005164,-0.011634728704770307,3.7899885177612305,2019-08-07 13:27:52:739,-178.59518542463738,177.61978794654948,0,-46.18119812011719,17.69279670715332,-35.985347747802734
0.2124406397342682,0.3534458875656128,9.781855583190918,-0.0011267922997395827,0.00019978586194656375,-0.011368348097329731,3.7999866008758545,2019-08-07 13:27:52:749,-178.5985109900986,177.62663761840034,0,-46.18119812011719,17.69279670715332,-35.985347747802734
0.2124406397342682,0.34147214889526367,9.870461463928223,-0.0005940299795425521,0.004461884017156674,-0.006573487280575038,3.809983968734741,2019-08-07 13:27:52:759,-178.60438586985504,177.63481076929597,0,-46.18119812011719,17.69279670715332,-35.985347747802734
0.27949362993240356,0.3654196560382843,9.81538200378418,-0.0008604111071317767,-0.0048614559686148365,-0.008704536821437486,3.8199899196624756,2019-08-07 13:27:52:769,-178.59694562228182,177.63995603631616,0,-46.18119812011719,17.69279670715332,-35.985347747802734
0.2627303898334503,0.3510511517524719,9.777066230773926,0.00020511348449834825,0.0033963595067997765,-0.004442438259861242,3.8300058841705322,2019-08-07 13:27:52:779,-178.59613104571136,177.6459144742357,0,-46.18119812011719,17.69279670715332,-35.985347747802734
0.32020437717437744,0.3606301546096802,9.796224594116211,-0.0008604111071317767,0.0052610273999243486,-0.004442438259861242,3.8399901390075684,2019-08-07 13:27:52:789,-178.58971518465333,177.65131279067492,0,-46.18119812011719,17.69279670715332,-35.985347747802734
0.3034411370754242,0.34147214889526367,9.784250259399414,-6.126766340918298e-05,0.0012653104860859794,-0.006307106152985815,3.8499929904937744,2019-08-07 13:27:52:799,-178.5831044050252,177.65834450520154,0,-46.18119812011719,17.69279670715332,-35.985347747802734
0.30583587288856506,0.3726038932800293,9.810592651367188,0.0007378757884407334,-0.003263168943005164,-0.004975200515039691,3.8599867820739746,2019-08-07 13:27:52:809,-178.57389992881676,177.66126287209096,0,-46.18119812011719,17.69279670715332,-35.985347747802734
0.3345728814601898,0.3869723975658417,9.74593448638916,0.0034016871293515603,-0.003263168943005164,-0.006307106152985815,3.870002031326294,2019-08-07 13:27:52:819,-178.5612636255526,177.66064878547496,0,-46.18119812011719,17.69279670715332,-35.985347747802734
0.35133612155914307,0.3342879116535187,9.801013946533203,-0.00032764881944403687,0.003929121761978225,0.004081758343142595,3.8799891471862793,2019-08-07 13:27:52:829,-178.55118174875278,177.66855039643897,0,-46.18119812011719,17.69279670715332,-35.985347747802734
0.3225991129875183,0.3582353889942169,9.805803298950195,0.003135306001762336,-0.0013985010498805918,-0.0023113892391474454,3.8899905681610107,2019-08-07 13:27:52:839,-178.54168709580523,177.671573546433,0,-46.18119812011719,17.69279670715332,-35.985347747802734
0.30583587288856506,0.3510511517524719,9.765092849731445,0.002336162618994662,-0.0019312633050590406,0.0014179468071760237,3.8999886512756348,2019-08-07 13:27:52:849,-178.53389161352337,177.6756531040376,0,-46.18119812011719,17.69279670715332,-35.985347747802734
0.2579408884048462,0.3797881305217743,9.791434288024902,-0.0019259356825072562,0.0012653104860859794,-0.0004467211834764202,3.909989595413208,2019-08-07 13:27:52:859,-178.5337438433665,177.67879628735673,0,-46.18119812011719,17.69279670715332,-35.985347747802734
0.2627303898334503,0.38218289613723755,9.74593448638916,0.003135306001762336,0.0033963595067997765,0.0027498524451221467,3.9200024604797363,2019-08-07 13:27:52:869,-178.53409441891472,177.6785440213454,0,-46.18119812011719,17.69279670715332,-35.985347747802734
0.2244143933057785,0.3965514004230499,9.731565475463867,0.001803400363816213,0.003929121761978225,0.004081758343142595,3.9299888610839844,2019-08-07 13:27:52:879,-178.53919506684537,177.67729283532805,0,-46.18119812011719,17.69279670715332,-35.985347747802734
0.2315986305475235,0.37499865889549255,9.85609245300293,0.0028689248741731116,-0.00246402556023749,-0.0015122457263426093,3.9399852752685547,2019-08-07 13:27:52:889,-178.54010632459597,177.67855857369747,0,-46.18119812011719,17.69279670715332,-35.985347747802734
0.205256387591362,0.3917618989944458,9.760302543640137,-0.0005940299795425521,0.0041955028895674495,0.00035242226430983473,3.9499943256378174,2019-08-07 13:27:52:899,-178.5475673717888,177.67935083034502,0,-46.18119812011719,17.69279670715332,-35.985347747802734
0.24836188554763794,0.4181041419506073,9.805803298950195,-0.004856128085988727,0.0033963595067997765,-0.005241581642628916,3.959986686706543,2019-08-07 13:27:52:909,-178.54950401432643,177.67965796611983,0,-46.18119812011719,17.69279670715332,-35.985347747802734
0.24117763340473175,0.4181041419506073,9.710013389587402,0.00020511348449834825,-0.0016648821774698163,-0.0009794834711641602,3.9700005054473877,2019-08-07 13:27:52:919,-178.54912137474733,177.67663787848105,0,-46.03125762939453,17.842735290527344,-36.43516540527344
0.22920389473438263,0.3917618989944458,9.784250259399414,-0.0013931734273288073,0.0033963595067997765,-0.003643294877093568,3.979987144470215,2019-08-07 13:27:52:929,-178.55320436922534,177.6780283158895,0,-46.03125762939453,17.842735290527344,-36.43516540527344
0.21962489187717438,0.3965514004230499,9.748329162597656,-0.0019259356825072562,-0.0005993576020943366,0.003548996087964146,3.9899933338165283,2019-08-07 13:27:52:939,-178.5559910070543,177.67896091919664,0,-46.03125762939453,17.842735290527344,-36.43516540527344
0.22920389473438263,0.4181041419506073,9.729170799255371,0.0010042569160299579,0.003662740634389001,-0.0017786268539318336,3.999987840652466,2019-08-07 13:27:52:949,-178.55993571255192,177.6756035019241,0,-46.03125762939453,17.842735290527344,-36.43516540527344
0.19328264892101288,0.4109198749065399,9.851303100585938,-0.004589746958399502,0.007392076940786795,0.003016233572711371,4.010002374649048,2019-08-07 13:27:52:959,-178.57041368277692,177.67690130612124,0,-46.03125762939453,17.842735290527344,-36.43516540527344
0.2315986305475235,0.3869723975658417,9.781855583190918,-0.005921652596345625,0.0004661670057904337,-0.0004467211834764202,4.019989490509033,2019-08-07 13:27:52:969,-178.57214079403784,177.6813749450493,0,-46.03125762939453,17.842735290527344,-36.43516540527344
0.18849314749240875,0.4372621476650238,9.820171356201172,-0.0008604111071317767,-6.659528596096748e-05,-0.0009794834711641602,4.029987096786499,2019-08-07 13:27:52:979,-178.57866803313388,177.67724002019332,0,-46.03125762939453,17.842735290527344,-36.43516540527344
0.15017715096473694,0.4564201235771179,9.793828964233398,-0.005122509213577951,-0.005394218223793286,-0.0033769137495043436,4.039989471435547,2019-08-07 13:27:52:989,-178.58649518076513,177.67320788822926,0,-46.03125762939453,17.842735290527344,-36.43516540527344
0.09988740086555481,0.4228936433792114,9.741145133972168,-0.0061880337239348495,0.006326551910281247,-0.004975200515039691,4.049990177154541,2019-08-07 13:27:52:999,-178.60656787166587,177.67350197852937,0,-46.03125762939453,17.842735290527344,-36.43516540527344
0.1597561538219452,0.46599912643432617,9.78664493560791,-0.00272507906527493,0.0052610273999243486,-0.006307106152985815,4.059999704360962,2019-08-07 13:27:53:009,-178.61868924505174,177.66704099493967,0,-46.03125762939453,17.842735290527344,-36.43516540527344
0.19088789820671082,0.4707886278629303,9.851303100585938,-0.004056984703221053,0.00019978586194656375,-0.0068398684081642635,4.069991588592529,2019-08-07 13:27:53:019,-178.6242260138468,177.66125524296217,0,-46.03125762939453,17.842735290527344,-36.43516540527344
0.27230939269065857,0.43486738204956055,9.798619270324707,-0.002192316810096481,0.0041955028895674495,-0.00604072502539659,4.079987287521362,2019-08-07 13:27:53:029,-178.62225877578143,177.65843766271334,0,-46.03125762939453,17.842735290527344,-36.43516540527344
0.3034411370754242,0.4588148891925812,9.78664493560791,-0.003524222448042604,0.0012653104860859794,-0.007106249535753488,4.089993238449097,2019-08-07 13:27:53:039,-178.61500603204226,177.6535657297669,0,-46.03125762939453,17.842735290527344,-36.43516540527344
0.24596713483333588,0.4492358863353729,9.714802742004395,-0.00032764881944403687,0.004461884017156674,-0.011368348097329731,4.099988222122192,2019-08-07 13:27:53:049,-178.61620298748448,177.6477261214192,0,-46.03125762939453,17.842735290527344,-36.43516540527344
0.3225991129875183,0.3702091574668884,9.851303100585938,-0.0008604111071317767,0.0033963595067997765,-0.008704536821437486,4.110003709793091,2019-08-07 13:27:53:059,-178.60827721513,177.65221254084852,0,-46.03125762939453,17.842735290527344,-36.43516540527344
0.25315138697624207,0.4372621476650238,9.798619270324707,-0.004323365830810277,0.0031299783792105513,-0.010835585842151283,4.119986057281494,2019-08-07 13:27:53:069,-178.6082674273898,177.65048913373178,0,-46.03125762939453,17.842735290527344,-36.43516540527344
0.28667786717414856,0.4396568834781647,9.858488082885742,-0.003524222448042604,-0.0016648821774698163,-0.013499397118043528,4.129993200302124,2019-08-07 13:27:53:079,-178.60185355415945,177.64838929781087,0,-46.03125762939453,17.842735290527344,-36.43516540527344
0.21483539044857025,0.36781439185142517,9.721986770629883,-0.0061880337239348495,-0.005394218223793286,-0.005507962770218141,4.139991760253906,2019-08-07 13:27:53:089,-178.60146987739918,177.65556253589003,0,-46.03125762939453,17.842735290527344,-36.43516540527344
0.2507566213607788,0.3917618989944458,9.74593448638916,0.005266355282550457,-0.004062312325772837,-0.012700254255424506,4.150001764297485,2019-08-07 13:27:53:099,-178.59768004801262,177.65345315524732,0,-46.03125762939453,17.842735290527344,-36.43516540527344
0.21962489187717438,0.3318931460380554,9.824960708618164,0.0007378757884407334,0.00019978586194656375,-0.007639012311080588,4.15998911857605,2019-08-07 13:27:53:109,-178.60022721881631,177.66127528869677,0,-46.03125762939453,17.842735290527344,-36.43516540527344
0.22680914402008057,0.32949841022491455,9.753118515014648,-0.00272507906527493,-6.659528596096748e-05,-0.00604072502539659,4.169987916946411,2019-08-07 13:27:53:119,-178.6015417771158,177.67088094455502,0,-46.03125762939453,17.842735290527344,-36.43516540527344
0.22920389473438263,0.3845776319503784,9.8848295211792,-0.0005940299795425521,0.0028635972516213265,-0.005507962770218141,4.179992198944092,2019-08-07 13:27:53:129,-178.60455344713043,177.67323667678113,0,-46.03125762939453,17.842735290527344,-36.43516540527344
0.20046688616275787,0.2816033959388733,9.784250259399414,-0.0013931734273288073,-0.005394218223793286,-0.005774343897807364,4.189990520477295,2019-08-07 13:27:53:139,-178.60595896687926,177.6875822441489,0,-46.03125762939453,17.842735290527344,-36.43516540527344
0.2244143933057785,0.2863928973674774,9.8034086227417,-0.0032578413204533796,0.00019978586194656375,-0.004442438259861242,4.200001239776611,2019-08-07 13:27:53:149,-178.6077249802539,177.70219502772596,0,-46.03125762939453,17.842735290527344,-36.43516540527344
0.152571901679039,0.29597190022468567,9.801013946533203,-0.004589746958399502,-0.001132119922291367,-0.003643294877093568,4.209990501403809,2019-08-07 13:27:53:159,-178.61709850860242,177.71613154754556,0,-46.03125762939453,17.842735290527344,-36.43516540527344
0.205256387591362,0.3318931460380554,9.791434288024902,-0.0011267922997395827,-0.0008657387296835611,-0.0012458645987533845,4.2199866771698,2019-08-07 13:27:53:169,-178.62025247209328,177.7236139631768,0,-45.28156280517578,16.793163299560547,-35.38559341430664
0.16694039106369019,0.26962965726852417,9.801013946533203,0.002336162618994662,0.004728265144745899,0.0032826149603749208,4.229989767074585,2019-08-07 13:27:53:179,-178.6309866971072,177.7363128977558,0,-45.28156280517578,16.793163299560547,-35.38559341430664
0.16454564034938812,0.2863928973674774,9.8034086227417,0.004467211899782784,-0.0027304066878267143,0.005680045108677942,4.239991664886475,2019-08-07 13:27:53:189,-178.63760169983317,177.7456110245021,0,-45.28156280517578,16.793163299560547,-35.38559341430664
0.11665065586566925,0.3342879116535187,9.772276878356934,0.0028689248741731116,0.003929121761978225,0.008343856384570188,4.25000262260437,2019-08-07 13:27:53:199,-178.65338025389323,177.7499021905847,0,-45.28156280517578,16.793163299560547,-35.38559341430664
0.11665065586566925,0.3462616503238678,9.860882759094238,0.0007378757884407334,0.002064453868853653,0.01020852479784341,4.259988307952881,2019-08-07 13:27:53:209,-178.667915045222,177.75426850138098,0,-45.28156280517578,16.793163299560547,-35.38559341430664
0.16454564034938812,0.35584065318107605,9.8034086227417,0.003135306001762336,0.0031299783792105513,0.006479188491445616,4.269992828369141,2019-08-07 13:27:53:219,-178.6770831646369,177.75584607990984,0,-45.28156280517578,16.793163299560547,-35.38559341430664
0.1334138959646225,0.4037356376647949,9.805803298950195,0.0015370192362269886,-0.0021976444326482656,0.009143000287486512,4.279989004135132,2019-08-07 13:27:53:229,-178.68671808479868,177.75271215352248,0,-45.28156280517578,16.793163299560547,-35.38559341430664
0.1405981481075287,0.43486738204956055,9.765092849731445,0.004733593027372009,-0.00033297644199582136,0.005413663981088718,4.290003061294556,2019-08-07 13:27:53:239,-178.69629870170155,177.74399907923072,0,-45.28156280517578,16.793163299560547,-35.38559341430664
0.16454564034938812,0.4300778806209564,9.738750457763672,0.003135306001762336,0.0012653104860859794,-0.0041760571322720175,4.299989461898804,2019-08-07 13:27:53:249,-178.70372271766072,177.7367885232997,0,-45.28156280517578,16.793163299560547,-35.38559341430664
0.1597561538219452,0.4252883791923523,9.812987327575684,-0.0008604111071317767,0.002597216124032102,0.0008851845519975746,4.3099870681762695,2019-08-07 13:27:53:259,-178.71245230554166,177.73290359234966,0,-45.28156280517578,16.793163299560547,-35.38559341430664
0.1860983967781067,0.38936713337898254,9.810592651367188,0.00047149462834221814,-0.00033297644199582136,-0.0017786268539318336,4.319993257522583,2019-08-07 13:27:53:269,-178.71628176396226,177.732524865946,0,-45.28156280517578,16.793163299560547,-35.38559341430664
0.2244143933057785,0.40852513909339905,9.721986770629883,0.00020511348449834825,-6.659528596096748e-05,0.0022170901899436976,4.329989194869995,2019-08-07 13:27:53:279,-178.7154720687562,177.72963532773718,0,-45.28156280517578,16.793163299560547,-35.38559341430664
0.21723014116287231,0.3654196560382843,9.777066230773926,0.0012706381086377639,-0.0013985010498805918,-0.007372630663342713,4.339999675750732,2019-08-07 13:27:53:289,-178.71492039878004,177.73151953091042,0,-45.28156280517578,16.793163299560547,-35.38559341430664
0.25315138697624207,0.3965514004230499,9.779460906982422,0.0012706381086377639,0.0009989292934781736,-0.003909676004682793,4.3499884605407715,2019-08-07 13:27:53:299,-178.71152568049612,177.7297357165463,0,-45.28156280517578,16.793163299560547,-35.38559341430664
0.3034411370754242,0.4133146405220032,9.784250259399414,-0.0037906035756318283,0.002330834996442878,-0.003643294877093568,4.359990835189819,2019-08-07 13:27:53:309,-178.70307708970893,177.7288919456211,0,-45.28156280517578,16.793163299560547,-35.38559341430664
0.3082306385040283,0.40134090185165405,9.824960708618164,0.0007378757884407334,0.0052610273999243486,-0.004442438259861242,4.369994640350342,2019-08-07 13:27:53:319,-178.69603262508986,177.72711601093377,0,-45.28156280517578,16.793163299560547,-35.38559341430664
0.2842831313610077,0.36781439185142517,9.755513191223145,-6.126766340918298e-05,0.002597216124032102,-0.00257777036673667,4.379989385604858,2019-08-07 13:27:53:329,-178.69018612843715,177.72942380614737,0,-45.28156280517578,16.793163299560547,-35.38559341430664
0.3082306385040283,0.4109198749065399,9.829751014709473,0.0010042569160299579,0.0009989292934781736,-0.004442438259861242,4.390003442764282,2019-08-07 13:27:53:339,-178.68102348729926,177.72639502245812,0,-45.28156280517578,16.793163299560547,-35.38559341430664
0.2579408884048462,0.4396568834781647,9.743539810180664,-0.0005940299795425521,-0.0027304066878267143,0.002483471317532922,4.400021076202393,2019-08-07 13:27:53:349,-178.67553843605725,177.7205292599225,0,-45.28156280517578,16.793163299560547,-35.38559341430664
0.2842831313610077,0.45402538776397705,9.834540367126465,0.0007378757884407334,0.003929121761978225,-0.005241581642628916,4.409987211227417,2019-08-07 13:27:53:359,-178.67111108975604,177.71284049324484,0,-45.28156280517578,16.793163299560547,-35.38559341430664
0.3034411370754242,0.4109198749065399,9.81538200378418,-0.0008604111071317767,0.002330834996442878,-0.0009794834711641602,4.419992446899414,2019-08-07 13:27:53:369,-178.66358377590595,177.71112142523134,0,-45.28156280517578,16.793163299560547,-35.38559341430664
0.2315986305475235,0.3989461362361908,9.846513748168945,-0.0037906035756318283,0.0009989292934781736,-0.0023113892391474454,4.42999267578125,2019-08-07 13:27:53:379,-178.66392504072505,177.71262437168835,0,-45.28156280517578,16.793163299560547,-35.38559341430664
0.2579408884048462,0.4396568834781647,9.848908424377441,-0.0008604111071317767,0.0007325481658889489,-0.00257777036673667,4.440003395080566,2019-08-07 13:27:53:389,-178.66105387052616,177.70773560063776,0,-45.28156280517578,16.793163299560547,-35.38559341430664
0.24596713483333588,0.44205164909362793,9.8034086227417,-0.004589746958399502,-0.0005993576020943366,-0.004708819387450467,4.449980735778809,2019-08-07 13:27:53:399,-178.65875207104096,177.70451596440802,0,-45.28156280517578,16.793163299560547,-35.38559341430664
0.22920389473438263,0.3989461362361908,9.777066230773926,-0.004589746958399502,0.0028635972516213265,-0.0033769137495043436,4.459992408752441,2019-08-07 13:27:53:409,-178.66032801752365,177.70627345563182,0,-45.28156280517578,16.793163299560547,-35.38559341430664
0.2507566213607788,0.4109198749065399,9.812987327575684,0.001803400363816213,0.002330834996442878,-0.004442438259861242,4.46998929977417,2019-08-07 13:27:53:419,-178.6591539755184,177.70317837714612,0,-46.33113479614258,17.242979049682617,-36.43516540527344
0.2627303898334503,0.4252883791923523,9.793828964233398,-0.0011267922997395827,-0.001132119922291367,-0.007905393438669812,4.480002164840698,2019-08-07 13:27:53:429,-178.65460130093476,177.70001918434355,0,-46.33113479614258,17.242979049682617,-36.43516540527344
0.22680914402008057,0.4037356376647949,9.769882202148438,0.0007378757884407334,-0.0016648821774698163,-0.012167492000246055,4.489994525909424,2019-08-07 13:27:53:439,-178.65397735122045,177.69827732396206,0,-46.33113479614258,17.242979049682617,-36.43516540527344
0.23638813197612762,0.41570937633514404,9.841724395751953,-6.126766340918298e-05,0.0041955028895674495,-0.012167492000246055,4.499985456466675,2019-08-07 13:27:53:449,-178.65573301000362,177.6959720184823,0,-46.33113479614258,17.242979049682617,-36.43516540527344
0.19567739963531494,0.4396568834781647,9.750723838806152,-0.00272507906527493,0.002064453868853653,-0.013499397118043528,4.509991645812988,2019-08-07 13:27:53:459,-178.66078512238627,177.691949674864,0,-46.33113479614258,17.242979049682617,-36.43516540527344
0.18849314749240875,0.4636043906211853,9.791434288024902,-0.0029914601928641544,0.0012653104860859794,-0.01536406553131675,4.519989013671875,2019-08-07 13:27:53:469,-178.66622261176758,177.68557367054586,0,-46.33113479614258,17.242979049682617,-36.43516540527344
0.17412464320659637,0.4228936433792114,9.805803298950195,-0.0032578413204533796,-0.001132119922291367,-0.016695970649114225,4.530002593994141,2019-08-07 13:27:53:479,-178.6719153777941,177.68430480244018,0,-46.33113479614258,17.242979049682617,-36.43516540527344
0.19088789820671082,0.4324726462364197,9.760302543640137,0.00020511348449834825,-0.0005993576020943366,-0.013233016510602954,4.539987564086914,2019-08-07 13:27:53:489,-178.67573255848123,177.67976212530996,0,-46.33113479614258,17.242979049682617,-36.43516540527344
