ACCELEROMETER X (m/s²),ACCELEROMETER Y (m/s²),ACCELEROMETER Z (m/s²),GYROSCOPE X (rad/s),GYROSCOPE Y (rad/s),GYROSCOPE Z (rad/s),Pitch (Deg),Roll (Deg),Heading (Deg),Time since start in ms ,YYYY-MO-DD HH-MI-SS_SSS
-0.056041933596134186,0.29798829555511475,9.837308883666992,-0.0004688308170663259,-0.002023963937460091,0.00507269613777451,3.593471931047821,3.5652989396994177,0,0.0,2019-08-06 14:46:39:940
-0.020120687782764435,0.3410937786102295,9.856466293334961,-0.0007352119771648412,-0.0017575828098708665,0.006404601775720633,7.119577442314488,7.054484545258829,0,0.003183603286743164,2019-08-06 14:46:39:943
-0.03209443390369415,0.25727754831314087,9.909151077270508,-0.0007352119771648412,-0.0012248205546924172,0.004806315010185286,10.573687530805984,10.483777318731661,0,0.00628209114074707,2019-08-06 14:46:39:946
-0.04406818374991417,0.34348851442337036,9.830123901367188,-0.002599880065345157,-0.007617968136982457,0.008269269668845206,13.958667334999767,13.834619824254725,0,0.01000070571899414,2019-08-06 14:46:39:950
-0.03927868604660034,0.30277779698371887,9.911545753479004,-0.00020244967322245603,-0.0022903450650493154,0.006138220648131409,17.27536109200235,17.122968979570313,0,0.013175249099731445,2019-08-06 14:46:39:953
-0.008146938867866993,0.30517253279685974,9.84449291229248,-0.003132642320523606,-0.004155012958173888,0.007736507413666756,20.52962204398856,20.345538567413673,0,0.016246318817138672,2019-08-06 14:46:39:956
-0.027304936200380325,0.28601452708244324,9.798992156982422,0.0016622183661939237,-0.003622250702995438,0.003208027984575613,23.71660355390308,23.504838136345256,0,0.020017623901367188,2019-08-06 14:46:39:960
-0.008146938867866993,0.2740407884120941,9.909151077270508,-0.0028662611929343817,-0.0033558695754062136,0.006670982903309857,26.84192812185026,26.603570192013603,0,0.023195266723632812,2019-08-06 14:46:39:963
-0.027304936200380325,0.30517253279685974,9.798992156982422,-0.0004688308170663259,0.00010708522141819095,0.0018761223466294901,29.901878159142623,29.635902936484246,0,0.02624034881591797,2019-08-06 14:46:39:966
-0.0680156797170639,0.29080402851104736,9.791808128356934,-0.001534355424951096,-0.002023963937460091,0.003208027984575613,32.89630819516415,32.6094865330064,0,0.029999494552612305,2019-08-06 14:46:39:970
-0.06083143129944801,0.28361979126930237,9.83491325378418,-0.0033990234481128304,-0.0014912016822816417,0.005871839520542184,35.83156052953096,35.524866720220075,0,0.03317856788635254,2019-08-06 14:46:39:973
-0.04646293446421623,0.31235677003860474,9.861255645751953,0.0005966937908184444,-0.0009584393620846114,0.0037407904998283874,38.70969385792841,38.37798257184959,0,0.03621983528137207,2019-08-06 14:46:39:976
-0.03209443390369415,0.3386990427970886,9.846887588500977,6.393147468507523e-05,-0.0030894884478169893,0.007736507413666756,41.5324171716315,41.171009407120664,0,0.039978981018066406,2019-08-06 14:46:39:980
-0.027304936200380325,0.3075672686100006,9.866044998168945,0.0005966937908184444,-0.0030894884478169893,0.005871839520542184,44.29914851273348,43.91177120976836,0,0.043155670166015625,2019-08-06 14:46:39:983
-0.08956842869520187,0.3075672686100006,9.825334548950195,0.0013958372386046994,-0.0006920582344953867,0.0021425034742187147,47.00284035151692,46.59743276142179,0,0.04626345634460449,2019-08-06 14:46:39:986
-0.07041043043136597,0.29798829555511475,9.813361167907715,-0.002333498937755932,-0.004155012958173888,0.007736507413666756,49.6554337518712,49.231188118003445,0,0.050000905990600586,2019-08-06 14:46:39:990
-0.09914742410182953,0.29080402851104736,9.787018775939941,0.000863074918407669,-0.00255672619263854,0.0037407904998283874,52.25117257784189,51.81237164041802,0,0.053175926208496094,2019-08-06 14:46:39:993
-0.034489184617996216,0.314751535654068,9.801386833190918,-0.0004688308170663259,-0.00042567707439687154,0.005339077265363735,54.8021900463692,54.33941868401528,0,0.05623674392700195,2019-08-06 14:46:39:996
-0.08238417655229568,0.30996203422546387,9.751097679138184,-0.00020244967322245603,-0.002023963937460091,0.0021425034742187147,57.29691000747682,56.81626141076389,0,0.06015276908874512,2019-08-06 14:46:40:000
-0.03209443390369415,0.30517253279685974,9.789413452148438,0.00033031263071992917,-0.00255672619263854,0.0042735527550068365,59.74767565489522,59.24416576472298,0,0.06336188316345215,2019-08-06 14:46:40:003
0.04693230614066124,0.27164602279663086,9.837308883666992,0.0013958372386046994,-0.004421394085763112,0.004539933882596061,54.95891546866724,61.62741802308422,0,0.06628775596618652,2019-08-06 14:46:40:006
-0.06083143129944801,0.3339095413684845,9.911545753479004,0.000863074918407669,-0.0009584393620846114,0.002941646856986388,57.45290146580199,63.95610199218234,0,0.06995201110839844,2019-08-06 14:46:40:010
-0.05125243216753006,0.314751535654068,9.79420280456543,0.0024613618789987605,-0.0054869185961200105,0.005871839520542184,59.89882503299692,66.2397281511984,0,0.07312655448913574,2019-08-06 14:46:40:013
-0.11830542236566544,0.314751535654068,9.887598037719727,-0.0004688308170663259,-0.0028231073202277645,0.004539933882596061,62.28762693931442,68.47854916716,0,0.07620930671691895,2019-08-06 14:46:40:016
-0.015331187285482883,0.3003830313682556,9.815755844116211,-0.001534355424951096,-0.003888631830584663,0.002408884601807939,64.64090888416219,70.67424690826924,0,0.07998442649841309,2019-08-06 14:46:40:020
-0.04646293446421623,0.28601452708244324,9.87322998046875,-0.00020244967322245603,-0.0028231073202277645,0.0018761223466294901,66.94320228812528,72.82761173348328,0,0.08316493034362793,2019-08-06 14:46:40:023
-0.027304936200380325,0.3410937786102295,9.870835304260254,0.0021949807514095357,0.0003734663733893835,0.0026752657293971638,69.20110437623508,74.9311010752386,0,0.08621764183044434,2019-08-06 14:46:40:026
-0.08238417655229568,0.3267252743244171,9.861255645751953,-0.0010015931047540657,-0.00255672619263854,-0.0007876890592999184,71.40804967328071,76.99473795873192,0,0.08998274803161621,2019-08-06 14:46:40:030
-0.08477892726659775,0.36264652013778687,9.894782066345215,-0.00393178570329128,-0.004155012958173888,0.002408884601807939,73.57081163050842,79.01356502057729,0,0.09315872192382812,2019-08-06 14:46:40:033
-0.02251543663442135,0.2668565511703491,9.880414009094238,0.0019285994937831485,-0.003888631830584663,0.0010769789638618162,75.69746183608092,81.0020154891541,0,0.09626269340515137,2019-08-06 14:46:40:036
-0.07759468257427216,0.3195410370826721,9.866044998168945,6.393147468507523e-05,-0.003622250702995438,0.0008105978362725917,77.7752600344279,82.94486087612322,0,0.09999775886535645,2019-08-06 14:46:40:040
-0.03927868604660034,0.24530379474163055,9.79420280456543,0.0019285994937831485,-0.0012248205546924172,0.004007171627417612,79.81537786355743,84.85692508096912,0,0.10317611694335938,2019-08-06 14:46:40:043
-0.05843668058514595,0.30996203422546387,9.78222942352295,-0.0018007365525403206,-0.0017575828098708665,0.0018761223466294901,81.81254521824991,86.72381708881684,0,0.10642123222351074,2019-08-06 14:46:40:046
-0.094357930123806,0.33151477575302124,9.777440071105957,6.393147468507523e-05,-0.005220537468530785,0.002408884601807939,83.76641723218926,88.55048764048932,0,0.11045122146606445,2019-08-06 14:46:40:050
-0.04646293446421623,0.3003830313682556,9.808571815490723,0.0021949807514095357,-0.0030894884478169893,0.0002778355485848519,85.68625633450064,90.34397257286967,0,0.11388444900512695,2019-08-06 14:46:40:053
-0.03927868604660034,0.30996203422546387,9.789413452148438,0.000863074918407669,-0.003622250702995438,0.0013433600914510408,87.5685123447709,92.10068418834527,0,0.11673092842102051,2019-08-06 14:46:40:056
-0.020120687782764435,0.3267252743244171,9.808571815490723,-0.00659559723925785,-0.0009584393620846114,0.0042735527550068365,89.41499275706548,93.82189933070951,0,0.12047171592712402,2019-08-06 14:46:40:060
-0.05843668058514595,0.36983078718185425,9.88520336151123,0.0011294561110154748,-0.004155012958173888,0.0021425034742187147,91.22071567784755,95.50239309413328,0,0.1238870620727539,2019-08-06 14:46:40:063
-0.020120687782764435,0.3195410370826721,9.837308883666992,-0.0012679742973618717,-0.00255672619263854,0.0013433600914510408,92.99436464079463,97.1553379150126,0,0.1267225742340088,2019-08-06 14:46:40:066
-0.010541687719523907,0.29798829555511475,9.784624099731445,-0.0004688308170663259,-0.00255672619263854,0.0005442166761740764,94.73378126877063,98.77744211085772,0,0.13047361373901367,2019-08-06 14:46:40:070
-0.04646293446421623,0.3003830313682556,9.727149963378906,-0.0007352119771648412,-0.002023963937460091,0.0026752657293971638,96.43401905047041,100.3666581888133,0,0.1338787078857422,2019-08-06 14:46:40:073
-0.06322617828845978,0.3530675172805786,9.727149963378906,0.0005966937908184444,-0.00255672619263854,0.0013433600914510408,98.09829687594585,101.91765496857191,0,0.13671040534973145,2019-08-06 14:46:40:076
-0.11591067165136337,0.33151477575302124,9.791808128356934,0.0011294561110154748,-0.004155012958173888,0.0021425034742187147,99.72364585905412,103.44028121581984,0,0.14047837257385254,2019-08-06 14:46:40:080
-0.07998942583799362,0.262067049741745,9.861255645751953,-0.0004688308170663259,-0.005220537468530785,0.002408884601807939,101.32087642208505,104.94111922223958,0,0.14388418197631836,2019-08-06 14:46:40:083
-0.07759468257427216,0.2931987941265106,9.78222942352295,-0.0007352119771648412,-0.0028231073202277645,-0.0007876890592999184,102.88581873115997,106.40807806068628,0,0.14671850204467773,2019-08-06 14:46:40:086
-0.020120687782764435,0.31235677003860474,9.84449291229248,-0.002599880065345157,-0.007617968136982457,0.0037407904998283874,104.42736610273498,107.84411787826637,0,0.15047264099121094,2019-08-06 14:46:40:090
0.006221559830009937,0.3794097602367401,9.803781509399414,0.0013958372386046994,-0.004954156340941561,0.0005442166761740764,98.74050076146075,109.24264130000228,0,0.15390491485595703,2019-08-06 14:46:40:094
-0.02969968505203724,0.32433053851127625,9.820545196533203,-0.0020671176801295454,-0.005753299723709235,0.0005442166761740764,100.36314647417169,110.62028853602754,0,0.15675663948059082,2019-08-06 14:46:40:096
-0.03927868604660034,0.30996203422546387,9.79420280456543,0.00033031263071992917,-0.004155012958173888,-0.0010540701868891429,101.95215505252825,111.97156057226297,0,0.16047310829162598,2019-08-06 14:46:40:100
0.022984808310866356,0.35785701870918274,9.904361724853516,0.0021949807514095357,-0.0054869185961200105,0.0013433600914510408,96.31682281678191,113.29032332560293,0,0.16388630867004395,2019-08-06 14:46:40:103
-0.03927868604660034,0.2955935299396515,9.887598037719727,0.000863074918407669,-0.004687775213352337,0.004539933882596061,97.98667937650733,114.59013228017217,0,0.1667172908782959,2019-08-06 14:46:40:106
-0.017725937068462372,0.28601452708244324,9.839703559875488,-0.0007352119771648412,-0.005753299723709235,0.0016097412190402653,99.626095530577,115.86518537828486,0,0.17047548294067383,2019-08-06 14:46:40:110
-0.07759468257427216,0.2500932812690735,9.911545753479004,0.0013958372386046994,-0.004687775213352337,1.1454389502251989e-05,101.2254985346724,117.11870673775442,0,0.17387866973876953,2019-08-06 14:46:40:113
-0.020120687782764435,0.2812250256538391,9.851676940917969,-0.00020244967322245603,-0.003622250702995438,0.004007171627417612,102.7992251957107,118.34366253617286,0,0.17671561241149902,2019-08-06 14:46:40:116
-0.048857681453228,0.3410937786102295,9.923519134521484,-0.0004688308170663259,-0.004155012958173888,-0.0015868324420675922,104.33847526435304,119.53751596095361,0,0.18047189712524414,2019-08-06 14:46:40:120
-0.034489184617996216,0.321935772895813,9.743913650512695,-0.00393178570329128,-0.004421394085763112,0.0002778355485848519,105.84849727795009,120.70967241422886,0,0.18388581275939941,2019-08-06 14:46:40:123
-0.015331187285482883,0.29080402851104736,9.882808685302734,-0.0012679742973618717,-0.003622250702995438,-0.00025492675535753324,107.33032716408653,121.86197200048028,0,0.18672513961791992,2019-08-06 14:46:40:126
0.01819530874490738,0.27164602279663086,9.801386833190918,-0.00020244967322245603,-0.00255672619263854,0.0002778355485848519,101.5863857117651,122.99302415501703,0,0.19047141075134277,2019-08-06 14:46:40:130
-0.02969968505203724,0.3075672686100006,9.849282264709473,-0.0028662611929343817,-0.003888631830584663,0.002941646856986388,103.15194598067228,124.09793929612589,0,0.19387602806091309,2019-08-06 14:46:40:133
0.04453755542635918,0.3410937786102295,9.894782066345215,-0.002599880065345157,-0.0030894884478169893,-0.00025492675535753324,97.4945567304042,125.17690791206873,0,0.19671106338500977,2019-08-06 14:46:40:136
-0.05843668058514595,0.28601452708244324,9.856466293334961,-0.002333498937755932,-0.0014912016822816417,0.0002778355485848519,99.13819337374467,126.24063014861065,0,0.20055150985717773,2019-08-06 14:46:40:140
-0.048857681453228,0.30996203422546387,9.866044998168945,0.000863074918407669,-0.0054869185961200105,0.0042735527550068365,100.75080966339563,127.27966217809858,0,0.20397520065307617,2019-08-06 14:46:40:144
-0.05364718288183212,0.33151477575302124,9.8229398727417,-0.0010015931047540657,-0.002023963937460091,0.0016097412190402653,102.32985612302267,128.29556886843588,0,0.20679903030395508,2019-08-06 14:46:40:146
-0.15662142634391785,0.29080402851104736,9.861255645751953,-0.004198166830880505,-0.002023963937460091,-0.0005213078992014032,103.86547800449534,129.29674069615405,0,0.21047258377075195,2019-08-06 14:46:40:150
-0.000962689402513206,0.2884092926979065,9.861255645751953,0.0011294561110154748,-0.008417111519750132,0.0018761223466294901,105.38966870771097,130.27708484606393,0,0.213883638381958,2019-08-06 14:46:40:153
-0.027304936200380325,0.367436021566391,9.889992713928223,-0.0012679742973618717,-0.0006920582344953867,0.0026752657293971638,106.8788217434243,131.22919107580122,0,0.21671748161315918,2019-08-06 14:46:40:156
-0.03209443390369415,0.28601452708244324,9.832518577575684,0.0016622183661939237,-0.007351587009393233,0.0010769789638618162,108.33905272932442,132.17093356922237,0,0.22046709060668945,2019-08-06 14:46:40:160
-0.08238417655229568,0.26925128698349,9.815755844116211,0.000863074918407669,-0.003622250702995438,0.0018761223466294901,109.76334934508574,133.0959240775004,0,0.22388505935668945,2019-08-06 14:46:40:163
-0.041673433035612106,0.35785701870918274,9.846887588500977,-0.002333498937755932,-0.004155012958173888,0.0026752657293971638,111.16389285294903,133.9927496287336,0,0.2267146110534668,2019-08-06 14:46:40:166
-0.03927868604660034,0.29798829555511475,9.866044998168945,-0.0012679742973618717,-0.005220537468530785,0.0016097412190402653,112.53715517938384,134.8785623088228,0,0.23047494888305664,2019-08-06 14:46:40:170
0.03256380558013916,0.33630427718162537,9.758281707763672,0.00033031263071992917,-0.00255672619263854,-0.0005213078992014032,106.69072558469428,135.74145120883142,0,0.2338850498199463,2019-08-06 14:46:40:173
-0.09914742410182953,0.30517253279685974,9.90196704864502,-0.0007352119771648412,-0.0030894884478169893,0.0026752657293971638,108.14593064553613,136.5914342973731,0,0.23672771453857422,2019-08-06 14:46:40:176
-0.06562092900276184,0.3458832800388336,9.775045394897461,-0.0010015931047540657,-0.004421394085763112,0.0018761223466294901,109.57656135832138,137.41935640730708,0,0.2417299747467041,2019-08-06 14:46:40:181
-0.03688393533229828,0.367436021566391,9.961835861206055,-0.0012679742973618717,-0.00255672619263854,0.0026752657293971638,110.981201966336,138.22892767138472,0,0.24461793899536133,2019-08-06 14:46:40:184
-0.034489184617996216,0.35546228289604187,9.84449291229248,-0.002333498937755932,-0.006818824754214785,0.0002778355485848519,112.35907602408233,139.0235083366028,0,0.24856877326965332,2019-08-06 14:46:40:188
-0.017725937068462372,0.28361979126930237,9.76546573638916,0.00033031263071992917,-0.00255672619263854,0.0002778355485848519,113.71032282368016,139.8097008606256,0,0.2521097660064697,2019-08-06 14:46:40:192
-0.05125243216753006,0.2884092926979065,9.758281707763672,-0.0012679742973618717,-0.003622250702995438,0.006138220648131409,115.03079185949733,140.5798917199011,0,0.2555220127105713,2019-08-06 14:46:40:195
-0.010541687719523907,0.3794097602367401,9.882808685302734,0.0013958372386046994,-0.004954156340941561,0.0037407904998283874,116.33033400620981,141.32393386761365,0,0.260483980178833,2019-08-06 14:46:40:200
-0.027304936200380325,0.31714627146720886,9.858860969543457,0.0024613618789987605,-0.0022903450650493154,0.004007171627417612,117.60099198933183,142.0601342417273,0,0.26389265060424805,2019-08-06 14:46:40:203
-0.05125243216753006,0.34348851442337036,9.84449291229248,-0.0004688308170663259,-0.0028231073202277645,0.0013433600914510408,118.84345596215374,142.779039796722,0,0.26672911643981934,2019-08-06 14:46:40:206
-0.024910185486078262,0.30996203422546387,9.878019332885742,0.0016622183661939237,-0.004421394085763112,0.0008105978362725917,120.06462975889076,143.487162517997,0,0.27048587799072266,2019-08-06 14:46:40:210
-0.06562092900276184,0.321935772895813,9.71278190612793,-0.003132642320523606,-0.005220537468530785,0.0002778355485848519,121.25659261861372,144.18004957707655,0,0.27388811111450195,2019-08-06 14:46:40:213
-0.06322617828845978,0.40335726737976074,9.813361167907715,0.0005966937908184444,-0.004155012958173888,0.002408884601807939,122.42473819788876,144.84927984241313,0,0.2767183780670166,2019-08-06 14:46:40:216
-0.008146938867866993,0.3195410370826721,9.820545196533203,-0.002333498937755932,-0.003622250702995438,0.0021425034742187147,123.57605649981808,145.51551356034204,0,0.2804732322692871,2019-08-06 14:46:40:220
0.01819530874490738,0.30996203422546387,9.909151077270508,-0.00020244967322245603,-0.004155012958173888,0.0018761223466294901,117.50743498911787,146.169409054364,0,0.28388285636901855,2019-08-06 14:46:40:223
-0.05364718288183212,0.276435524225235,9.825334548950195,-0.0033990234481128304,-0.004155012958173888,-0.0013204513144783674,118.75169175467494,146.81433078858169,0,0.28672122955322266,2019-08-06 14:46:40:226
-0.020120687782764435,0.31235677003860474,9.87322998046875,-0.0012679742973618717,-0.004155012958173888,0.004806315010185286,119.97519906733656,147.4420706832116,0,0.2904777526855469,2019-08-06 14:46:40:230
-0.06322617828845978,0.3195410370826721,9.849282264709473,-0.0007352119771648412,-0.002023963937460091,-0.0005213078992014032,121.16871840981426,148.0562030495701,0,0.29381513595581055,2019-08-06 14:46:40:233
-0.07759468257427216,0.28601452708244324,9.899572372436523,-0.0007352119771648412,-0.004421394085763112,0.0010769789638618162,122.33707059385924,148.66209863034376,0,0.29666805267333984,2019-08-06 14:46:40:236
-0.06562092900276184,0.3075672686100006,9.921124458312988,-0.0007352119771648412,-0.0009584393620846114,0.0010769789638618162,123.48296756666586,149.25351018176266,0,0.30071258544921875,2019-08-06 14:46:40:240
-0.07759468257427216,0.314751535654068,9.739123344421387,-0.0033990234481128304,-0.0014912016822816417,-0.00025492675535753324,124.60446344732371,149.83206828711326,0,0.30411529541015625,2019-08-06 14:46:40:244
-0.03927868604660034,0.33151477575302124,9.868440628051758,0.004059648644534107,-0.00255672619263854,0.004539933882596061,125.70823028647312,150.39628388144,0,0.3070206642150879,2019-08-06 14:46:40:247
-0.008146938867866993,0.3410937786102295,9.78222942352295,-0.001534355424951096,-0.002023963937460091,0.0013433600914510408,126.79351826959928,150.94872628073819,0,0.31060147285461426,2019-08-06 14:46:40:250
0.037353307008743286,0.3410937786102295,9.854071617126465,-0.004464548218544054,-0.0017575828098708665,0.004806315010185286,120.66231620476677,151.4909267236849,0,0.3138902187347412,2019-08-06 14:46:40:253
-0.04646293446421623,0.30277779698371887,9.849282264709473,-0.0010015931047540657,-0.0054869185961200105,0.0018761223466294901,121.84453785231067,152.0260520514204,0,0.3167259693145752,2019-08-06 14:46:40:256
-0.010541687719523907,0.3386990427970886,9.868440628051758,-0.003132642320523606,-0.00255672619263854,0.0016097412190402653,123.00695972197951,152.54687459249848,0,0.3204646110534668,2019-08-06 14:46:40:260
-0.06322617828845978,0.30996203422546387,9.909151077270508,-0.0004688308170663259,-0.004155012958173888,0.0021425034742187147,124.14030510401537,153.06019393356797,0,0.32387685775756836,2019-08-06 14:46:40:263
-0.04646293446421623,0.3482780158519745,9.772649765014648,0.0021949807514095357,-0.006019680851298459,0.0013433600914510408,125.25301191363548,153.55781874195634,0,0.3267199993133545,2019-08-06 14:46:40:266
-0.06562092900276184,0.30517253279685974,9.875624656677246,-0.00020244967322245603,-0.004421394085763112,0.0005442166761740764,126.34157987686167,154.05131990258516,0,0.3317244052886963,2019-08-06 14:46:40:271
-0.000962689402513206,0.3410937786102295,9.868440628051758,-0.004198166830880505,-0.003622250702995438,0.0013433600914510408,127.4152231935281,154.53138170664695,0,0.3346090316772461,2019-08-06 14:46:40:274
-0.06562092900276184,0.3267252743244171,9.808571815490723,6.393147468507523e-05,-0.005220537468530785,0.0013433600914510408,128.46038795774737,155.0025836231566,0,0.3384826183319092,2019-08-06 14:46:40:278
0.0014320602640509605,0.36264652013778687,9.854071617126465,-0.0033990234481128304,-0.0022903450650493154,0.0002778355485848519,122.29182130546764,155.46108364006574,0,0.34217286109924316,2019-08-06 14:46:40:282
-0.027304936200380325,0.31714627146720886,9.820545196533203,-0.0004688308170663259,-0.0033558695754062136,0.0008105978362725917,123.4434378630712,155.91495772165206,0,0.3455643653869629,2019-08-06 14:46:40:285
0.003826810047030449,0.3482780158519745,9.79420280456543,-0.0007352119771648412,-0.007351587009393233,0.0005442166761740764,117.37704334359717,156.3561300848538,0,0.35047364234924316,2019-08-06 14:46:40:290
0.02537955716252327,0.314751535654068,9.789413452148438,-0.004464548218544054,0.0003734663733893835,0.0010769789638618162,111.43241221426976,156.79290684295094,0,0.35338735580444336,2019-08-06 14:46:40:293
-0.03927868604660034,0.3865940272808075,9.827729225158691,-0.001534355424951096,-0.0017575828098708665,0.0005442166761740764,112.79941926310147,157.21220028285236,0,0.3557703495025635,2019-08-06 14:46:40:295
-0.0033574390690773726,0.28601452708244324,9.775045394897461,0.0019285994937831485,-0.006019680851298459,0.0005442166761740764,114.14426913490266,157.63404207605373,0,0.35941481590270996,2019-08-06 14:46:40:299
-0.017725937068462372,0.32433053851127625,9.856466293334961,-0.00020244967322245603,-0.0012248205546924172,0.0013433600914510408,115.45954301086236,158.04370445037122,0,0.36261487007141113,2019-08-06 14:46:40:302
-0.06322617828845978,0.2668565511703491,9.818150520324707,0.000863074918407669,-0.002023963937460091,0.0013433600914510408,116.74331353999985,158.4515468628199,0,0.3656125068664551,2019-08-06 14:46:40:305
-0.03209443390369415,0.314751535654068,9.779834747314453,0.0024613618789987605,-0.0030894884478169893,-0.0026523570824616527,118.00535274952124,158.8451182112754,0,0.36945176124572754,2019-08-06 14:46:40:309
-0.008146938867866993,0.276435524225235,9.899572372436523,-0.001534355424951096,-0.006286061978887684,0.0026752657293971638,119.2453903257426,159.23649111701647,0,0.37253332138061523,2019-08-06 14:46:40:312
0.04693230614066124,0.30517253279685974,9.88520336151123,-0.0004688308170663259,-0.0009584393620846114,-0.0021195946972460415,113.2660948223946,159.61648028116133,0,0.37572646141052246,2019-08-06 14:46:40:315
-0.017725937068462372,0.27883028984069824,9.746308326721191,0.0005966937908184444,-0.003888631830584663,0.0002778355485848519,114.59954573630802,159.9912448417858,0,0.3796510696411133,2019-08-06 14:46:40:319
0.0014320602640509605,0.27164602279663086,9.861255645751953,-0.0007352119771648412,-0.0030894884478169893,-0.0013204513144783674,108.7082768561059,160.35999384274675,0,0.38285398483276367,2019-08-06 14:46:40:322
-0.05364718288183212,0.2668565511703491,9.818150520324707,-0.001534355424951096,-0.004421394085763112,0.0005442166761740764,110.12871820245425,160.72195702810743,0,0.3863511085510254,2019-08-06 14:46:40:326
-0.012936437502503395,0.27883028984069824,9.798992156982422,-0.0007352119771648412,-0.004687775213352337,0.0005442166761740764,111.52543662334759,161.0750460063801,0,0.38941168785095215,2019-08-06 14:46:40:329
-0.07041043043136597,0.26446178555488586,9.866044998168945,-0.005263691601311728,-0.00255672619263854,0.004806315010185286,112.88720926855333,161.42378132952416,0,0.3926105499267578,2019-08-06 14:46:40:332
-0.03209443390369415,0.29798829555511475,9.8229398727417,-0.0028662611929343817,-0.004421394085763112,1.1454389502251989e-05,114.22646069092087,161.7610333985822,0,0.39558982849121094,2019-08-06 14:46:40:335
-0.000962689402513206,0.405752032995224,9.827729225158691,0.0011294561110154748,-0.006019680851298459,0.0016097412190402653,115.54292430990061,162.0783214564854,0,0.39885926246643066,2019-08-06 14:46:40:338
-0.0033574390690773726,0.321935772895813,9.945072174072266,-0.0004688308170663259,-0.004954156340941561,0.0002778355485848519,116.83290347022198,162.39978897998782,0,0.4032611846923828,2019-08-06 14:46:40:343
-0.10154217481613159,0.262067049741745,9.861255645751953,-0.0033990234481128304,-0.0028231073202277645,-0.0023859759548724283,118.08484101913959,162.72182250146724,0,0.40575170516967773,2019-08-06 14:46:40:345
-0.07280518114566803,0.3746202886104584,9.868440628051758,-0.0012679742973618717,-0.0030894884478169893,0.003474409372239163,119.31531959786338,163.0241646002946,0,0.4093794822692871,2019-08-06 14:46:40:349
-0.0680156797170639,0.30277779698371887,9.763071060180664,-0.0007352119771648412,-0.003622250702995438,0.003208027984575613,120.52168039299919,163.3282868992584,0,0.41257643699645996,2019-08-06 14:46:40:352
-0.0033574390690773726,0.30996203422546387,9.839703559875488,0.0005966937908184444,-0.004687775213352337,0.0013433600914510408,121.71164079875352,163.62553550646683,0,0.4155588150024414,2019-08-06 14:46:40:355
-0.07280518114566803,0.31235677003860474,9.842098236083984,-0.0010015931047540657,-0.0014912016822816417,0.0026752657293971638,122.86920560091525,163.9168534497506,0,0.41883325576782227,2019-08-06 14:46:40:358
-0.0033574390690773726,0.2955935299396515,9.777440071105957,-0.0020671176801295454,-0.0028231073202277645,0.0013433600914510408,124.01212271582898,164.20439206197153,0,0.4232158660888672,2019-08-06 14:46:40:363
-0.03927868604660034,0.35546228289604187,9.92591381072998,-0.0028662611929343817,-0.0022903450650493154,0.0010769789638618162,125.12767167448955,164.4796927072396,0,0.425750732421875,2019-08-06 14:46:40:365
-0.027304936200380325,0.3003830313682556,9.918729782104492,-0.00393178570329128,-0.0030894884478169893,0.0010769789638618162,126.22259546315152,164.7562100685661,0,0.42939257621765137,2019-08-06 14:46:40:369
-0.017725937068462372,0.2931987941265106,9.787018775939941,-0.00020244967322245603,-0.0017575828098708665,1.1454389502251989e-05,127.29642144620632,165.0268075754658,0,0.43297290802001953,2019-08-06 14:46:40:373
-0.05364718288183212,0.30517253279685974,9.87322998046875,-0.0010015931047540657,-0.0014912016822816417,-0.0005213078992014032,128.344500557654,165.29102061213214,0,0.43576669692993164,2019-08-06 14:46:40:375
-0.0680156797170639,0.3410937786102295,9.870835304260254,0.000863074918407669,-0.003888631830584663,0.0008105978362725917,129.3705524259248,165.54543207586912,0,0.4396035671234131,2019-08-06 14:46:40:379
-0.08717367798089981,0.3195410370826721,9.849282264709473,0.00033031263071992917,-0.0012248205546924172,0.0005442166761740764,130.3732353971075,165.7972957996158,0,0.4430348873138428,2019-08-06 14:46:40:383
0.0014320602640509605,0.31235677003860474,9.856466293334961,-0.0033990234481128304,-0.00255672619263854,0.003208027984575613,124.16633678497966,166.04557859682865,0,0.4458184242248535,2019-08-06 14:46:40:385
-0.020120687782764435,0.3195410370826721,9.854071617126465,0.0013958372386046994,-0.0030894884478169893,1.1454389502251989e-05,125.28129535477436,166.28723865605082,0,0.44942188262939453,2019-08-06 14:46:40:389
-0.07041043043136597,0.2548827826976776,9.846887588500977,-0.002333498937755932,-0.003888631830584663,0.0018761223466294901,126.36817367824851,166.5322577857331,0,0.4526185989379883,2019-08-06 14:46:40:392
-0.005752188619226217,0.30996203422546387,9.815755844116211,-0.0012679742973618717,-0.0028231073202277645,0.0026752657293971638,127.44061325202088,166.76565206678148,0,0.4556124210357666,2019-08-06 14:46:40:395
-0.056041933596134186,0.3410937786102295,9.851676940917969,6.393147468507523e-05,-0.0033558695754062136,0.0002778355485848519,128.48599118485612,166.9906664266834,0,0.45937371253967285,2019-08-06 14:46:40:399
-0.07280518114566803,0.3386990427970886,9.899572372436523,-0.0010015931047540657,-0.005220537468530785,-0.00025492675535753324,129.50872698640708,167.2118320022415,0,0.462385892868042,2019-08-06 14:46:40:402
-0.07759468257427216,0.32912003993988037,9.830123901367188,-0.002599880065345157,-0.004687775213352337,0.0002778355485848519,130.51034670482449,167.42970911312042,0,0.4655749797821045,2019-08-06 14:46:40:405
-0.08477892726659775,0.3075672686100006,9.75349235534668,-0.0010015931047540657,-0.0030894884478169893,0.003474409372239163,131.49074876952793,167.64517606501957,0,0.4688563346862793,2019-08-06 14:46:40:408
-0.08717367798089981,0.3075672686100006,9.87322998046875,0.00033031263071992917,-0.002023963937460091,0.0013433600914510408,132.45121735511728,167.85652150691027,0,0.4723842144012451,2019-08-06 14:46:40:412
-0.012936437502503395,0.35546228289604187,9.810966491699219,0.003260505261766434,-0.0006920582344953867,0.0010769789638618162,133.400813987856,168.0572697782217,0,0.47577977180480957,2019-08-06 14:46:40:415
-0.03209443390369415,0.2931987941265106,9.772649765014648,-0.0049973104737225035,-0.005220537468530785,0.0018761223466294901,134.33010628719794,168.26278100443324,0,0.47943639755249023,2019-08-06 14:46:40:419
0.008616309612989426,0.2955935299396515,9.851676940917969,0.0011294561110154748,-0.003622250702995438,1.1454389502251989e-05,128.04514850974988,168.46295297944366,0,0.4825935363769531,2019-08-06 14:46:40:422
-0.027304936200380325,0.3410937786102295,9.849282264709473,-0.001534355424951096,-0.0030894884478169893,0.003208027984575613,129.0816101071672,168.6542940454032,0,0.4857141971588135,2019-08-06 14:46:40:425
-0.010541687719523907,0.30996203422546387,9.743913650512695,-0.0018007365525403206,-0.007085205881804008,0.0021425034742187147,130.1002118669494,168.8451424673458,0,0.48941850662231445,2019-08-06 14:46:40:429
-0.05364718288183212,0.30996203422546387,9.815755844116211,0.00033031263071992917,-0.00015929593055300162,0.0026752657293971638,131.09197275957487,169.03200790211562,0,0.49254584312438965,2019-08-06 14:46:40:432
-0.05364718288183212,0.30277779698371887,9.818150520324707,-0.0010015931047540657,-0.003622250702995438,0.0021425034742187147,132.06449632004717,169.2162131676965,0,0.49561548233032227,2019-08-06 14:46:40:435
-0.03927868604660034,0.30996203422546387,9.84449291229248,0.0013958372386046994,-0.0009584393620846114,0.003474409372239163,133.01883878405042,169.39552293102724,0,0.49941492080688477,2019-08-06 14:46:40:439
-0.06322617828845978,0.25967228412628174,9.839703559875488,0.00033031263071992917,-0.003888631830584663,-0.0010540701868891429,133.95178293284002,169.57732038102574,0,0.5025477409362793,2019-08-06 14:46:40:442
-0.03927868604660034,0.321935772895813,9.789413452148438,0.0024613618789987605,-0.005753299723709235,0.0026752657293971638,134.86913147904693,169.7476827173744,0,0.5055875778198242,2019-08-06 14:46:40:445
-0.09196317940950394,0.3865940272808075,9.878019332885742,0.000863074918407669,-0.0033558695754062136,0.0037407904998283874,135.76180259515684,169.907718846124,0,0.5094180107116699,2019-08-06 14:46:40:449
-0.008146938867866993,0.30996203422546387,9.775045394897461,-0.001534355424951096,-0.004687775213352337,0.002408884601807939,136.64643547555198,170.07350990201286,0,0.5125484466552734,2019-08-06 14:46:40:452
0.01819530874490738,0.26925128698349,9.784624099731445,0.0021949807514095357,-0.006286061978887684,0.0016097412190402653,130.31673730917382,170.24013062017312,0,0.5156638622283936,2019-08-06 14:46:40:455
-0.10393692553043365,0.35067278146743774,9.875624656677246,-0.002333498937755932,-0.004687775213352337,-0.00025492675535753324,131.29932961518955,170.3951461336008,0,0.5194132328033447,2019-08-06 14:46:40:459
-0.048857681453228,0.29080402851104736,9.763071060180664,-0.002333498937755932,-0.0017575828098708665,-0.00025492675535753324,132.26791790850626,170.55353167882419,0,0.5225481986999512,2019-08-06 14:46:40:462
-0.07041043043136597,0.30517253279685974,9.88520336151123,-0.00393178570329128,-0.0028231073202277645,0.0021425034742187147,133.21487933926758,170.70776697018692,0,0.5255875587463379,2019-08-06 14:46:40:465
-0.000962689402513206,0.24769854545593262,9.784624099731445,6.393147468507523e-05,-0.006552443626625559,0.0002778355485848519,134.1518818929701,170.86459509460278,0,0.5294277667999268,2019-08-06 14:46:40:469
-0.05125243216753006,0.25967228412628174,9.719965934753418,-0.003132642320523606,-0.00015929593055300162,-0.00025492675535753324,135.06282992896396,171.01724597956502,0,0.5325491428375244,2019-08-06 14:46:40:472
-0.05125243216753006,0.321935772895813,9.825334548950195,-0.0033990234481128304,-0.0028231073202277645,0.002408884601807939,135.95607899546422,171.1599492195417,0,0.5355968475341797,2019-08-06 14:46:40:475
0.006221559830009937,0.3482780158519745,9.851676940917969,0.000863074918407669,-0.003888631830584663,-0.0018532135696568165,129.63851297072185,171.2960718776416,0,0.5394067764282227,2019-08-06 14:46:40:479
-0.03688393533229828,0.2955935299396515,9.827729225158691,0.0005966937908184444,-0.00255672619263854,0.0013433600914510408,130.64189156329974,171.43558964422232,0,0.5425379276275635,2019-08-06 14:46:40:482
-0.05364718288183212,0.3482780158519745,9.739123344421387,0.00033031263071992917,-0.002023963937460091,0.004539933882596061,131.62309010922448,171.56585967005432,0,0.5456044673919678,2019-08-06 14:46:40:485
-0.06322617828845978,0.24769854545593262,9.717571258544922,-0.00020244967322245603,-0.003622250702995438,0.0013433600914510408,132.58394842389475,171.70538304665232,0,0.5494186878204346,2019-08-06 14:46:40:489
-0.000962689402513206,0.2740407884120941,9.882808685302734,0.00033031263071992917,-0.006818824754214785,-0.0005213078992014032,133.53335740438055,171.8394502788591,0,0.5525517463684082,2019-08-06 14:46:40:492
0.006221559830009937,0.30517253279685974,9.86365032196045,-0.0004688308170663259,-0.003888631830584663,0.0008105978362725917,127.26407954544052,171.967299329821,0,0.5556042194366455,2019-08-06 14:46:40:495
-0.017725937068462372,0.29080402851104736,9.803781509399414,-0.002599880065345157,-0.0033558695754062136,0.003474409372239163,128.3174436112399,172.0945285667126,0,0.5594122409820557,2019-08-06 14:46:40:499
-0.048857681453228,0.36264652013778687,9.770255088806152,-0.002333498937755932,-0.002023963937460091,0.0002778355485848519,129.34572024391827,172.21053429701894,0,0.5625429153442383,2019-08-06 14:46:40:502
-0.027304936200380325,0.30996203422546387,9.904361724853516,0.002994124134177209,-0.0028231073202277645,0.0021425034742187147,130.356141925654,172.32994809563542,0,0.565666913986206,2019-08-06 14:46:40:505
-0.008146938867866993,0.2931987941265106,9.791808128356934,-0.0033990234481128304,-0.003622250702995438,-0.0018532135696568165,131.34882761741363,172.44976191198117,0,0.5694131851196289,2019-08-06 14:46:40:509
0.006221559830009937,0.3267252743244171,9.808571815490723,-0.0018007365525403206,-0.0030894884478169893,0.0021425034742187147,125.12312191883667,172.5629272058832,0,0.5725491046905518,2019-08-06 14:46:40:512
0.0014320602640509605,0.30277779698371887,9.839703559875488,-0.0010015931047540657,-0.00255672619263854,0.002408884601807939,119.02126878097846,172.67659214185957,0,0.5756316184997559,2019-08-06 14:46:40:515
-0.056041933596134186,0.276435524225235,9.868440628051758,0.0016622183661939237,-0.0033558695754062136,0.005605458392952959,120.23505123530221,172.79061491185593,0,0.5794277191162109,2019-08-06 14:46:40:519
-0.03927868604660034,0.28361979126930237,9.868440628051758,-0.00020244967322245603,-0.0028231073202277645,0.0016097412190402653,121.42628598115665,172.90191359218787,0,0.5825614929199219,2019-08-06 14:46:40:522
-0.008146938867866993,0.34348851442337036,9.791808128356934,-0.00020244967322245603,-0.006019680851298459,0.005871839520542184,122.59784463479077,173.00372892967613,0,0.5856318473815918,2019-08-06 14:46:40:525
-0.010541687719523907,0.2812250256538391,9.763071060180664,-0.00020244967322245603,-0.003888631830584663,0.0037407904998283874,123.74547534639537,173.11069835119395,0,0.5894098281860352,2019-08-06 14:46:40:529
0.015800558030605316,0.3003830313682556,9.87322998046875,-0.001534355424951096,-0.0014912016822816417,0.0002778355485848519,117.67266200975321,173.21390171715464,0,0.5925426483154297,2019-08-06 14:46:40:532
-0.09196317940950394,0.36983078718185425,9.820545196533203,-0.002599880065345157,-0.0028231073202277645,0.002941646856986388,118.90896028971267,173.3069340302788,0,0.5955832004547119,2019-08-06 14:46:40:535
0.011011059395968914,0.3195410370826721,9.815755844116211,0.004858792287376107,-0.005753299723709235,0.0013433600914510408,112.93330364341925,173.402459748281,0,0.5994126796722412,2019-08-06 14:46:40:539
-0.024910185486078262,0.3195410370826721,9.810966491699219,-0.004730929346133278,-0.0054869185961200105,0.0042735527550068365,114.2726921684857,173.49793277688855,0,0.6025419235229492,2019-08-06 14:46:40:542
-0.03688393533229828,0.3530675172805786,9.803781509399414,-0.0018007365525403206,-0.0054869185961200105,0.005339077265363735,115.5838862574683,173.5870383927829,0,0.6056549549102783,2019-08-06 14:46:40:545
-0.005752188619226217,0.2884092926979065,9.880414009094238,0.00033031263071992917,0.0009062286610771233,0.0005442166761740764,116.87134980407487,173.6817880074313,0,0.6094202995300293,2019-08-06 14:46:40:549
-0.017725937068462372,0.2884092926979065,9.878019332885742,-0.0028662611929343817,-0.0030894884478169893,0.0002778355485848519,118.13241036178472,173.7752089439754,0,0.6125555038452148,2019-08-06 14:46:40:552
0.01819530874490738,0.2668565511703491,9.899572372436523,-0.003132642320523606,-0.004421394085763112,0.0013433600914510408,112.1726246621254,173.86935839113949,0,0.6156020164489746,2019-08-06 14:46:40:555
-0.07759468257427216,0.34348851442337036,9.868440628051758,-0.0010015931047540657,-0.004954156340941561,0.0002778355485848519,113.52122121905118,173.95231582216212,0,0.6194093227386475,2019-08-06 14:46:40:559
-0.08238417655229568,0.31235677003860474,9.837308883666992,-0.0004688308170663259,-0.004421394085763112,0.005605458392952959,114.84198527667449,174.0369795490694,0,0.6225709915161133,2019-08-06 14:46:40:562
-0.024910185486078262,0.38419926166534424,9.854071617126465,0.0016622183661939237,-0.003622250702995438,0.0013433600914510408,116.1428596580414,174.11130429201268,0,0.6255743503570557,2019-08-06 14:46:40:565
-0.020120687782764435,0.33630427718162537,9.842098236083984,-0.0020671176801295454,-0.0012248205546924172,0.0026752657293971638,117.41792590487624,174.19038659979302,0,0.6294434070587158,2019-08-06 14:46:40:569
-0.08238417655229568,0.2884092926979065,9.882808685302734,0.0021949807514095357,-0.0028231073202277645,0.004806315010185286,118.66062938651568,174.27266959667287,0,0.6333184242248535,2019-08-06 14:46:40:573
-0.06562092900276184,0.3195410370826721,9.880414009094238,0.0005966937908184444,-0.0022903450650493154,-0.00025492675535753324,119.88011891581625,174.35008778128002,0,0.635749340057373,2019-08-06 14:46:40:575
-0.005752188619226217,0.2955935299396515,9.791808128356934,0.0013958372386046994,-0.00042567707439687154,0.0002778355485848519,121.0819308670087,174.42821690280928,0,0.6394100189208984,2019-08-06 14:46:40:579
-0.04406818374991417,0.24530379474163055,9.923519134521484,-0.0018007365525403206,-0.0006920582344953867,0.004806315010185286,122.25532512116473,174.5116483466498,0,0.6425392627716064,2019-08-06 14:46:40:582
-0.03688393533229828,0.3386990427970886,9.760676383972168,-0.003132642320523606,-0.0014912016822816417,0.0021425034742187147,123.40613961337915,174.58219533385915,0,0.6455392837524414,2019-08-06 14:46:40:585
-0.024910185486078262,0.27164602279663086,9.866044998168945,-0.0012679742973618717,-0.0017575828098708665,0.003208027984575613,124.53550945029441,174.65928679718496,0,0.649449348449707,2019-08-06 14:46:40:589
-0.12309492379426956,0.2740407884120941,9.784624099731445,-0.0036654045757020556,-0.0028231073202277645,0.004007171627417612,125.63088231349421,174.73466258775343,0,0.6525936126708984,2019-08-06 14:46:40:592
-0.02969968505203724,0.32433053851127625,9.772649765014648,0.00033031263071992917,-0.002023963937460091,0.0005442166761740764,126.71513895877571,174.80189490225285,0,0.6557331085205078,2019-08-06 14:46:40:595
-0.06083143129944801,0.33151477575302124,9.870835304260254,0.0016622183661939237,-0.0033558695754062136,0.003208027984575613,127.7744680705706,174.8670419240079,0,0.6594150066375732,2019-08-06 14:46:40:599
-0.0680156797170639,0.31235677003860474,9.813361167907715,-0.00393178570329128,-0.005753299723709235,0.0005442166761740764,128.81204808920475,174.93393045817515,0,0.6625461578369141,2019-08-06 14:46:40:602
-0.005752188619226217,0.27164602279663086,9.801386833190918,0.0005966937908184444,-0.0017575828098708665,0.0026752657293971638,129.8354355785405,175.00339868269887,0,0.6655957698822021,2019-08-06 14:46:40:605
-0.027304936200380325,0.3410937786102295,9.813361167907715,-0.002599880065345157,-0.006552443626625559,0.0042735527550068365,130.8369432663135,175.06407429244902,0,0.6694140434265137,2019-08-06 14:46:40:609
-0.06562092900276184,0.3003830313682556,9.803781509399414,-0.002333498937755932,-0.004155012958173888,0.002408884601807939,131.81327259365648,175.1281080707893,0,0.6725780963897705,2019-08-06 14:46:40:612
-0.005752188619226217,0.31235677003860474,9.751097679138184,-0.0012679742973618717,-0.002023963937460091,0.002941646856986388,132.77668177561551,175.18907101059838,0,0.6756632328033447,2019-08-06 14:46:40:615
-0.03209443390369415,0.3267252743244171,9.842098236083984,0.000863074918407669,-0.003622250702995438,0.0026752657293971638,133.71817349348711,175.24708134352437,0,0.6794102191925049,2019-08-06 14:46:40:619
-0.04646293446421623,0.3410937786102295,9.842098236083984,0.0021949807514095357,-0.0030894884478169893,0.004806315010185286,134.63894508864658,175.30205505813203,0,0.6825501918792725,2019-08-06 14:46:40:622
0.006221559830009937,0.3458832800388336,9.815755844116211,-0.002333498937755932,-0.006286061978887684,0.003208027984575613,128.34797672895107,175.35605387120177,0,0.685621976852417,2019-08-06 14:46:40:625
-0.015331187285482883,0.23811954259872437,9.806177139282227,-0.0033990234481128304,-0.005753299723709235,-0.0018532135696568165,129.3804522738489,175.4218371290572,0,0.6894190311431885,2019-08-06 14:46:40:629
-0.06322617828845978,0.3530675172805786,9.727149963378906,0.0005966937908184444,-0.0009584393620846114,0.0018761223466294901,130.38556348779406,175.47172025709037,0,0.6925513744354248,2019-08-06 14:46:40:632
-0.07519993185997009,0.2812250256538391,9.815755844116211,0.0016622183661939237,-0.0012248205546924172,0.0008105978362725917,131.36928268653185,175.52917985203433,0,0.6955950260162354,2019-08-06 14:46:40:635
0.006221559830009937,0.3458832800388336,9.798992156982422,0.0005966937908184444,-0.0014912016822816417,0.005339077265363735,125.1429442625912,175.5780367808266,0,0.6994128227233887,2019-08-06 14:46:40:639
-0.07041043043136597,0.2931987941265106,9.830123901367188,6.393147468507523e-05,-0.004421394085763112,0.005339077265363735,126.2326560516941,175.6322961980554,0,0.7025482654571533,2019-08-06 14:46:40:642
-0.005752188619226217,0.276435524225235,9.8229398727417,0.000863074918407669,-0.003888631830584663,0.0021425034742187147,127.30801432256285,175.6872591559633,0,0.7056736946105957,2019-08-06 14:46:40:645
0.008616309612989426,0.31235677003860474,9.760676383972168,-0.001534355424951096,-0.0009584393620846114,0.002408884601807939,121.16306708326945,175.7371779590279,0,0.7094175815582275,2019-08-06 14:46:40:649
-0.020120687782764435,0.35546228289604187,9.787018775939941,0.00033031263071992917,-0.0030894884478169893,0.0026752657293971638,122.33799473787882,175.78077504333362,0,0.7125582695007324,2019-08-06 14:46:40:652
-0.02251543663442135,0.32912003993988037,9.866044998168945,0.0016622183661939237,-0.004954156340941561,0.0005442166761740764,123.48946992144656,175.8266620183348,0,0.7156145572662354,2019-08-06 14:46:40:655
-0.02969968505203724,0.31714627146720886,9.83491325378418,-0.002333498937755932,-0.004954156340941561,0.002941646856986388,124.6172909099255,175.87369364305326,0,0.7194640636444092,2019-08-06 14:46:40:659
-0.07519993185997009,0.2812250256538391,9.842098236083984,-0.0010015931047540657,-0.0012248205546924172,-0.0015868324420675922,125.7164043357183,175.92366113494336,0,0.7225844860076904,2019-08-06 14:46:40:662
-0.05843668058514595,0.28601452708244324,9.875624656677246,-0.0028662611929343817,-0.003888631830584663,0.0010769789638618162,126.79597702706401,175.97251180352876,0,0.7257051467895508,2019-08-06 14:46:40:665
-0.05843668058514595,0.32433053851127625,9.8229398727417,-0.005263691601311728,-0.0009584393620846114,-0.0018532135696568165,127.85343935255287,176.01633186096444,0,0.7293999195098877,2019-08-06 14:46:40:669
-0.012936437502503395,0.31714627146720886,9.830123901367188,-0.0007352119771648412,-0.003622250702995438,-0.0018532135696568165,128.89549986836792,176.0591770786402,0,0.7325334548950195,2019-08-06 14:46:40:672
-0.12548966705799103,0.28361979126930237,9.827729225158691,0.000863074918407669,-0.005220537468530785,0.004007171627417612,129.90385716362914,176.10478401443604,0,0.7355990409851074,2019-08-06 14:46:40:675
-0.015331187285482883,0.314751535654068,9.87322998046875,-0.00020244967322245603,-0.004687775213352337,0.0008105978362725917,130.90500429737128,176.14621307424522,0,0.7394120693206787,2019-08-06 14:46:40:679
-0.06562092900276184,0.30277779698371887,9.861255645751953,6.393147468507523e-05,-0.003888631830584663,0.003474409372239163,131.87996363721751,176.1881046685291,0,0.7425479888916016,2019-08-06 14:46:40:682
0.030169056728482246,0.3458832800388336,9.830123901367188,0.00033031263071992917,-0.004155012958173888,0.0002778355485848519,125.64659314564852,176.22398235689934,0,0.7455995082855225,2019-08-06 14:46:40:685
-0.07998942583799362,0.28601452708244324,9.808571815490723,-0.0018007365525403206,-0.004954156340941561,0.004806315010185286,126.72537737609058,176.2664832891717,0,0.749413251876831,2019-08-06 14:46:40:689
-0.04646293446421623,0.4009625315666199,9.79420280456543,-0.001534355424951096,-0.004954156340941561,0.0018761223466294901,127.78630441214739,176.29453709826686,0,0.7525432109832764,2019-08-06 14:46:40:692
-0.056041933596134186,0.3267252743244171,9.86365032196045,-0.0028662611929343817,-0.004155012958173888,0.0021425034742187147,128.82479402462423,176.3312037718671,0,0.7556564807891846,2019-08-06 14:46:40:695
-0.0680156797170639,0.24051429331302643,9.90196704864502,0.0011294561110154748,-0.004421394085763112,0.0008105978362725917,129.84135979693403,176.37651313334004,0,0.759413480758667,2019-08-06 14:46:40:699
-0.08238417655229568,0.30517253279685974,9.806177139282227,-0.006329216111668627,-0.004421394085763112,-0.00025492675535753324,130.8356844627976,176.41444777729674,0,0.7625503540039062,2019-08-06 14:46:40:702
-0.041673433035612106,0.3195410370826721,9.825334548950195,0.0024613618789987605,-0.00042567707439687154,1.1454389502251989e-05,131.81418355938357,176.4484817835921,0,0.7656075954437256,2019-08-06 14:46:40:705
-0.02251543663442135,0.23333004117012024,9.846887588500977,-0.0012679742973618717,-0.0028231073202277645,0.0013433600914510408,132.77588295386798,176.49263477120178,0,0.7694132328033447,2019-08-06 14:46:40:709
-0.008146938867866993,0.36264652013778687,9.894782066345215,-0.0007352119771648412,-0.007351587009393233,0.002941646856986388,133.72073251423976,176.52093382067366,0,0.7725884914398193,2019-08-06 14:46:40:712
-0.04406818374991417,0.262067049741745,9.83491325378418,-0.002599880065345157,-0.004155012958173888,-0.0015868324420675922,134.64189449765163,176.5604326251667,0,0.7756369113922119,2019-08-06 14:46:40:715
-0.027304936200380325,0.2931987941265106,9.727149963378906,6.393147468507523e-05,-0.0033558695754062136,-0.0015868324420675922,135.5465503422466,176.59468034809018,0,0.7794070243835449,2019-08-06 14:46:40:719
-0.020120687782764435,0.30517253279685974,9.791808128356934,-0.003132642320523606,-0.0006920582344953867,-0.0005213078992014032,136.43338632846428,176.62763533202693,0,0.7825381755828857,2019-08-06 14:46:40:722
-0.020120687782764435,0.35546228289604187,9.83491325378418,-0.0012679742973618717,-0.0033558695754062136,0.0008105978362725917,137.30295387193246,176.65390293955113,0,0.7856142520904541,2019-08-06 14:46:40:725
-0.027304936200380325,0.321935772895813,9.832518577575684,-0.0007352119771648412,-0.00042567707439687154,-0.0005213078992014032,138.15380351268698,176.68347581105883,0,0.7894182205200195,2019-08-06 14:46:40:729
-0.05125243216753006,0.29080402851104736,9.935493469238281,-0.0007352119771648412,-0.002023963937460091,-0.0007876890592999184,138.9851722706698,176.7164051449135,0,0.792550802230835,2019-08-06 14:46:40:732
-0.03927868604660034,0.29798829555511475,9.803781509399414,-0.0004688308170663259,-0.003622250702995438,0.0005442166761740764,139.8014974335354,176.7473375875842,0,0.7955975532531738,2019-08-06 14:46:40:735
-0.05125243216753006,0.3267252743244171,9.83491325378418,-0.0018007365525403206,-0.0017575828098708665,-0.0013204513144783674,140.59987215855978,176.77472195293555,0,0.7994105815887451,2019-08-06 14:46:40:739
-0.03927868604660034,0.26446178555488586,9.779834747314453,-0.0007352119771648412,-0.0033558695754062136,-0.0031851193376401022,141.38386295387764,176.80837712067265,0,0.8025445938110352,2019-08-06 14:46:40:742
-0.012936437502503395,0.29798829555511475,9.894782066345215,0.0011294561110154748,-0.0030894884478169893,0.0013433600914510408,142.15522813582515,176.8375123182072,0,0.8056609630584717,2019-08-06 14:46:40:745
-0.07759468257427216,0.3003830313682556,9.889992713928223,6.393147468507523e-05,-0.004155012958173888,-0.0023859759548724283,142.90401073655806,176.8659550333336,0,0.809422492980957,2019-08-06 14:46:40:749
-0.04406818374991417,0.31235677003860474,9.734333992004395,-0.0007352119771648412,-0.0014912016822816417,-0.0034515004652293266,143.64100540996046,176.89200766128482,0,0.8125576972961426,2019-08-06 14:46:40:752
-0.034489184617996216,0.3075672686100006,9.887598037719727,-0.001534355424951096,-0.0054869185961200105,0.002408884601807939,144.36529172456906,176.91884230818312,0,0.8161394596099854,2019-08-06 14:46:40:756
-0.05843668058514595,0.30517253279685974,9.827729225158691,0.003260505261766434,-0.0012248205546924172,-0.0029187382100508774,145.07146428423792,176.94411627033088,0,0.8203859329223633,2019-08-06 14:46:40:760
-0.05125243216753006,0.321935772895813,9.9139404296875,-0.0018007365525403206,-0.0028231073202277645,-0.004517024975586225,145.76460156924003,176.96834858487838,0,0.8234808444976807,2019-08-06 14:46:40:763
-0.010541687719523907,0.27883028984069824,9.748703002929688,0.002727743006587985,-0.0030894884478169893,-0.0005213078992014032,146.44846709006515,176.995865084641,0,0.8257675170898438,2019-08-06 14:46:40:765
0.0014320602640509605,0.27883028984069824,9.810966491699219,-0.0010015931047540657,-0.0006920582344953867,0.0002778355485848519,139.91980616912466,177.02359361154433,0,0.8294000625610352,2019-08-06 14:46:40:769
0.01819530874490738,0.3195410370826721,9.868440628051758,-0.001534355424951096,-0.0006920582344953867,0.0002778355485848519,133.52364368004794,177.04629769463517,0,0.8325090408325195,2019-08-06 14:46:40:772
-0.012936437502503395,0.24769854545593262,9.75349235534668,-0.0020671176801295454,-0.004421394085763112,-0.0013204513144783674,134.45241845095728,177.07663529097582,0,0.8356006145477295,2019-08-06 14:46:40:775
0.011011059395968914,0.31714627146720886,9.818150520324707,-0.0012679742973618717,-0.0028231073202277645,-0.0034515004652293266,128.16526003424968,177.09837168669495,0,0.8394160270690918,2019-08-06 14:46:40:779
-0.041673433035612106,0.32912003993988037,9.760676383972168,-0.002599880065345157,-0.004687775213352337,-0.0026523570824616527,129.19788326209465,177.11823506803486,0,0.8425347805023193,2019-08-06 14:46:40:782
-0.02969968505203724,0.35785701870918274,9.851676940917969,-0.0007352119771648412,-0.0033558695754062136,0.0016097412190402653,130.2110482838523,177.13439033958755,0,0.8455982208251953,2019-08-06 14:46:40:785
-0.05364718288183212,0.3386990427970886,9.899572372436523,-0.002599880065345157,-0.004954156340941561,0.0005442166761740764,131.20168024622382,177.15306974986032,0,0.8494186401367188,2019-08-06 14:46:40:789
-0.0033574390690773726,0.35785701870918274,9.887598037719727,-0.00020244967322245603,-0.002023963937460091,-0.0018532135696568165,132.1776125883457,177.16858839950157,0,0.8525428771972656,2019-08-06 14:46:40:792
-0.0033574390690773726,0.28601452708244324,9.820545196533203,-0.0007352119771648412,-0.0054869185961200105,-0.0034515004652293266,133.13462281703582,177.19198016676512,0,0.855640172958374,2019-08-06 14:46:40:795
-0.094357930123806,0.3339095413684845,9.878019332885742,-0.0020671176801295454,-0.005753299723709235,0.0016097412190402653,134.06220216509152,177.20985707170908,0,0.8594093322753906,2019-08-06 14:46:40:799
0.006221559830009937,0.32433053851127625,9.803781509399414,-0.00020244967322245603,0.00010708522141819095,-0.00025492675535753324,127.78166657944851,177.2277998035537,0,0.86252760887146,2019-08-06 14:46:40:802
-0.034489184617996216,0.27164602279663086,9.878019332885742,-0.0004688308170663259,-0.0014912016822816417,-0.0007876890592999184,128.82228935372504,177.25181983218587,0,0.8655977249145508,2019-08-06 14:46:40:805
-0.027304936200380325,0.3267252743244171,9.856466293334961,6.393147468507523e-05,-0.006552443626625559,0.0002778355485848519,129.84408276935523,177.26879837231547,0,0.8694400787353516,2019-08-06 14:46:40:809
-0.03927868604660034,0.262067049741745,9.846887588500977,-0.0012679742973618717,-0.003888631830584663,0.0013433600914510408,130.84331543335304,177.29315542760142,0,0.8725786209106445,2019-08-06 14:46:40:812
-0.000962689402513206,0.2931987941265106,9.84449291229248,0.0013958372386046994,-0.0033558695754062136,0.0013433600914510408,131.82697132562316,177.31290975693213,0,0.8759446144104004,2019-08-06 14:46:40:816
-0.02251543663442135,0.36264652013778687,9.818150520324707,-0.0018007365525403206,-0.00015929593055300162,-0.0031851193376401022,132.78783502905347,177.32469521317032,0,0.8794095516204834,2019-08-06 14:46:40:819
-0.0033574390690773726,0.2955935299396515,9.746308326721191,-0.00020244967322245603,0.0014389909812741537,0.0013433600914510408,133.73143062404645,177.34349333830332,0,0.882540225982666,2019-08-06 14:46:40:822
-0.008146938867866993,0.30277779698371887,9.748703002929688,0.0005966937908184444,-0.003888631830584663,0.0026752657293971638,134.65651706688166,177.36094153748488,0,0.8856210708618164,2019-08-06 14:46:40:825
-0.0680156797170639,0.29080402851104736,9.770255088806152,-0.0012679742973618717,-0.00255672619263854,0.0037407904998283874,135.5559546959757,177.37989584313362,0,0.889418363571167,2019-08-06 14:46:40:829
-0.03209443390369415,0.3530675172805786,9.775045394897461,6.393147468507523e-05,-0.005753299723709235,-0.003717881592818551,136.44208450564057,177.39091503755745,0,0.8925487995147705,2019-08-06 14:46:40:832
-0.048857681453228,0.2955935299396515,9.731939315795898,-0.0004688308170663259,-0.004687775213352337,0.0008105978362725917,137.30829990314749,177.40838291369957,0,0.8956258296966553,2019-08-06 14:46:40:835
0.003826810047030449,0.2884092926979065,9.743913650512695,-0.0028662611929343817,-0.0030894884478169893,0.0016097412190402653,130.96324218682625,177.4269179712267,0,0.8994202613830566,2019-08-06 14:46:40:839
-0.07041043043136597,0.33151477575302124,9.878019332885742,-0.0007352119771648412,-0.0033558695754062136,0.002941646856986388,131.93639788611586,177.44006505942588,0,0.902543306350708,2019-08-06 14:46:40:842
-0.05843668058514595,0.25248804688453674,9.803781509399414,-0.0012679742973618717,-0.005753299723709235,-0.0029187382100508774,132.89183450694904,177.4619774607703,0,0.9056229591369629,2019-08-06 14:46:40:845
-0.017725937068462372,0.3530675172805786,9.866044998168945,6.393147468507523e-05,-0.003888631830584663,0.0002778355485848519,133.83277067238242,177.47173385211894,0,0.9094319343566895,2019-08-06 14:46:40:849
-0.005752188619226217,0.28361979126930237,9.825334548950195,-0.004464548218544054,-0.004421394085763112,-0.00025492675535753324,134.75622208582183,177.4900154495759,0,0.9125645160675049,2019-08-06 14:46:40:852
-0.010541687719523907,0.32912003993988037,9.84449291229248,-0.0020671176801295454,-0.003622250702995438,-0.0018532135696568165,135.6605059124378,177.5022818456373,0,0.9156882762908936,2019-08-06 14:46:40:855
-0.03688393533229828,0.321935772895813,9.887598037719727,-0.003132642320523606,-0.0022903450650493154,0.002408884601807939,136.5435001991837,177.51559407063064,0,0.9194130897521973,2019-08-06 14:46:40:859
-0.04646293446421623,0.27164602279663086,9.827729225158691,-0.0020671176801295454,-0.006286061978887684,0.0018761223466294901,137.40833431604312,177.5339851119156,0,0.922590970993042,2019-08-06 14:46:40:862
-0.04406818374991417,0.314751535654068,9.743913650512695,-0.0010015931047540657,-0.002023963937460091,0.003208027984575613,138.25534536201204,177.54648076252926,0,0.9257609844207764,2019-08-06 14:46:40:865
0.011011059395968914,0.2500932812690735,9.803781509399414,-0.0004688308170663259,-0.007351587009393233,1.1454389502251989e-05,131.89303096666475,177.56642132643188,0,0.929408073425293,2019-08-06 14:46:40:869
-0.08477892726659775,0.32433053851127625,9.818150520324707,-0.00020244967322245603,-0.0014912016822816417,0.00507269613777451,132.8455378395655,177.5772883345177,0,0.9325387477874756,2019-08-06 14:46:40:872
-0.03688393533229828,0.29798829555511475,9.916335105895996,-0.0010015931047540657,-0.0033558695754062136,0.002408884601807939,133.7849447094343,177.59149094705515,0,0.9356160163879395,2019-08-06 14:46:40:875
-0.041673433035612106,0.2931987941265106,9.79420280456543,-0.0007352119771648412,-0.005753299723709235,0.003208027984575613,134.70559778439048,177.605524182754,0,0.9394164085388184,2019-08-06 14:46:40:879
-0.07519993185997009,0.2812250256538391,9.791808128356934,-0.00020244967322245603,-0.0022903450650493154,0.002408884601807939,135.60308824049352,177.6205471440268,0,0.9425480365753174,2019-08-06 14:46:40:882
-0.06562092900276184,0.2931987941265106,9.930704116821289,-0.001534355424951096,-0.0028231073202277645,0.0005442166761740764,136.48394242301174,177.63457865412678,0,0.9456260204315186,2019-08-06 14:46:40:885
-0.05843668058514595,0.30996203422546387,9.801386833190918,-0.0004688308170663259,-0.0054869185961200105,0.0018761223466294901,137.34859784596432,177.6457600209857,0,0.9494113922119141,2019-08-06 14:46:40:889
-0.000962689402513206,0.3722255229949951,9.878019332885742,-0.0036654045757020556,-0.0014912016822816417,0.002941646856986388,138.2017760450413,177.65032821235664,0,0.9525384902954102,2019-08-06 14:46:40:892
-0.020120687782764435,0.3650412857532501,9.897176742553711,0.000863074918407669,-0.004954156340941561,0.003208027984575613,139.03626938625052,177.6549260064895,0,0.9556245803833008,2019-08-06 14:46:40:895
-0.020120687782764435,0.25248804688453674,9.875624656677246,-0.003132642320523606,-0.004687775213352337,0.0037407904998283874,139.8542121445131,177.67320663794044,0,0.9594345092773438,2019-08-06 14:46:40:899
-0.03209443390369415,0.3339095413684845,9.837308883666992,-0.001534355424951096,-0.002023963937460091,0.004007171627417612,140.6537445849073,177.68113072298573,0,0.9625604152679443,2019-08-06 14:46:40:902
-0.02969968505203724,0.36983078718185425,9.818150520324707,-0.00020244967322245603,-0.0054869185961200105,0.006138220648131409,141.43816632091662,177.6843996079754,0,0.9656860828399658,2019-08-06 14:46:40:905
-0.02251543663442135,0.28601452708244324,9.937888145446777,-0.001534355424951096,-0.003888631830584663,0.004007171627417612,142.20762977586529,177.69806575101785,0,0.9694552421569824,2019-08-06 14:46:40:909
-0.02969968505203724,0.35067278146743774,9.779834747314453,-0.0007352119771648412,-0.0033558695754062136,0.0042735527550068365,142.9605811394459,177.70316118080336,0,0.9725539684295654,2019-08-06 14:46:40:912
-0.015331187285482883,0.321935772895813,9.921124458312988,0.002727743006587985,-0.002023963937460091,0.005339077265363735,143.6999490664977,177.7114544223814,0,0.9756367206573486,2019-08-06 14:46:40:915
-0.020120687782764435,0.27883028984069824,9.837308883666992,-0.0020671176801295454,-0.0028231073202277645,0.0037407904998283874,144.42420407455526,177.72519171072068,0,0.979407787322998,2019-08-06 14:46:40:919
0.015800558030605316,0.3267252743244171,9.868440628051758,-0.002599880065345157,-0.003622250702995438,0.004539933882596061,137.93819085388236,177.73321921940024,0,0.9825353622436523,2019-08-06 14:46:40:922
-0.12309492379426956,0.3650412857532501,9.767860412597656,-0.0010015931047540657,-0.0033558695754062136,0.002941646856986388,138.7655630131848,177.73592190966977,0,0.9855926036834717,2019-08-06 14:46:40:925
0.020590057596564293,0.31235677003860474,9.763071060180664,0.00033031263071992917,0.0014389909812741537,0.004806315010185286,132.39235922886985,177.74448291166945,0,0.98941969871521,2019-08-06 14:46:40:929
-0.027304936200380325,0.30517253279685974,9.87322998046875,-0.0020671176801295454,-0.0054869185961200105,0.004007171627417612,133.3423087399566,177.75454916356188,0,0.9925544261932373,2019-08-06 14:46:40:932
-0.05364718288183212,0.3075672686100006,9.832518577575684,0.0019285994937831485,-0.004954156340941561,0.004007171627417612,134.27006774594227,177.76329115983378,0,0.9956364631652832,2019-08-06 14:46:40:935
-0.020120687782764435,0.31714627146720886,9.887598037719727,-0.003132642320523606,-0.004954156340941561,0.004806315010185286,135.18338606004696,177.77194742443874,0,0.9994165897369385,2019-08-06 14:46:40:939
-0.0680156797170639,0.3339095413684845,9.796597480773926,0.0013958372386046994,-0.005220537468530785,0.005605458392952959,136.0726792739494,177.77722084312668,0,1.0025436878204346,2019-08-06 14:46:40:942
-0.0033574390690773726,0.34348851442337036,9.858860969543457,0.0013958372386046994,-0.0033558695754062136,0.003474409372239163,136.95141772716022,177.78152600240657,0,1.00563383102417,2019-08-06 14:46:40:945
-0.07998942583799362,0.30277779698371887,9.806177139282227,-0.0036654045757020556,-0.0054869185961200105,0.004007171627417612,137.80421220205892,177.7913066925682,0,1.0094311237335205,2019-08-06 14:46:40:949
0.006221559830009937,0.3195410370826721,9.83491325378418,-0.0036654045757020556,-0.00042567707439687154,0.0042735527550068365,131.44892769755873,177.79890668481795,0,1.0125620365142822,2019-08-06 14:46:40:952
-0.08717367798089981,0.2812250256538391,9.772649765014648,-0.001534355424951096,-0.004421394085763112,0.0013433600914510408,132.4105433519037,177.81024500224683,0,1.0158476829528809,2019-08-06 14:46:40:955
0.006221559830009937,0.23093529045581818,9.825334548950195,6.393147468507523e-05,-0.007617968136982457,0.003474409372239163,126.16442987082333,177.82709987493485,0,1.019054651260376,2019-08-06 14:46:40:959
0.020590057596564293,0.3195410370826721,10.012125015258789,0.00033031263071992917,-0.0033558695754062136,0.0037407904998283874,120.04416037732673,177.83393271521692,0,1.0225706100463867,2019-08-06 14:46:40:962
-0.027304936200380325,0.31235677003860474,9.866044998168945,0.00033031263071992917,-0.0054869185961200105,0.002408884601807939,121.24110387746026,177.84092665924058,0,1.0258102416992188,2019-08-06 14:46:40:965
-0.056041933596134186,0.276435524225235,9.918729782104492,-0.001534355424951096,-0.00015929593055300162,0.002408884601807939,122.40983935645339,177.85248826601824,0,1.0293922424316406,2019-08-06 14:46:40:969
-0.12309492379426956,0.29798829555511475,9.916335105895996,-0.0018007365525403206,-0.004155012958173888,0.002941646856986388,123.54814771232026,177.86132978384762,0,1.0325171947479248,2019-08-06 14:46:40:972
-0.08956842869520187,0.31714627146720886,9.88520336151123,0.0013958372386046994,-0.006019680851298459,0.0013433600914510408,124.66783776085306,177.8671113101153,0,1.035581350326538,2019-08-06 14:46:40:975
-0.07759468257427216,0.33630427718162537,9.868440628051758,-0.0033990234481128304,-0.004155012958173888,0.0005442166761740764,125.76637134115086,177.87146936397605,0,1.039440631866455,2019-08-06 14:46:40:979
-0.07280518114566803,0.33151477575302124,9.818150520324707,0.0016622183661939237,-0.003888631830584663,-0.0005213078992014032,126.8432277582948,177.87507112846748,0,1.0425598621368408,2019-08-06 14:46:40:982
-0.0680156797170639,0.31235677003860474,9.815755844116211,-0.0007352119771648412,-0.005220537468530785,-0.0023859759548724283,127.89933833780717,177.88124561205328,0,1.045682430267334,2019-08-06 14:46:40:985
-0.03209443390369415,0.31235677003860474,9.796597480773926,-0.0007352119771648412,-0.004421394085763112,0.0021425034742187147,128.93852391492314,177.88725051354785,0,1.0494141578674316,2019-08-06 14:46:40:989
-0.04406818374991417,0.360251784324646,9.787018775939941,-0.00020244967322245603,-0.0006920582344953867,0.0013433600914510408,129.9547150489624,177.88737985361513,0,1.0525360107421875,2019-08-06 14:46:40:992
-0.03688393533229828,0.31714627146720886,9.698412895202637,-0.0012679742973618717,-0.005220537468530785,1.1454389502251989e-05,130.95216884993826,177.892393275393,0,1.0556271076202393,2019-08-06 14:46:40:995
-0.02969968505203724,0.3482780158519745,9.796597480773926,-0.001534355424951096,-0.0030894884478169893,-0.00025492675535753324,131.93031075901382,177.89415162882358,0,1.0594274997711182,2019-08-06 14:46:40:999
-0.056041933596134186,0.3410937786102295,9.880414009094238,-0.0007352119771648412,-0.00255672619263854,-0.0015868324420675922,132.88565518047298,177.89685422292732,0,1.0625636577606201,2019-08-06 14:46:41:002
-0.02251543663442135,0.30517253279685974,9.887598037719727,6.393147468507523e-05,-0.004421394085763112,0.0021425034742187147,133.82612700134766,177.90354914018906,0,1.065763235092163,2019-08-06 14:46:41:005
-0.005752188619226217,0.3195410370826721,9.837308883666992,6.393147468507523e-05,-0.005753299723709235,-0.0007876890592999184,134.75011805755926,177.90825580848616,0,1.069427251815796,2019-08-06 14:46:41:009
-0.05125243216753006,0.3386990427970886,9.83491325378418,-0.0018007365525403206,0.0006398475334878987,0.0002778355485848519,135.64903171290788,177.9109589488972,0,1.072554588317871,2019-08-06 14:46:41:012
-0.008146938867866993,0.29798829555511475,9.961835861206055,0.0005966937908184444,-0.0006920582344953867,-0.0007876890592999184,136.53523353919167,177.9183691010967,0,1.0756325721740723,2019-08-06 14:46:41:015
-0.03927868604660034,0.276435524225235,9.84449291229248,-0.0018007365525403206,-0.0012248205546924172,0.0008105978362725917,137.4002171698051,177.92821542628963,0,1.079418659210205,2019-08-06 14:46:41:019
-0.034489184617996216,0.3386990427970886,9.846887588500977,-0.005796453856490177,-0.0022903450650493154,0.0026752657293971638,138.24860201655403,177.93127050531288,0,1.0825507640838623,2019-08-06 14:46:41:022
-0.017725937068462372,0.30277779698371887,9.820545196533203,-0.0012679742973618717,-0.006286061978887684,0.0008105978362725917,139.08265080489312,177.93754619537322,0,1.0856366157531738,2019-08-06 14:46:41:025
-0.07759468257427216,0.29798829555511475,9.918729782104492,-0.0004688308170663259,-0.0012248205546924172,-0.0023859759548724283,139.89229339348097,177.9444784043803,0,1.089416742324829,2019-08-06 14:46:41:029
-0.05364718288183212,0.29798829555511475,9.830123901367188,-0.002333498937755932,-0.0012248205546924172,0.0005442166761740764,140.68840850507556,177.9512714083137,0,1.0925381183624268,2019-08-06 14:46:41:032
-0.010541687719523907,0.31714627146720886,9.803781509399414,-0.0007352119771648412,-0.003622250702995438,0.0013433600914510408,141.4740341003653,177.95531628777854,0,1.0956156253814697,2019-08-06 14:46:41:035
-0.010541687719523907,0.29080402851104736,9.892387390136719,-0.00020244967322245603,-0.004155012958173888,-0.0013204513144783674,142.24422143702887,177.96257679060272,0,1.0994267463684082,2019-08-06 14:46:41:039
-0.017725937068462372,0.26925128698349,9.741518020629883,-0.0012679742973618717,-0.00042567707439687154,0.0010769789638618162,142.99732684165298,177.97188402966586,0,1.1025633811950684,2019-08-06 14:46:41:042
0.013405809178948402,0.30277779698371887,9.837308883666992,-0.001534355424951096,-0.004687775213352337,-0.0005213078992014032,136.53976369268537,177.97745687548388,0,1.1056854724884033,2019-08-06 14:46:41:045
0.011011059395968914,0.2931987941265106,9.837308883666992,0.0019285994937831485,-0.0017575828098708665,-0.0010540701868891429,130.2106311957162,177.9833469640306,0,1.1095373630523682,2019-08-06 14:46:41:049
-0.07998942583799362,0.32433053851127625,9.801386833190918,-0.0007352119771648412,-0.0033558695754062136,0.0042735527550068365,131.19763460615357,177.98589956772287,0,1.1125500202178955,2019-08-06 14:46:41:052
-0.02251543663442135,0.26446178555488586,9.861255645751953,-0.004730929346133278,-0.003888631830584663,0.0010769789638618162,132.17173604298426,177.99627320945737,0,1.1156208515167236,2019-08-06 14:46:41:055
-0.03927868604660034,0.2884092926979065,9.839703559875488,-0.00020244967322245603,0.00010708522141819095,0.0010769789638618162,133.1237042305251,178.0028127664464,0,1.1194102764129639,2019-08-06 14:46:41:059
-0.1135159283876419,0.3339095413684845,9.751097679138184,0.0011294561110154748,-0.004954156340941561,0.0005442166761740764,134.04876188677318,178.00333332855104,0,1.122541904449463,2019-08-06 14:46:41:062
-0.017725937068462372,0.28601452708244324,9.832518577575684,-0.0012679742973618717,-0.003622250702995438,-0.0005213078992014032,134.96634552792605,178.0101616240528,0,1.1256134510040283,2019-08-06 14:46:41:065
0.015800558030605316,0.3075672686100006,9.772649765014648,-0.002599880065345157,-0.0054869185961200105,0.0013433600914510408,128.6700444871332,178.01446162210524,0,1.1294212341308594,2019-08-06 14:46:41:069
-0.05843668058514595,0.2931987941265106,9.830123901367188,0.0011294561110154748,-0.004155012958173888,0.0013433600914510408,129.69056278223843,178.01980504262787,0,1.1325552463531494,2019-08-06 14:46:41:072
0.05172180384397507,0.3003830313682556,9.856466293334961,0.0019285994937831485,-0.004155012958173888,0.0010769789638618162,123.50348293411653,178.02416373614136,0,1.135633945465088,2019-08-06 14:46:41:075
-0.010541687719523907,0.33151477575302124,9.83491325378418,-0.0007352119771648412,-0.003888631830584663,0.002941646856986388,124.63300960564882,178.0252245179001,0,1.1394104957580566,2019-08-06 14:46:41:079
-0.06083143129944801,0.2500932812690735,9.880414009094238,-0.001534355424951096,-0.00255672619263854,0.00507269613777451,125.7337432902211,178.0359901878055,0,1.1425375938415527,2019-08-06 14:46:41:082
-0.05843668058514595,0.262067049741745,9.889992713928223,-0.0007352119771648412,-0.005753299723709235,0.0013433600914510408,126.81329562216494,178.04504031036367,0,1.1456267833709717,2019-08-06 14:46:41:085
-0.03688393533229828,0.29798829555511475,9.923519134521484,0.0005966937908184444,-0.004155012958173888,0.0018761223466294901,127.87365693357867,178.04961243687487,0,1.149425983428955,2019-08-06 14:46:41:089
-0.03209443390369415,0.30517253279685974,9.78222942352295,-0.001534355424951096,-0.002023963937460091,1.1454389502251989e-05,128.91278013261112,178.05315292372842,0,1.1525580883026123,2019-08-06 14:46:41:092
-0.048857681453228,0.2812250256538391,9.870835304260254,-0.00020244967322245603,-0.004155012958173888,0.0002778355485848519,129.92958103151034,178.05948647762466,0,1.1556801795959473,2019-08-06 14:46:41:095
-0.07759468257427216,0.314751535654068,9.806177139282227,0.000863074918407669,-0.0017575828098708665,0.002941646856986388,130.92229666875625,178.06134469962856,0,1.1594750881195068,2019-08-06 14:46:41:099
-0.05843668058514595,0.2668565511703491,9.763071060180664,0.000863074918407669,-0.003622250702995438,0.004539933882596061,131.89762676549287,178.06865273943907,0,1.1625962257385254,2019-08-06 14:46:41:102
-0.07519993185997009,0.2955935299396515,9.87322998046875,6.393147468507523e-05,-0.0033558695754062136,0.003208027984575613,132.85153513777033,178.07297127622587,0,1.1657202243804932,2019-08-06 14:46:41:105
-0.05843668058514595,0.33630427718162537,9.8229398727417,0.000863074918407669,-0.0033558695754062136,0.004007171627417612,133.7883804845622,178.07211665590197,0,1.1693980693817139,2019-08-06 14:46:41:109
-0.05364718288183212,0.3530675172805786,9.858860969543457,-0.0012679742973618717,-0.004954156340941561,0.0005442166761740764,134.7072484894868,178.06987703715643,0,1.1725294589996338,2019-08-06 14:46:41:112
-0.08238417655229568,0.29798829555511475,9.803781509399414,-0.005263691601311728,-0.00255672619263854,0.0026752657293971638,135.60391942758525,178.07457631690625,0,1.1756303310394287,2019-08-06 14:46:41:115
-0.04406818374991417,0.33151477575302124,9.889992713928223,0.002994124134177209,-0.0033558695754062136,0.007203745158488308,136.48744847961058,178.07405130379513,0,1.1794164180755615,2019-08-06 14:46:41:119
-0.06083143129944801,0.29080402851104736,9.86365032196045,-0.0004688308170663259,-0.005753299723709235,0.005605458392952959,137.35164444210682,178.07887819041827,0,1.182548999786377,2019-08-06 14:46:41:122
-0.11591067165136337,0.33630427718162537,9.882808685302734,-0.002599880065345157,-0.006286061978887684,0.003208027984575613,138.19225574561202,178.07876916835104,0,1.1856186389923096,2019-08-06 14:46:41:125
-0.008146938867866993,0.30517253279685974,9.87322998046875,-0.0020671176801295454,-0.00255672619263854,0.003474409372239163,139.02800935666124,178.0822259061591,0,1.1894099712371826,2019-08-06 14:46:41:129
-0.04646293446421623,0.2931987941265106,9.825334548950195,-0.001534355424951096,-0.004954156340941561,0.003474409372239163,139.84289945179742,178.0866653363249,0,1.1925344467163086,2019-08-06 14:46:41:132
-0.07041043043136597,0.3482780158519745,9.825334548950195,6.393147468507523e-05,-0.003888631830584663,0.005605458392952959,140.63849971287394,178.08431881645905,0,1.1956028938293457,2019-08-06 14:46:41:135
-0.020120687782764435,0.3003830313682556,9.810966491699219,-0.002333498937755932,-0.003888631830584663,0.003474409372239163,141.42421469526252,178.0880599248461,0,1.1994273662567139,2019-08-06 14:46:41:139
-0.09675268083810806,0.2931987941265106,9.820545196533203,-0.0004688308170663259,-0.004954156340941561,0.0026752657293971638,142.1853078920903,178.0921788524548,0,1.2025432586669922,2019-08-06 14:46:41:142
-0.07998942583799362,0.32912003993988037,9.868440628051758,-0.0033990234481128304,-0.003622250702995438,0.005339077265363735,142.93294819046676,178.09272773049497,0,1.2056632041931152,2019-08-06 14:46:41:145
-0.05125243216753006,0.30277779698371887,9.755887031555176,-0.0028662611929343817,-0.00255672619263854,0.002408884601807939,143.6688080352537,178.0959246842003,0,1.209416389465332,2019-08-06 14:46:41:149
-0.010541687719523907,0.30517253279685974,9.851676940917969,-0.0007352119771648412,-0.005220537468530785,0.0010769789638618162,144.3951215847867,178.09864982830828,0,1.212540864944458,2019-08-06 14:46:41:152
-0.010541687719523907,0.2812250256538391,9.803781509399414,-0.0020671176801295454,-0.004421394085763112,0.004539933882596061,145.10674680925067,178.10417007572664,0,1.2156014442443848,2019-08-06 14:46:41:155
-0.012936437502503395,0.2812250256538391,9.861255645751953,-0.001534355424951096,-0.002023963937460091,0.003474409372239163,145.8035429457228,178.10974537353817,0,1.2194232940673828,2019-08-06 14:46:41:159
-0.0680156797170639,0.321935772895813,9.83491325378418,-0.0007352119771648412,-0.003888631830584663,0.003474409372239163,146.48023051579924,178.11018264840686,0,1.2225520610809326,2019-08-06 14:46:41:162
-0.03688393533229828,0.23333004117012024,9.801386833190918,-0.002599880065345157,-0.0030894884478169893,0.0016097412190402653,147.14684710512805,178.12115356834968,0,1.2256269454956055,2019-08-06 14:46:41:165
-0.04406818374991417,0.29798829555511475,9.78222942352295,0.0019285994937831485,-0.0022903450650493154,0.004007171627417612,147.79923575755438,178.12342339842098,0,1.2294201850891113,2019-08-06 14:46:41:169
-0.07519993185997009,0.262067049741745,9.770255088806152,0.0013958372386046994,-0.005753299723709235,0.003208027984575613,148.4354401964779,178.12998069175333,0,1.2325432300567627,2019-08-06 14:46:41:172
-0.07280518114566803,0.3075672686100006,9.798992156982422,-0.0036654045757020556,-0.0006920582344953867,0.004806315010185286,149.05833774295036,178.13206187021956,0,1.2356362342834473,2019-08-06 14:46:41:175
-0.056041933596134186,0.3003830313682556,9.92591381072998,0.003260505261766434,-0.00042567707439687154,0.002941646856986388,149.67079178805832,178.13405900447097,0,1.239426612854004,2019-08-06 14:46:41:179
-0.05364718288183212,0.28601452708244324,9.815755844116211,0.00033031263071992917,-0.007085205881804008,0.004539933882596061,150.27235850177914,178.13793916660143,0,1.2425570487976074,2019-08-06 14:46:41:182
-0.04646293446421623,0.34348851442337036,9.813361167907715,0.00033031263071992917,-0.004155012958173888,0.006138220648131409,150.86224711914744,178.1350267493561,0,1.2458200454711914,2019-08-06 14:46:41:185
-0.05364718288183212,0.30517253279685974,9.861255645751953,-0.0020671176801295454,-0.0022903450650493154,0.0042735527550068365,151.43919061985227,178.13725653528317,0,1.2491044998168945,2019-08-06 14:46:41:189
-0.05125243216753006,0.3267252743244171,9.784624099731445,0.000863074918407669,-0.0033558695754062136,0.0037407904998283874,152.0050675914438,178.13609100314136,0,1.2526235580444336,2019-08-06 14:46:41:192
0.013405809178948402,0.3195410370826721,9.887598037719727,-0.0012679742973618717,-0.004421394085763112,0.0021425034742187147,145.3673261802383,178.13658033201375,0,1.255871295928955,2019-08-06 14:46:41:195
-0.07519993185997009,0.3003830313682556,9.796597480773926,0.0005966937908184444,-0.004687775213352337,0.003208027984575613,146.0521092240981,178.1386058789796,0,1.259387731552124,2019-08-06 14:46:41:199
-0.03209443390369415,0.314751535654068,9.86365032196045,0.0011294561110154748,-0.006552443626625559,0.004007171627417612,146.72848880514033,178.13908142710062,0,1.262514352798462,2019-08-06 14:46:41:202
-0.05125243216753006,0.26446178555488586,9.820545196533203,-0.002599880065345157,-0.005220537468530785,0.002941646856986388,147.3888108009407,178.14588272147802,0,1.2654895782470703,2019-08-06 14:46:41:205
0.037353307008743286,0.26446178555488586,9.84449291229248,-0.0018007365525403206,-0.0028231073202277645,0.0021425034742187147,140.84597965027535,178.15256953373353,0,1.269256353378296,2019-08-06 14:46:41:209
-0.07519993185997009,0.32912003993988037,9.8229398727417,0.0021949807514095357,-0.0028231073202277645,0.0010769789638618162,141.62083048803416,178.15071623394005,0,1.2726809978485107,2019-08-06 14:46:41:212
-0.048857681453228,0.30517253279685974,9.700807571411133,0.00033031263071992917,-0.003622250702995438,0.003474409372239163,142.38328761113323,178.15160622556988,0,1.2758524417877197,2019-08-06 14:46:41:215
-0.04406818374991417,0.29798829555511475,9.854071617126465,-0.0018007365525403206,-0.0017575828098708665,0.002941646856986388,143.13084691022436,178.15429026121322,0,1.279395341873169,2019-08-06 14:46:41:219
-0.07280518114566803,0.30517253279685974,9.827729225158691,-0.0007352119771648412,-0.0054869185961200105,0.003474409372239163,143.8607030568662,178.15576160160543,0,1.282517910003662,2019-08-06 14:46:41:222
-0.07759468257427216,0.30996203422546387,9.820545196533203,-0.002599880065345157,-0.0014912016822816417,0.0042735527550068365,144.57469213000545,178.1569385750654,0,1.2855887413024902,2019-08-06 14:46:41:225
-0.07519993185997009,0.29798829555511475,9.830123901367188,-0.00020244967322245603,-0.0054869185961200105,0.0026752657293971638,145.27561576023103,178.15911706246683,0,1.2894301414489746,2019-08-06 14:46:41:229
-0.03688393533229828,0.27164602279663086,9.825334548950195,-0.0007352119771648412,-0.002023963937460091,0.0008105978362725917,145.96622464244058,178.16441469886993,0,1.2931513786315918,2019-08-06 14:46:41:233
-0.06322617828845978,0.314751535654068,9.887598037719727,0.00033031263071992917,-0.0028231073202277645,0.0026752657293971638,146.63998018868023,178.16461315360152,0,1.2957220077514648,2019-08-06 14:46:41:235
-0.008146938867866993,0.30996203422546387,9.86365032196045,-0.001534355424951096,-0.003888631830584663,-0.0015868324420675922,147.3070474082033,178.1656436156332,0,1.2994468212127686,2019-08-06 14:46:41:239
-0.02969968505203724,0.30996203422546387,9.710386276245117,6.393147468507523e-05,-0.0028231073202277645,0.0021425034742187147,147.95789718015357,178.1657535440637,0,1.3025729656219482,2019-08-06 14:46:41:242
-0.017725937068462372,0.2884092926979065,9.928308486938477,0.00033031263071992917,-0.0028231073202277645,0.0005442166761740764,148.59719057654507,178.16910173562343,0,1.3057098388671875,2019-08-06 14:46:41:245
0.006221559830009937,0.33151477575302124,9.842098236083984,-0.0010015931047540657,-0.004421394085763112,-0.0005213078992014032,142.02689178178906,178.16734457574637,0,1.3094182014465332,2019-08-06 14:46:41:249
-0.034489184617996216,0.35546228289604187,9.746308326721191,-0.0012679742973618717,-0.003888631830584663,0.002941646856986388,142.7829830639167,178.16244604339488,0,1.312551498413086,2019-08-06 14:46:41:252
-0.07041043043136597,0.32433053851127625,9.827729225158691,0.0011294561110154748,-0.00042567707439687154,0.0016097412190402653,143.51918742142115,178.1611981377792,0,1.3156371116638184,2019-08-06 14:46:41:255
-0.020120687782764435,0.321935772895813,9.86365032196045,-0.0018007365525403206,-0.005220537468530785,0.0002778355485848519,144.24757415100856,178.16096855138542,0,1.3194169998168945,2019-08-06 14:46:41:259
-0.017725937068462372,0.3458832800388336,9.820545196533203,-0.00020244967322245603,-0.0030894884478169893,0.004539933882596061,144.9610951680534,178.15744172166575,0,1.3225347995758057,2019-08-06 14:46:41:262
-0.012936437502503395,0.25248804688453674,9.79420280456543,-0.003132642320523606,-0.004954156340941561,-0.0010540701868891429,145.66121825055487,178.16530136270174,0,1.3256211280822754,2019-08-06 14:46:41:265
0.006221559830009937,0.3003830313682556,9.72475528717041,0.002727743006587985,-0.0028231073202277645,0.004806315010185286,139.14933026090614,178.16602810024375,0,1.3294267654418945,2019-08-06 14:46:41:269
-0.000962689402513206,0.3722255229949951,9.760676383972168,-0.0010015931047540657,-0.00015929593055300162,-0.00025492675535753324,139.96625862409994,178.15920494941895,0,1.3325560092926025,2019-08-06 14:46:41:272
-0.07519993185997009,0.2955935299396515,9.870835304260254,6.393147468507523e-05,-0.005753299723709235,-0.0007876890592999184,140.75919714503544,178.16170430017658,0,1.3356316089630127,2019-08-06 14:46:41:275
-0.094357930123806,0.25248804688453674,9.851676940917969,-0.00020244967322245603,-0.005753299723709235,-0.00025492675535753324,141.53425859007677,178.1691509850696,0,1.339409589767456,2019-08-06 14:46:41:279
-0.024910185486078262,0.25967228412628174,9.772649765014648,-0.0010015931047540657,-0.0009584393620846114,0.002408884601807939,142.30082129702427,178.17550300440377,0,1.342545747756958,2019-08-06 14:46:41:282
-0.04646293446421623,0.2500932812690735,9.846887588500977,0.0005966937908184444,-0.004954156340941561,0.003474409372239163,143.05027484010498,178.182789373657,0,1.345698356628418,2019-08-06 14:46:41:285
0.011011059395968914,0.3410937786102295,9.84449291229248,-0.00020244967322245603,-0.00255672619263854,0.0005442166761740764,136.59108701442923,178.17948801082352,0,1.3494317531585693,2019-08-06 14:46:41:289
-0.020120687782764435,0.2955935299396515,9.777440071105957,6.393147468507523e-05,-0.0017575828098708665,0.0021425034742187147,137.45721531729967,178.18125403928354,0,1.3525545597076416,2019-08-06 14:46:41:292
-0.03927868604660034,0.3650412857532501,9.791808128356934,-0.0004688308170663259,-0.005220537468530785,0.0016097412190402653,138.3043746302006,178.17500953789204,0,1.355625867843628,2019-08-06 14:46:41:295
-0.056041933596134186,0.2740407884120941,9.825334548950195,0.0005966937908184444,-0.004954156340941561,-0.00025492675535753324,139.13280324730763,178.17942989909608,0,1.3594081401824951,2019-08-06 14:46:41:299
-0.07998942583799362,0.321935772895813,9.72475528717041,-0.00020244967322245603,0.0006398475334878987,0.002941646856986388,139.94060950037735,178.1779554270604,0,1.3625352382659912,2019-08-06 14:46:41:302
-0.02969968505203724,0.35067278146743774,9.868440628051758,-0.002599880065345157,-0.004954156340941561,0.0018761223466294901,140.73919966229568,178.17414021454817,0,1.3655946254730225,2019-08-06 14:46:41:305
-0.034489184617996216,0.33630427718162537,9.83491325378418,-0.002599880065345157,-0.0022903450650493154,0.004007171627417612,141.5208905151783,178.17204816950712,0,1.3694307804107666,2019-08-06 14:46:41:309
0.037353307008743286,0.321935772895813,9.72475528717041,-0.002333498937755932,-0.003622250702995438,0.0013433600914510408,135.0955097385876,178.1710952023709,0,1.3725554943084717,2019-08-06 14:46:41:312
-0.09196317940950394,0.28361979126930237,9.86365032196045,0.00033031263071992917,-0.003622250702995438,-0.00025492675535753324,135.9835424875492,178.17467554090678,0,1.3756358623504639,2019-08-06 14:46:41:315
-0.048857681453228,0.2955935299396515,9.731939315795898,0.0005966937908184444,-0.004954156340941561,-0.00025492675535753324,136.8591745116475,178.17626005117165,0,1.3794310092926025,2019-08-06 14:46:41:319
-0.041673433035612106,0.30517253279685974,9.916335105895996,-0.002333498937755932,-0.003888631830584663,0.0008105978362725917,137.71785937468837,178.1778912140782,0,1.382563829421997,2019-08-06 14:46:41:322
0.030169056728482246,0.35546228289604187,9.796597480773926,-0.0007352119771648412,0.0003734663733893835,0.0016097412190402653,131.36696557343564,178.17290186919274,0,1.3856873512268066,2019-08-06 14:46:41:325
0.015800558030605316,0.26446178555488586,9.743913650512695,-0.0018007365525403206,-0.0028231073202277645,0.0005442166761740764,125.14207547028995,178.17872689029588,0,1.3894157409667969,2019-08-06 14:46:41:329
-0.024910185486078262,0.2812250256538391,9.889992713928223,-0.0018007365525403206,-0.003622250702995438,-0.0007876890592999184,126.23698698510086,178.1828944629869,0,1.3925588130950928,2019-08-06 14:46:41:332
-0.03209443390369415,0.3530675172805786,9.837308883666992,-0.0028662611929343817,-0.0017575828098708665,0.0018761223466294901,127.30881724426914,178.1786297505899,0,1.3956854343414307,2019-08-06 14:46:41:335
-0.03688393533229828,0.26925128698349,9.810966491699219,-0.0012679742973618717,-0.006818824754214785,-0.0007876890592999184,128.35975876407278,178.18388178541935,0,1.399409532546997,2019-08-06 14:46:41:339
-0.0680156797170639,0.314751535654068,9.78222942352295,0.0005966937908184444,-0.0009584393620846114,0.0037407904998283874,129.3847641400566,178.18324149541863,0,1.4025304317474365,2019-08-06 14:46:41:342
-0.05125243216753006,0.3386990427970886,9.889992713928223,-0.0004688308170663259,-0.004155012958173888,-0.0005213078992014032,130.3918453096563,178.18042889248545,0,1.4055943489074707,2019-08-06 14:46:41:345
-0.02251543663442135,0.28601452708244324,9.820545196533203,-0.0018007365525403206,-0.003622250702995438,0.0016097412190402653,131.38215995877232,178.1838431418532,0,1.4094233512878418,2019-08-06 14:46:41:349
-0.008146938867866993,0.2668565511703491,9.813361167907715,6.393147468507523e-05,-0.004954156340941561,0.0026752657293971638,132.35443810063282,178.18900159979717,0,1.4125604629516602,2019-08-06 14:46:41:352
-0.017725937068462372,0.3267252743244171,9.825334548950195,0.0024613618789987605,-0.004421394085763112,0.002941646856986388,133.30605583810438,178.18669927639124,0,1.415677547454834,2019-08-06 14:46:41:355
-0.041673433035612106,0.28601452708244324,9.842098236083984,-0.002599880065345157,-0.0012248205546924172,0.003208027984575613,134.23533907738695,178.1902181629763,0,1.419405221939087,2019-08-06 14:46:41:359
-0.017725937068462372,0.31714627146720886,9.784624099731445,-0.003132642320523606,-0.0017575828098708665,0.0021425034742187147,135.1488649044133,178.1898345231907,0,1.4225318431854248,2019-08-06 14:46:41:362
-0.03927868604660034,0.321935772895813,9.825334548950195,-0.0018007365525403206,-0.006818824754214785,0.0016097412190402653,136.04248336224634,178.18881508385988,0,1.425605297088623,2019-08-06 14:46:41:365
-0.05843668058514595,0.3267252743244171,9.83491325378418,-0.0018007365525403206,-0.0017575828098708665,0.0016097412190402653,136.91520238037597,178.18737098409025,0,1.429429054260254,2019-08-06 14:46:41:369
0.0014320602640509605,0.30996203422546387,9.832518577575684,0.000863074918407669,-0.0006920582344953867,0.004806315010185286,130.577187107156,178.18735948569696,0,1.432565450668335,2019-08-06 14:46:41:372
-0.06562092900276184,0.24530379474163055,9.856466293334961,-0.0012679742973618717,-0.0028231073202277645,0.002941646856986388,131.55850844313161,178.19532100142732,0,1.4356822967529297,2019-08-06 14:46:41:375
-0.0680156797170639,0.3003830313682556,9.743913650512695,-0.0004688308170663259,-0.003622250702995438,0.003474409372239163,132.5201026551529,178.19619852535862,0,1.439434289932251,2019-08-06 14:46:41:379
-0.04646293446421623,0.31235677003860474,9.861255645751953,6.393147468507523e-05,-0.006286061978887684,0.0042735527550068365,133.4654030288029,178.19597843311703,0,1.4425551891326904,2019-08-06 14:46:41:382
0.006221559830009937,0.2955935299396515,9.832518577575684,0.0005966937908184444,-0.002023963937460091,0.0042735527550068365,127.197168575073,178.19751699848015,0,1.4456219673156738,2019-08-06 14:46:41:385
0.015800558030605316,0.314751535654068,9.78222942352295,-0.0012679742973618717,-0.002023963937460091,0.002941646856986388,121.05550671622849,178.19697832784348,0,1.4494109153747559,2019-08-06 14:46:41:389
-0.02969968505203724,0.2931987941265106,9.870835304260254,-0.004730929346133278,-0.0028231073202277645,0.002941646856986388,122.23144468786838,178.19984214087623,0,1.4525396823883057,2019-08-06 14:46:41:392
-0.015331187285482883,0.30996203422546387,9.866044998168945,-0.0010015931047540657,-0.0012248205546924172,0.003208027984575613,123.38524622767765,178.2000284822556,0,1.4556093215942383,2019-08-06 14:46:41:395
-0.02969968505203724,0.2500932812690735,9.796597480773926,-0.0004688308170663259,-0.005220537468530785,0.0008105978362725917,124.51518406259092,178.20688094966667,0,1.4594190120697021,2019-08-06 14:46:41:399
-0.03209443390369415,0.28601452708244324,9.798992156982422,-0.0007352119771648412,-0.0014912016822816417,0.0021425034742187147,125.6213894350074,178.2094349493096,0,1.4625508785247803,2019-08-06 14:46:41:402
-0.056041933596134186,0.276435524225235,9.777440071105957,-0.0020671176801295454,-0.0030894884478169893,0.0018761223466294901,126.70292838428601,178.21321445622476,0,1.4656336307525635,2019-08-06 14:46:41:405
-0.08477892726659775,0.33151477575302124,9.854071617126465,-0.00020244967322245603,-0.0009584393620846114,0.0042735527550068365,127.75921472577916,178.21045631415964,0,1.4694147109985352,2019-08-06 14:46:41:409
-0.04406818374991417,0.26925128698349,9.827729225158691,6.393147468507523e-05,-0.004155012958173888,0.004007171627417612,128.79962150066413,178.21484905161907,0,1.472541093826294,2019-08-06 14:46:41:412
-0.03688393533229828,0.31714627146720886,9.961835861206055,-0.0036654045757020556,0.0003734663733893835,0.0005442166761740764,129.819321769595,178.2147163108444,0,1.475618839263916,2019-08-06 14:46:41:415
-0.05364718288183212,0.2740407884120941,9.887598037719727,-0.0007352119771648412,-0.0054869185961200105,0.003474409372239163,130.81789223680184,178.21882770678673,0,1.4794301986694336,2019-08-06 14:46:41:419
-0.017725937068462372,0.2955935299396515,9.734333992004395,-0.0012679742973618717,-0.003888631830584663,0.0013433600914510408,131.8001310781046,178.21988770718013,0,1.4825599193572998,2019-08-06 14:46:41:422
-0.04646293446421623,0.29080402851104736,9.868440628051758,0.0019285994937831485,-0.0030894884478169893,0.0042735527550068365,132.7593033977165,178.22137587854118,0,1.4858465194702148,2019-08-06 14:46:41:425
-0.012936437502503395,0.321935772895813,9.87322998046875,-0.0012679742973618717,-0.006818824754214785,-0.0013204513144783674,133.70400953492393,178.21985595009656,0,1.4894864559173584,2019-08-06 14:46:41:429
0.042142804712057114,0.30517253279685974,9.839703559875488,0.0005966937908184444,-0.005753299723709235,0.002408884601807939,127.43585032191935,178.2198252569556,0,1.4926226139068604,2019-08-06 14:46:41:432
-0.015331187285482883,0.29798829555511475,9.842098236083984,-0.004198166830880505,-0.003888631830584663,0.0013433600914510408,128.4860333870084,178.2214841801428,0,1.495760202407837,2019-08-06 14:46:41:435
-0.06083143129944801,0.30517253279685974,9.772649765014648,0.0013958372386046994,-0.0054869185961200105,0.003208027984575613,129.51030424059198,178.22099634924882,0,1.4994096755981445,2019-08-06 14:46:41:439
-0.08238417655229568,0.2955935299396515,9.71278190612793,-0.0004688308170663259,-0.004421394085763112,0.0037407904998283874,130.51115342766104,178.22179516100175,0,1.5025303363800049,2019-08-06 14:46:41:442
-0.027304936200380325,0.35785701870918274,9.820545196533203,-0.0028662611929343817,-0.005220537468530785,0.0010769789638618162,131.4986488394907,178.21611762435057,0,1.5056161880493164,2019-08-06 14:46:41:445
-0.024910185486078262,0.314751535654068,9.810966491699219,0.00033031263071992917,-0.004954156340941561,-0.0013204513144783674,132.46682560358437,178.2149744440837,0,1.5094239711761475,2019-08-06 14:46:41:449
0.020590057596564293,0.2812250256538391,9.770255088806152,-0.0010015931047540657,-0.00042567707439687154,0.00507269613777451,126.21997887345582,178.2178763936569,0,1.5125558376312256,2019-08-06 14:46:41:452
-0.04406818374991417,0.36983078718185425,9.837308883666992,6.393147468507523e-05,-0.0006920582344953867,0.0008105978362725917,127.29056561764513,178.2104477262898,0,1.5156347751617432,2019-08-06 14:46:41:455
-0.020120687782764435,0.30277779698371887,9.858860969543457,-0.0004688308170663259,-0.0030894884478169893,0.002941646856986388,128.34307065036506,178.21115674475087,0,1.5194106101989746,2019-08-06 14:46:41:459
0.0014320602640509605,0.314751535654068,9.741518020629883,-0.0012679742973618717,-0.004155012958173888,0.0016097412190402653,122.1771071450723,178.21014419465524,0,1.5225372314453125,2019-08-06 14:46:41:462
-0.06083143129944801,0.2812250256538391,9.858860969543457,-0.0020671176801295454,0.0022381343640418276,0.004007171627417612,123.32610657843318,178.21362111993224,0,1.5256242752075195,2019-08-06 14:46:41:465
0.006221559830009937,0.2884092926979065,9.803781509399414,-0.00020244967322245603,-0.003622250702995438,0.002408884601807939,117.26108596944698,178.21569095666834,0,1.5294313430786133,2019-08-06 14:46:41:469
-0.06083143129944801,0.321935772895813,9.801386833190918,0.0013958372386046994,-0.005220537468530785,0.004806315010185286,118.50966764479203,178.21350725394524,0,1.5325539112091064,2019-08-06 14:46:41:472
-0.05125243216753006,0.2668565511703491,9.880414009094238,-0.0010015931047540657,-0.0030894884478169893,0.003474409372239163,119.73407739270633,178.21847241662235,0,1.5357084274291992,2019-08-06 14:46:41:475
-0.041673433035612106,0.30277779698371887,9.806177139282227,6.393147468507523e-05,0.0003734663733893835,0.0037407904998283874,120.93444838273416,178.21871935269232,0,1.5394127368927002,2019-08-06 14:46:41:479
-0.015331187285482883,0.33151477575302124,9.727149963378906,-0.002599880065345157,-0.0022903450650493154,-0.0005213078992014032,122.11435604775636,178.21576284609768,0,1.5425443649291992,2019-08-06 14:46:41:482
-0.03688393533229828,0.3003830313682556,9.911545753479004,-0.0033990234481128304,-0.0014912016822816417,0.002941646856986388,123.26806266063164,178.21731779738914,0,1.545625925064087,2019-08-06 14:46:41:485
-0.06322617828845978,0.314751535654068,9.849282264709473,-0.00020244967322245603,-0.003622250702995438,0.002408884601807939,124.39611676212273,178.21640721410583,0,1.5494182109832764,2019-08-06 14:46:41:489
-0.07759468257427216,0.3075672686100006,9.909151077270508,-0.001534355424951096,-0.004155012958173888,0.003474409372239163,125.4999521803074,178.21679260674125,0,1.5525505542755127,2019-08-06 14:46:41:492
-0.03209443390369415,0.28361979126930237,9.894782066345215,0.000863074918407669,-0.007351587009393233,0.0018761223466294901,126.58750892008403,178.21947030591292,0,1.555633544921875,2019-08-06 14:46:41:495
-0.000962689402513206,0.30277779698371887,9.813361167907715,-0.0028662611929343817,-0.0030894884478169893,0.0042735527550068365,127.65630216525979,178.2203449096802,0,1.5594141483306885,2019-08-06 14:46:41:499
-0.03209443390369415,0.30277779698371887,9.798992156982422,-0.002599880065345157,-0.004155012958173888,-0.0013204513144783674,128.70015144782792,178.22099761666496,0,1.5625367164611816,2019-08-06 14:46:41:502
-0.09914742410182953,0.33151477575302124,9.820545196533203,-0.002599880065345157,-0.00042567707439687154,0.002408884601807939,129.71465304273133,178.21835706562808,0,1.565603494644165,2019-08-06 14:46:41:505
-0.08956842869520187,0.2955935299396515,9.894782066345215,6.393147468507523e-05,-0.006818824754214785,0.0008105978362725917,130.7114522755099,178.2197536545425,0,1.569429636001587,2019-08-06 14:46:41:509
-0.034489184617996216,0.314751535654068,9.830123901367188,-0.001534355424951096,-0.004155012958173888,0.003474409372239163,131.6939332315621,178.21894968842457,0,1.5725605487823486,2019-08-06 14:46:41:512
-0.020120687782764435,0.32912003993988037,9.8229398727417,-0.0010015931047540657,-0.005220537468530785,-0.0007876890592999184,132.65862246574804,178.21636643654747,0,1.5756824016571045,2019-08-06 14:46:41:515
-0.06083143129944801,0.3530675172805786,9.739123344421387,-0.0012679742973618717,-0.004421394085763112,-0.0007876890592999184,133.59922651788708,178.21078281858743,0,1.579444169998169,2019-08-06 14:46:41:519
-0.000962689402513206,0.3339095413684845,9.849282264709473,-0.00020244967322245603,-0.0028231073202277645,0.002408884601807939,134.5276217891205,178.20776856938537,0,1.5825467109680176,2019-08-06 14:46:41:522
-0.10393692553043365,0.2931987941265106,9.899572372436523,0.0035268863893556587,-0.004954156340941561,0.004007171627417612,135.4258948278247,178.20907466981228,0,1.5856244564056396,2019-08-06 14:46:41:525
-0.06322617828845978,0.31235677003860474,9.79420280456543,-0.003132642320523606,0.0011726098536849292,1.1454389502251989e-05,136.3097304532676,178.20902564019303,0,1.5894086360931396,2019-08-06 14:46:41:529
-0.04646293446421623,0.30277779698371887,9.827729225158691,0.00033031263071992917,-0.006019680851298459,0.0013433600914510408,137.17917454243442,178.20949436835753,0,1.5925335884094238,2019-08-06 14:46:41:532
-0.02251543663442135,0.30277779698371887,9.83491325378418,-0.003132642320523606,-0.002023963937460091,0.0021425034742187147,138.03331524512515,178.21057541486866,0,1.5955920219421387,2019-08-06 14:46:41:535
-0.008146938867866993,0.3339095413684845,9.827729225158691,0.0005966937908184444,-0.006286061978887684,-0.00025492675535753324,138.87305074838582,178.20731663309746,0,1.599421739578247,2019-08-06 14:46:41:539
0.037353307008743286,0.28601452708244324,9.832518577575684,-0.002333498937755932,-0.0012248205546924172,0.002941646856986388,132.5001586309596,178.21025740230067,0,1.6025571823120117,2019-08-06 14:46:41:542
-0.09914742410182953,0.2931987941265106,9.787018775939941,-0.0004688308170663259,-0.0022903450650493154,0.0026752657293971638,133.43894167217445,178.211814020413,0,1.6056249141693115,2019-08-06 14:46:41:545
-0.027304936200380325,0.29080402851104736,9.892387390136719,-0.00020244967322245603,-0.005753299723709235,0.0010769789638618162,134.36822320930418,178.21394429214115,0,1.6094117164611816,2019-08-06 14:46:41:549
-0.07759468257427216,0.27164602279663086,9.8229398727417,0.00033031263071992917,-0.003888631830584663,0.003208027984575613,135.27248886828625,178.2179261229025,0,1.612534761428833,2019-08-06 14:46:41:552
-0.08477892726659775,0.30517253279685974,9.818150520324707,0.0016622183661939237,-0.0054869185961200105,0.002408884601807939,136.15808958606215,178.2176748364829,0,1.6156024932861328,2019-08-06 14:46:41:555
-0.07041043043136597,0.26925128698349,9.763071060180664,-0.003132642320523606,-0.0014912016822816417,0.0021425034742187147,137.02698407847402,178.22239971480647,0,1.6194288730621338,2019-08-06 14:46:41:559
-0.1207001730799675,0.30517253279685974,9.875624656677246,-0.00020244967322245603,-0.002023963937460091,0.0010769789638618162,137.87279546681177,178.22258795629372,0,1.6225595474243164,2019-08-06 14:46:41:562
-0.08477892726659775,0.2931987941265106,9.827729225158691,0.0005966937908184444,-0.006019680851298459,0.003474409372239163,138.70656012550535,178.22384969674187,0,1.6258304119110107,2019-08-06 14:46:41:565
-0.07519993185997009,0.314751535654068,9.772649765014648,-0.0036654045757020556,-0.0033558695754062136,0.0042735527550068365,139.5242200897309,178.2231433970471,0,1.629060983657837,2019-08-06 14:46:41:569
-0.05364718288183212,0.32912003993988037,9.787018775939941,-0.001534355424951096,-0.0030894884478169893,0.0008105978362725917,140.32806351688725,178.2204624233431,0,1.6325719356536865,2019-08-06 14:46:41:572
-0.06083143129944801,0.29080402851104736,9.76546573638916,-0.0004688308170663259,-0.0017575828098708665,0.003208027984575613,141.11468471539683,178.22202475287915,0,1.6358201503753662,2019-08-06 14:46:41:575
-0.056041933596134186,0.2884092926979065,9.755887031555176,-0.0018007365525403206,-0.006552443626625559,0.003208027984575613,141.88712460169134,178.22407958599362,0,1.639397382736206,2019-08-06 14:46:41:579
-0.02969968505203724,0.3003830313682556,9.851676940917969,0.0013958372386046994,-0.0017575828098708665,0.002941646856986388,142.64623639009184,178.22442394456044,0,1.6425268650054932,2019-08-06 14:46:41:582
-0.04646293446421623,0.3386990427970886,9.827729225158691,-0.0004688308170663259,-0.0030894884478169893,0.002408884601807939,143.3884250453478,178.2205392693894,0,1.64558744430542,2019-08-06 14:46:41:585
-0.005752188619226217,0.3003830313682556,9.878019332885742,6.393147468507523e-05,-0.004687775213352337,0.0013433600914510408,144.1209990601406,178.2212790286466,0,1.6494238376617432,2019-08-06 14:46:41:589
-0.07041043043136597,0.29080402851104736,9.83491325378418,-0.0007352119771648412,-0.0028231073202277645,-0.0005213078992014032,144.8308720618959,178.22310962503678,0,1.652557373046875,2019-08-06 14:46:41:592
-0.04406818374991417,0.35067278146743774,9.796597480773926,0.00033031263071992917,-0.006818824754214785,0.004806315010185286,145.53029707435488,178.21758848202305,0,1.655683994293213,2019-08-06 14:46:41:595
-0.09675268083810806,0.321935772895813,9.803781509399414,-0.0028662611929343817,-0.002023963937460091,0.0037407904998283874,146.20880578334155,178.21622010416965,0,1.6594080924987793,2019-08-06 14:46:41:599
-0.034489184617996216,0.3267252743244171,9.772649765014648,-0.0007352119771648412,-0.004421394085763112,0.0008105978362725917,146.88136096048396,178.21372794285315,0,1.6625313758850098,2019-08-06 14:46:41:602
-0.03927868604660034,0.33630427718162537,9.851676940917969,-0.002599880065345157,-0.0012248205546924172,0.0010769789638618162,147.53937594008497,178.2107984959209,0,1.6655986309051514,2019-08-06 14:46:41:605
-0.094357930123806,0.2812250256538391,9.878019332885742,-0.0007352119771648412,-0.005753299723709235,0.002408884601807939,148.1788801739648,178.21412552034127,0,1.6694295406341553,2019-08-06 14:46:41:609
-0.056041933596134186,0.367436021566391,9.813361167907715,-0.0020671176801295454,-0.004954156340941561,0.0018761223466294901,148.80969019837727,178.20734590767412,0,1.672778606414795,2019-08-06 14:46:41:612
-0.11112117767333984,0.3339095413684845,9.825334548950195,0.00033031263071992917,-0.003888631830584663,0.002408884601807939,149.42122846442908,178.2042118173843,0,1.6759452819824219,2019-08-06 14:46:41:616
-0.12309492379426956,0.3195410370826721,9.796597480773926,0.0021949807514095357,-0.0033558695754062136,0.0002778355485848519,150.01905774519184,178.20233767133374,0,1.679403305053711,2019-08-06 14:46:41:619
0.0014320602640509605,0.3267252743244171,9.894782066345215,-0.002599880065345157,0.0009062286610771233,0.002408884601807939,143.41868370434688,178.20092196683302,0,1.6825227737426758,2019-08-06 14:46:41:622
-0.020120687782764435,0.2740407884120941,9.798992156982422,0.0005966937908184444,-0.006818824754214785,0.003474409372239163,144.14912935533363,178.20476236628312,0,1.685584545135498,2019-08-06 14:46:41:625
-0.05843668058514595,0.26925128698349,9.889992713928223,0.0021949807514095357,-0.0014912016822816417,0.0018761223466294901,144.85969773582576,178.20900414541495,0,1.6894268989562988,2019-08-06 14:46:41:629
-0.07759468257427216,0.2285405397415161,9.791808128356934,-0.0010015931047540657,-0.004687775213352337,1.1454389502251989e-05,145.5542477734177,178.21825945255702,0,1.6925594806671143,2019-08-06 14:46:41:632
-0.06562092900276184,0.28601452708244324,9.937888145446777,-0.003132642320523606,-0.00255672619263854,0.0018761223466294901,146.23604292399264,178.2214708679445,0,1.6956703662872314,2019-08-06 14:46:41:635
-0.09196317940950394,0.321935772895813,9.851676940917969,0.0013958372386046994,-0.006019680851298459,0.0026752657293971638,146.90188943154445,178.21931515461216,0,1.6994097232818604,2019-08-06 14:46:41:639
-0.034489184617996216,0.3458832800388336,9.787018775939941,-0.0033990234481128304,-0.003888631830584663,0.005605458392952959,147.5604955456618,178.21504405158004,0,1.702533483505249,2019-08-06 14:46:41:642
-0.10633167624473572,0.34348851442337036,9.803781509399414,-0.0020671176801295454,-0.004954156340941561,0.0037407904998283874,148.19770971083824,178.21096647946877,0,1.705596923828125,2019-08-06 14:46:41:645
-0.08477892726659775,0.3386990427970886,9.854071617126465,0.0013958372386046994,-0.004687775213352337,0.006404601775720633,148.82490649881262,178.20707522591044,0,1.7094323635101318,2019-08-06 14:46:41:649
0.015800558030605316,0.33151477575302124,9.880414009094238,-0.0012679742973618717,-0.005220537468530785,0.004539933882596061,142.25115950313503,178.2047226677046,0,1.7125661373138428,2019-08-06 14:46:41:652
-0.04406818374991417,0.2740407884120941,9.854071617126465,0.0016622183661939237,-0.003622250702995438,0.003208027984575613,143.00164672120044,178.20847722789435,0,1.7156882286071777,2019-08-06 14:46:41:655
-0.02969968505203724,0.27883028984069824,9.78222942352295,0.0005966937908184444,-0.003622250702995438,0.0042735527550068365,143.73892409594296,178.21152358804702,0,1.719569444656372,2019-08-06 14:46:41:659
-0.008146938867866993,0.30517253279685974,9.772649765014648,0.002727743006587985,-0.0022903450650493154,1.1454389502251989e-05,144.46357352948664,178.21106461388018,0,1.7225492000579834,2019-08-06 14:46:41:662
-0.020120687782764435,0.276435524225235,9.84449291229248,-0.0004688308170663259,-0.0030894884478169893,0.0018761223466294901,145.1724938900486,178.21475523433747,0,1.7256269454956055,2019-08-06 14:46:41:665
-0.02251543663442135,0.26446178555488586,9.806177139282227,-0.003132642320523606,-0.00255672619263854,0.002408884601807939,145.86695715618166,178.2202303405149,0,1.7294178009033203,2019-08-06 14:46:41:669
-0.05843668058514595,0.3386990427970886,9.803781509399414,0.0005966937908184444,-0.006552443626625559,0.006670982903309857,146.54393955304124,178.21614772393946,0,1.732548475265503,2019-08-06 14:46:41:672
-0.0033574390690773726,0.2955935299396515,9.818150520324707,-0.0010015931047540657,-0.004421394085763112,0.0008105978362725917,147.21343221555657,178.21750820124595,0,1.7356231212615967,2019-08-06 14:46:41:675
-0.10633167624473572,0.3339095413684845,9.882808685302734,-0.0028662611929343817,-0.0030894884478169893,0.003208027984575613,147.85749304212385,178.21506645390446,0,1.739417314529419,2019-08-06 14:46:41:679
-0.03927868604660034,0.314751535654068,9.846887588500977,-0.002333498937755932,-0.006552443626625559,0.0010769789638618162,148.49692580045604,178.21455971549076,0,1.7425527572631836,2019-08-06 14:46:41:682
-0.027304936200380325,0.29798829555511475,9.839703559875488,-0.0018007365525403206,-0.004687775213352337,0.0016097412190402653,149.1246193426737,178.2158877942345,0,1.7456374168395996,2019-08-06 14:46:41:685
-0.07041043043136597,0.33630427718162537,9.856466293334961,6.393147468507523e-05,-0.003622250702995438,0.002408884601807939,149.73470805433845,178.2124728336279,0,1.7494080066680908,2019-08-06 14:46:41:689
-0.04646293446421623,0.2955935299396515,9.813361167907715,-0.001534355424951096,-0.006019680851298459,0.0008105978362725917,150.3356458683923,178.21398660531304,0,1.7525365352630615,2019-08-06 14:46:41:692
-0.04406818374991417,0.26925128698349,9.87322998046875,-0.004198166830880505,-0.003888631830584663,0.0026752657293971638,150.92448854818912,178.2191881298323,0,1.7556061744689941,2019-08-06 14:46:41:695
-0.0033574390690773726,0.35067278146743774,9.86365032196045,0.0019285994937831485,0.00010708522141819095,0.0037407904998283874,151.50558572310854,178.21366763658403,0,1.7594316005706787,2019-08-06 14:46:41:699
-0.1207001730799675,0.32433053851127625,9.839703559875488,-0.0010015931047540657,-0.004954156340941561,0.003208027984575613,152.06228898089515,178.21181300965256,0,1.7625620365142822,2019-08-06 14:46:41:702
-0.012936437502503395,0.2548827826976776,9.849282264709473,0.0013958372386046994,-0.00255672619263854,0.002408884601807939,152.61998607850856,178.21768444084395,0,1.7656824588775635,2019-08-06 14:46:41:705
-0.06562092900276184,0.3722255229949951,9.889992713928223,0.0005966937908184444,-0.004687775213352337,0.0026752657293971638,153.1609684298956,178.21009734819393,0,1.769425392150879,2019-08-06 14:46:41:709
-0.03209443390369415,0.3267252743244171,9.825334548950195,-0.0007352119771648412,-0.007085205881804008,0.002941646856986388,153.69524659309423,178.20793264560376,0,1.7725439071655273,2019-08-06 14:46:41:712
-0.05843668058514595,0.28601452708244324,9.832518577575684,-0.001534355424951096,-0.006286061978887684,0.0008105978362725917,154.21563137192663,178.21071877888556,0,1.775660514831543,2019-08-06 14:46:41:715
-0.041673433035612106,0.276435524225235,9.84449291229248,-0.00020244967322245603,-0.0017575828098708665,-0.0026523570824616527,154.72683835706243,178.21437796488604,0,1.779414176940918,2019-08-06 14:46:41:719
-0.08477892726659775,0.2740407884120941,9.78222942352295,-0.00020244967322245603,-0.004954156340941561,0.0016097412190402653,155.22323956894724,178.21803246390013,0,1.7825379371643066,2019-08-06 14:46:41:722
-0.015331187285482883,0.38419926166534424,9.83491325378418,-0.00020244967322245603,-0.005220537468530785,0.0018761223466294901,155.71788415219268,178.2089642962171,0,1.7855935096740723,2019-08-06 14:46:41:725
-0.03688393533229828,0.3458832800388336,9.770255088806152,-0.006861978366847076,-0.005753299723709235,0.0037407904998283874,156.20043692355483,178.20570929548083,0,1.7894208431243896,2019-08-06 14:46:41:729
0.008616309612989426,0.3195410370826721,9.849282264709473,6.393147468507523e-05,-0.004954156340941561,-0.00025492675535753324,149.47830179137844,178.20441987382094,0,1.7925524711608887,2019-08-06 14:46:41:732
-0.06562092900276184,0.2500932812690735,9.830123901367188,-0.0012679742973618717,-0.003888631830584663,-0.0018532135696568165,150.0817587993891,178.21140320883615,0,1.7956323623657227,2019-08-06 14:46:41:735
-0.07519993185997009,0.33151477575302124,9.842098236083984,-0.0004688308170663259,-0.003622250702995438,0.0010769789638618162,150.6721372946937,178.20869099984841,0,1.7994134426116943,2019-08-06 14:46:41:739
-0.05125243216753006,0.3195410370826721,9.820545196533203,-0.0028662611929343817,-0.003622250702995438,0.0002778355485848519,151.2533501055292,178.20774771139784,0,1.8025400638580322,2019-08-06 14:46:41:742
-0.03209443390369415,0.27164602279663086,9.911545753479004,-0.0010015931047540657,-0.004421394085763112,-0.00025492675535753324,151.82533378562368,178.212366921927,0,1.8056063652038574,2019-08-06 14:46:41:745
-0.000962689402513206,0.31714627146720886,9.779834747314453,0.0005966937908184444,0.0041028022571664,0.002408884601807939,152.38783336967518,178.2108440519969,0,1.8094303607940674,2019-08-06 14:46:41:749
-0.020120687782764435,0.29798829555511475,9.767860412597656,-0.00020244967322245603,-0.0028231073202277645,-0.0007876890592999184,152.93821247670033,178.21171512744272,0,1.812560796737671,2019-08-06 14:46:41:752
-0.03209443390369415,0.314751535654068,9.846887588500977,-0.002333498937755932,-0.003622250702995438,0.002941646856986388,153.47635635092686,178.21127885184262,0,1.8157224655151367,2019-08-06 14:46:41:755
-0.09914742410182953,0.27164602279663086,9.820545196533203,-0.0018007365525403206,-0.005220537468530785,-0.0005213078992014032,153.99634570102086,178.21573849898007,0,1.8194243907928467,2019-08-06 14:46:41:759
-0.08477892726659775,0.3530675172805786,9.818150520324707,-0.0010015931047540657,-0.005220537468530785,0.0026752657293971638,154.50744072954683,178.2104094095037,0,1.8225512504577637,2019-08-06 14:46:41:762
0.01819530874490738,0.32433053851127625,9.866044998168945,0.0021949807514095357,-0.006552443626625559,1.1454389502251989e-05,147.8205358566656,178.2081658916145,0,1.8256242275238037,2019-08-06 14:46:41:765
-0.000962689402513206,0.2884092926979065,9.830123901367188,0.000863074918407669,-0.005220537468530785,0.0005442166761740764,148.46512490863532,178.2102079770553,0,1.8294177055358887,2019-08-06 14:46:41:769
-0.041673433035612106,0.33151477575302124,9.832518577575684,-0.002333498937755932,-0.004687775213352337,0.0010769789638618162,149.0917908533497,178.2077933345216,0,1.8325526714324951,2019-08-06 14:46:41:772
-0.08956842869520187,0.32912003993988037,9.739123344421387,-0.0012679742973618717,-0.0017575828098708665,0.0018761223466294901,149.69972047129517,178.20514679559645,0,1.8356316089630127,2019-08-06 14:46:41:775
0.006221559830009937,0.32912003993988037,9.775045394897461,-0.0004688308170663259,-0.0028231073202277645,-0.00025492675535753324,143.1070546972252,178.202575647492,0,1.8394122123718262,2019-08-06 14:46:41:779
-0.02251543663442135,0.3195410370826721,9.710386276245117,0.003260505261766434,-0.0028231073202277645,0.0002778355485848519,143.84275170940737,178.20025708796425,0,1.8425357341766357,2019-08-06 14:46:41:782
-0.02969968505203724,0.28361979126930237,9.909151077270508,-0.00020244967322245603,-0.007884349264571683,-0.0005213078992014032,144.5638310165724,178.20349764309887,0,1.845627784729004,2019-08-06 14:46:41:785
-0.03927868604660034,0.28361979126930237,9.868440628051758,0.002994124134177209,-0.004155012958173888,0.0005442166761740764,145.26887994330028,178.20586420508369,0,1.8494277000427246,2019-08-06 14:46:41:789
-0.04646293446421623,0.3482780158519745,9.810966491699219,-0.00393178570329128,-0.0033558695754062136,-0.0031851193376401022,145.9586656370842,178.20177667826934,0,1.8525593280792236,2019-08-06 14:46:41:792
-0.03209443390369415,0.3267252743244171,9.796597480773926,-0.0018007365525403206,-0.0028231073202277645,-0.0010540701868891429,146.63623290506885,178.19985352997833,0,1.855679988861084,2019-08-06 14:46:41:795
-0.017725937068462372,0.276435524225235,9.875624656677246,-0.004464548218544054,-0.005220537468530785,-0.0007876890592999184,147.30254727197936,178.20472586448645,0,1.8594183921813965,2019-08-06 14:46:41:799
-0.0680156797170639,0.2955935299396515,9.899572372436523,-0.0004688308170663259,-0.004421394085763112,-0.0018532135696568165,147.9494072718625,178.20650848596023,0,1.8625760078430176,2019-08-06 14:46:41:802
-0.020120687782764435,0.25248804688453674,9.8229398727417,-0.0012679742973618717,-0.005753299723709235,0.002941646856986388,148.58908041399806,178.21315254466268,0,1.8656978607177734,2019-08-06 14:46:41:805
-0.048857681453228,0.3339095413684845,9.806177139282227,-0.0010015931047540657,-0.0033558695754062136,-0.00025492675535753324,149.21228864722406,178.2100937248624,0,1.869408130645752,2019-08-06 14:46:41:809
-0.05843668058514595,0.3386990427970886,9.767860412597656,0.003260505261766434,-0.003888631830584663,0.0005442166761740764,149.82187009623863,178.20560095003745,0,1.8725345134735107,2019-08-06 14:46:41:812
0.02537955716252327,0.3267252743244171,9.904361724853516,-0.0033990234481128304,-0.005753299723709235,0.0010769789638618162,143.22936338724708,178.20428859632148,0,1.875612497329712,2019-08-06 14:46:41:815
-0.000962689402513206,0.30996203422546387,9.746308326721191,-0.003132642320523606,-0.003888631830584663,-0.0039842627204077765,143.96549538788327,178.20444214580994,0,1.879425048828125,2019-08-06 14:46:41:819
-0.02251543663442135,0.30996203422546387,9.92591381072998,0.0005966937908184444,-0.004954156340941561,0.0002778355485848519,144.68445622821923,178.20447598890658,0,1.8825528621673584,2019-08-06 14:46:41:822
-0.024910185486078262,0.2884092926979065,9.808571815490723,-0.003132642320523606,-0.0030894884478169893,-0.0023859759548724283,145.38839052375644,178.20724297472657,0,1.8856289386749268,2019-08-06 14:46:41:825
-0.07998942583799362,0.25967228412628174,9.849282264709473,-0.0010015931047540657,-0.00255672619263854,-0.0013204513144783674,146.07185979744904,178.21310633775565,0,1.8894131183624268,2019-08-06 14:46:41:829
-0.015331187285482883,0.321935772895813,9.88520336151123,0.00033031263071992917,-0.00255672619263854,-0.0015868324420675922,146.74909416506117,178.21147987828445,0,1.8925392627716064,2019-08-06 14:46:41:832
-0.06322617828845978,0.34348851442337036,9.899572372436523,-0.0010015931047540657,-0.003888631830584663,0.0005442166761740764,147.40746498015102,178.2076789410938,0,1.895613670349121,2019-08-06 14:46:41:835
-0.015331187285482883,0.26446178555488586,9.8229398727417,-0.0007352119771648412,-0.003622250702995438,-0.00025492675535753324,148.05830291183534,178.21283891957165,0,1.8994276523590088,2019-08-06 14:46:41:839
0.049327053129673004,0.22135628759860992,9.798992156982422,0.0005966937908184444,-0.004954156340941561,0.0010769789638618162,141.5037749006145,178.22259590702183,0,1.9025540351867676,2019-08-06 14:46:41:842
-0.024910185486078262,0.28601452708244324,9.906756401062012,-0.00020244967322245603,-0.004155012958173888,-0.0021195946972460415,142.27153626019464,178.22510483911756,0,1.905632495880127,2019-08-06 14:46:41:845
0.020590057596564293,0.30996203422546387,9.854071617126465,0.00033031263071992917,-0.0033558695754062136,1.1454389502251989e-05,135.8292155390873,178.22449915397675,0,1.9094302654266357,2019-08-06 14:46:41:849
-0.04646293446421623,0.33151477575302124,9.784624099731445,-0.0012679742973618717,-0.003888631830584663,-0.0034515004652293266,136.7078718222148,178.22142140920326,0,1.9125537872314453,2019-08-06 14:46:41:852
-0.041673433035612106,0.2955935299396515,9.875624656677246,-0.0033990234481128304,-0.004954156340941561,-0.0031851193376401022,137.56973500075668,178.22329150068398,0,1.9156315326690674,2019-08-06 14:46:41:855
-0.034489184617996216,0.23093529045581818,9.748703002929688,-0.0010015931047540657,-0.0033558695754062136,0.0002778355485848519,138.41499870140203,178.2318979880814,0,1.91941237449646,2019-08-06 14:46:41:859
0.013405809178948402,0.3458832800388336,9.777440071105957,-0.0018007365525403206,-0.0033558695754062136,0.0018761223466294901,132.04885800771368,178.2270550006059,0,1.9225335121154785,2019-08-06 14:46:41:862
-0.07998942583799362,0.30517253279685974,9.854071617126465,-0.0007352119771648412,-0.003888631830584663,0.0005442166761740764,132.9992508478589,178.227164158299,0,1.9256095886230469,2019-08-06 14:46:41:865
