ACCELEROMETER X (m/s²),ACCELEROMETER Y (m/s²),ACCELEROMETER Z (m/s²),GYROSCOPE X (rad/s),GYROSCOPE Y (rad/s),GYROSCOPE Z (rad/s),Pitch (Deg),Roll (Deg),Heading (Deg),Time since start in ms ,YYYY-MO-DD HH-MI-SS_SSS
0.04453755542635918,0.10401355475187302,9.758281707763672,-0.0004688308170663259,-0.004421394085763112,0.0037407904998283874,-3.594769988582784,3.5877861447394994,0,0.0,2019-08-06 15:43:05:819
0.05172180384397507,0.17346130311489105,9.846887588500977,-0.002599880065345157,-0.0017575828098708665,0.005339077265363735,-7.116537396012708,7.096316934725216,0,0.0032243728637695312,2019-08-06 15:43:05:822
0.07087980210781097,0.12796105444431305,9.815755844116211,6.393147468507523e-05,-0.0022903450650493154,0.0013433600914510408,-10.565540288688485,10.539442015464205,0,0.0062711238861083984,2019-08-06 15:43:05:825
0.08045879751443863,0.11598730832338333,9.775045394897461,-0.0020671176801295454,-0.0054869185961200105,0.006404601775720633,-13.943644752437814,13.915491100601628,0,0.010013103485107422,2019-08-06 15:43:05:829
0.09482730180025101,0.1375400573015213,9.861255645751953,0.0013958372386046994,-0.004155012958173888,0.0021425034742187147,-17.253002758692144,17.220947630999927,0,0.013228416442871094,2019-08-06 15:43:05:832
0.1403275430202484,0.10640830546617508,9.777440071105957,-0.004464548218544054,-0.004155012958173888,0.0010769789638618162,-20.490793307568122,20.46481472043289,0,0.016246557235717773,2019-08-06 15:43:05:835
0.09722204506397247,0.13275055587291718,9.937888145446777,-0.002333498937755932,-0.00015929593055300162,0.0010769789638618162,-23.66973372815595,23.64070458710715,0,0.020004749298095703,2019-08-06 15:43:05:839
0.08764304965734482,0.13275055587291718,9.760676383972168,0.0011294561110154748,-0.0009584393620846114,0.0016097412190402653,-26.785876467220067,26.752101964977058,0,0.023227930068969727,2019-08-06 15:43:05:842
0.06369554996490479,0.16148754954338074,9.842098236083984,-0.004464548218544054,-0.0014912016822816417,0.002941646856986388,-29.842488499929438,29.799021474247194,0,0.026267051696777344,2019-08-06 15:43:05:845
0.05411655455827713,0.05132906511425972,9.751097679138184,-0.0012679742973618717,-0.004687775213352337,0.003208027984575613,-32.838294309736305,32.797275483796355,0,0.030008792877197266,2019-08-06 15:43:05:849
0.09003780037164688,0.15190854668617249,9.842098236083984,-0.0007352119771648412,-0.0022903450650493154,-0.0013204513144783674,-35.77063199389177,35.72377743896505,0,0.033225059509277344,2019-08-06 15:43:05:852
0.1618802845478058,0.1447243094444275,9.854071617126465,0.000863074918407669,-0.004155012958173888,-0.0007876890592999184,-38.635680012478815,38.59232455061518,0,0.03629493713378906,2019-08-06 15:43:05:855
0.12595903873443604,0.1375400573015213,9.760676383972168,-0.0020671176801295454,-0.007085205881804008,-0.0026523570824616527,-41.446700095783406,41.404763367392206,0,0.04001355171203613,2019-08-06 15:43:05:859
0.1355380415916443,0.1447243094444275,9.84449291229248,-0.004464548218544054,-0.0014912016822816417,-0.0005213078992014032,-44.20170973410377,44.160662955129595,0,0.04336357116699219,2019-08-06 15:43:05:862
0.15230129659175873,0.12077680975198746,9.798992156982422,6.393147468507523e-05,-0.003622250702995438,-0.0010540701868891429,-46.89923700730066,46.86331539590273,0,0.04645872116088867,2019-08-06 15:43:05:866
0.1283537894487381,0.1566980481147766,9.851676940917969,0.00033031263071992917,-0.004687775213352337,0.0018761223466294901,-49.5453960629466,49.50775866525595,0,0.04998183250427246,2019-08-06 15:43:05:869
0.11159054934978485,0.0920398086309433,9.837308883666992,0.00033031263071992917,-0.0022903450650493154,-0.00025492675535753324,-52.141076970088136,52.10682284132859,0,0.0531926155090332,2019-08-06 15:43:05:872
0.16906453669071198,0.0920398086309433,9.837308883666992,-0.0020671176801295454,-0.00042567707439687154,0.0016097412190402653,-54.67849184908244,54.654313713249344,0,0.05619454383850098,2019-08-06 15:43:05:875
0.09722204506397247,0.05611856281757355,9.842098236083984,-0.0007352119771648412,-0.0022903450650493154,0.0010769789638618162,-57.17311444440045,57.15485039487413,0,0.059992074966430664,2019-08-06 15:43:05:879
0.0756693035364151,0.12796105444431305,9.815755844116211,0.00033031263071992917,-0.0028231073202277645,-0.0010540701868891429,-59.62030924270628,59.59675615766738,0,0.06320476531982422,2019-08-06 15:43:05:882
0.09003780037164688,0.1183820590376854,9.892387390136719,-0.0020671176801295454,-0.003622250702995438,0.0037407904998283874,-62.01686569270477,61.99145541278812,0,0.0661933422088623,2019-08-06 15:43:05:885
0.06609030067920685,0.08246081322431564,9.825334548950195,-0.00393178570329128,-0.003888631830584663,-0.0005213078992014032,-64.36799061892984,64.34284829857366,0,0.06999397277832031,2019-08-06 15:43:05:889
0.15709078311920166,0.10640830546617508,9.787018775939941,-0.001534355424951096,-0.00042567707439687154,-0.0021195946972460415,-66.66216271940831,66.64380927255137,0,0.07320094108581543,2019-08-06 15:43:05:892
0.1355380415916443,0.09682931005954742,9.870835304260254,-0.003132642320523606,-0.0033558695754062136,0.002408884601807939,-68.91261635874187,68.90022390217192,0,0.07622241973876953,2019-08-06 15:43:05:895
0.1211695447564125,0.13514530658721924,9.856466293334961,-0.005530072728900952,-0.007884349264571683,-0.0039842627204077765,-71.11860479261767,71.10768163622558,0,0.0800008773803711,2019-08-06 15:43:05:899
0.11638004332780838,0.12796105444431305,9.851676940917969,-0.003132642320523606,-0.0028231073202277645,0.002941646856986388,-73.28218532893392,73.27121189441422,0,0.08322477340698242,2019-08-06 15:43:05:902
0.13314329087734222,0.15430329740047455,9.870835304260254,-0.0018007365525403206,-0.002023963937460091,-0.0015868324420675922,-75.40073907917579,75.38818437863654,0,0.08627581596374512,2019-08-06 15:43:05:905
0.21217003464698792,0.12317155301570892,9.76546573638916,0.00033031263071992917,-0.004421394085763112,0.0005442166761740764,-77.4669098157406,77.46589920556484,0,0.08998799324035645,2019-08-06 15:43:05:909
0.10440629720687866,0.11359255760908127,9.878019332885742,0.0013958372386046994,-0.003888631830584663,-0.0005213078992014032,-79.50475205523288,79.50315010553616,0,0.0932314395904541,2019-08-06 15:43:05:912
0.15948553383350372,0.09443455934524536,9.866044998168945,-0.0020671176801295454,-0.0028231073202277645,0.0010769789638618162,-81.4956626800055,81.50246479806006,0,0.09620976448059082,2019-08-06 15:43:05:915
0.0756693035364151,0.1375400573015213,9.801386833190918,6.393147468507523e-05,-0.004954156340941561,0.0002778355485848519,-83.45585116003332,83.45632268043545,0,0.0999903678894043,2019-08-06 15:43:05:919
0.13793279230594635,0.12796105444431305,9.894782066345215,-0.0018007365525403206,-0.0006920582344953867,0.0018761223466294901,-85.37063595930186,85.3727036506442,0,0.10321235656738281,2019-08-06 15:43:05:922
0.11638004332780838,0.10640830546617508,9.870835304260254,-0.0028662611929343817,-0.00255672619263854,-0.0015868324420675922,-87.24928448789457,87.25337760306316,0,0.10619854927062988,2019-08-06 15:43:05:925
0.08045879751443863,0.12317155301570892,9.813361167907715,-0.002599880065345157,-0.004155012958173888,0.0021425034742187147,-89.09401800326589,89.0944821813318,0,0.10999512672424316,2019-08-06 15:43:05:929
0.08285354822874069,0.05851331353187561,9.731939315795898,-0.0007352119771648412,-0.004687775213352337,-0.0005213078992014032,-90.90153546703218,90.90583557398404,0,0.11321139335632324,2019-08-06 15:43:05:932
0.11159054934978485,0.08725030720233917,9.717571258544922,-0.002333498937755932,0.0006398475334878987,0.003474409372239163,-92.67045344253646,92.67782095621219,0,0.11619210243225098,2019-08-06 15:43:05:935
0.11638004332780838,0.1111978068947792,9.918729782104492,0.000863074918407669,-0.0006920582344953867,-0.0007876890592999184,-94.40345186930323,94.41123416665044,0,0.11999249458312988,2019-08-06 15:43:05:939
0.08285354822874069,0.08006606251001358,9.851676940917969,-0.00393178570329128,-0.003888631830584663,1.1454389502251989e-05,-96.10504275877233,96.11440750198271,0,0.12321233749389648,2019-08-06 15:43:05:942
0.05411655455827713,0.13993480801582336,9.92591381072998,-0.0007352119771648412,-0.005220537468530785,0.003208027984575613,-97.77581770124148,97.77608885095893,0,0.12620306015014648,2019-08-06 15:43:05:945
0.10680104792118073,0.171066552400589,9.76546573638916,-0.005796453856490177,-0.008683492647339357,0.0026752657293971638,-99.40591876131492,99.40173091177398,0,0.12999868392944336,2019-08-06 15:43:05:949
0.09722204506397247,0.10401355475187302,9.815755844116211,6.393147468507523e-05,-0.0030894884478169893,-0.00025492675535753324,-101.00589370286919,101.00154242016735,0,0.1332101821899414,2019-08-06 15:43:05:952
0.08045879751443863,0.0848555639386177,9.858860969543457,-0.0018007365525403206,-0.0017575828098708665,0.003208027984575613,-102.57613043242998,102.5719498042026,0,0.1361863613128662,2019-08-06 15:43:05:955
0.09482730180025101,0.1447243094444275,9.758281707763672,-0.00393178570329128,-0.0009584393620846114,1.1454389502251989e-05,-104.11326681846491,104.10436123783838,0,0.14001011848449707,2019-08-06 15:43:05:959
0.1211695447564125,0.08246081322431564,9.854071617126465,-0.0036654045757020556,-0.003888631830584663,0.003208027984575613,-105.61621284338835,105.6133435988696,0,0.14321017265319824,2019-08-06 15:43:05:962
0.09482730180025101,0.05611856281757355,9.787018775939941,-0.0049973104737225035,-0.0022903450650493154,0.0018761223466294901,-107.09240199241891,107.09534413016243,0,0.14619660377502441,2019-08-06 15:43:05:965
0.12356429547071457,0.10880305618047714,9.880414009094238,-0.0007352119771648412,-0.004421394085763112,0.0010769789638618162,-108.53528200824596,108.54097556464825,0,0.14999055862426758,2019-08-06 15:43:05:969
0.09961679577827454,0.05851331353187561,9.820545196533203,-0.0028662611929343817,-0.002023963937460091,0.0013433600914510408,-109.95258746802614,109.96384602651142,0,0.15320634841918945,2019-08-06 15:43:05:972
0.1283537894487381,0.14711906015872955,9.935493469238281,-0.0010015931047540657,-0.0033558695754062136,0.0005442166761740764,-111.33816982472347,111.34777031032485,0,0.15619397163391113,2019-08-06 15:43:05:975
0.15948553383350372,0.11359255760908127,9.866044998168945,-0.0010015931047540657,-0.007617968136982457,0.0016097412190402653,-112.69125941570692,112.70783562968379,0,0.15999245643615723,2019-08-06 15:43:05:979
0.07087980210781097,0.1111978068947792,9.751097679138184,-0.0036654045757020556,-0.004155012958173888,0.0010769789638618162,-114.02835412287097,114.04127413879239,0,0.16321015357971191,2019-08-06 15:43:05:982
0.04453755542635918,0.11598730832338333,9.906756401062012,-0.0012679742973618717,-0.004155012958173888,0.005871839520542184,-115.34194011289,115.34724518676563,0,0.16619038581848145,2019-08-06 15:43:05:985
0.20977528393268585,0.10401355475187302,9.837308883666992,0.0005966937908184444,-0.004155012958173888,0.004007171627417612,-116.60978256229347,116.62805724195294,0,0.16998982429504395,2019-08-06 15:43:05:989
0.09243255108594894,0.14951379597187042,9.887598037719727,-0.004464548218544054,-0.0033558695754062136,-0.0005213078992014032,-117.86626778878576,117.8789772116787,0,0.17321133613586426,2019-08-06 15:43:05:992
0.1475117951631546,0.14951379597187042,9.813361167907715,-0.00393178570329128,-0.006019680851298459,0.005339077265363735,-119.09070953237021,119.10459925044319,0,0.17619681358337402,2019-08-06 15:43:05:995
0.03495855629444122,0.15909279882907867,9.830123901367188,-0.0018007365525403206,-0.0009584393620846114,0.002941646856986388,-120.30461587112313,120.30434699682588,0,0.1799931526184082,2019-08-06 15:43:05:999
0.18582779169082642,0.10401355475187302,9.818150520324707,-0.0028662611929343817,-0.002023963937460091,-0.0007876890592999184,-121.47647303598856,121.48663672660754,0,0.18319964408874512,2019-08-06 15:43:06:002
0.06369554996490479,0.15430329740047455,9.827729225158691,-0.0028662611929343817,-0.004421394085763112,0.0021425034742187147,-122.63876309708834,122.63940224827743,0,0.1862354278564453,2019-08-06 15:43:06:005
0.06369554996490479,0.0656975656747818,9.803781509399414,6.393147468507523e-05,-0.0014912016822816417,0.0037407904998283874,-123.7782283251751,123.77892176853739,0,0.18999218940734863,2019-08-06 15:43:06:009
0.08764304965734482,0.09922406077384949,9.813361167907715,-0.002333498937755932,-0.0030894884478169893,0.003474409372239163,-124.8918712249461,124.89217918378205,0,0.19321250915527344,2019-08-06 15:43:06:012
0.11638004332780838,0.06809231638908386,9.775045394897461,-0.00020244967322245603,-0.0014912016822816417,0.0008105978362725917,-125.98014097154477,125.98638735178679,0,0.19620299339294434,2019-08-06 15:43:06:015
0.09243255108594894,0.09682931005954742,9.854071617126465,-0.0007352119771648412,-0.003888631830584663,0.005605458392952959,-127.04896216265291,127.05555627323722,0,0.19999265670776367,2019-08-06 15:43:06:019
0.09961679577827454,0.07288181036710739,9.798992156982422,-0.0007352119771648412,-0.0017575828098708665,0.0013433600914510408,-128.09601690751427,128.1060549532716,0,0.20320487022399902,2019-08-06 15:43:06:022
0.13793279230594635,0.07527656108140945,9.760676383972168,-0.0004688308170663259,-0.0033558695754062136,0.0010769789638618162,-129.11734268505893,129.13517490861244,0,0.20618462562561035,2019-08-06 15:43:06:025
0.15230129659175873,0.15909279882907867,9.839703559875488,-0.0004688308170663259,-0.006019680851298459,0.0042735527550068365,-130.11597441078743,130.13404550441805,0,0.2099895477294922,2019-08-06 15:43:06:029
0.1211695447564125,0.12317155301570892,9.870835304260254,-0.002599880065345157,-0.003888631830584663,-0.0013204513144783674,-131.09888729520088,131.11753532437066,0,0.21320295333862305,2019-08-06 15:43:06:032
0.1355380415916443,0.14711906015872955,9.894782066345215,-0.002333498937755932,-0.0028231073202277645,0.0026752657293971638,-132.06073698091544,132.07854217485186,0,0.21621131896972656,2019-08-06 15:43:06:035
0.04693230614066124,0.1111978068947792,9.79420280456543,0.0013958372386046994,-0.004687775213352337,0.0008105978362725917,-133.01303485515453,133.0236651340246,0,0.21999669075012207,2019-08-06 15:43:06:039
0.1283537894487381,0.10880305618047714,9.758281707763672,-0.0012679742973618717,0.0003734663733893835,0.003208027984575613,-133.9377699445968,133.95064481939923,0,0.22321605682373047,2019-08-06 15:43:06:042
0.1355380415916443,0.14951379597187042,9.849282264709473,-0.00020244967322245603,-0.004421394085763112,0.0013433600914510408,-134.8425065406394,134.85427193871752,0,0.2261960506439209,2019-08-06 15:43:06:045
0.16427503526210785,0.12077680975198746,9.866044998168945,-0.004464548218544054,-0.00042567707439687154,0.0021425034742187147,-135.72648730225126,135.7441110869029,0,0.22999286651611328,2019-08-06 15:43:06:049
0.10440629720687866,0.10640830546617508,9.808571815490723,0.00033031263071992917,-0.0017575828098708665,0.0018761223466294901,-136.59944044525787,136.61673774734382,0,0.23323535919189453,2019-08-06 15:43:06:052
0.06130080297589302,0.12077680975198746,9.827729225158691,-0.002599880065345157,-0.00042567707439687154,0.003208027984575613,-137.46023120672868,137.47076593943797,0,0.2362825870513916,2019-08-06 15:43:06:055
0.10440629720687866,0.10880305618047714,9.842098236083984,0.0011294561110154748,-0.004687775213352337,0.002408884601807939,-138.29789747781734,138.30844863580458,0,0.23998117446899414,2019-08-06 15:43:06:059
0.09961679577827454,0.09922406077384949,9.889992713928223,-0.0010015931047540657,-0.004155012958173888,0.0002778355485848519,-139.11964739149244,139.13096420400785,0,0.24319720268249512,2019-08-06 15:43:06:062
0.08764304965734482,0.16148754954338074,9.83491325378418,0.00033031263071992917,-0.005220537468530785,0.0042735527550068365,-139.926167977445,139.9294755149168,0,0.24618220329284668,2019-08-06 15:43:06:065
0.1020115464925766,0.12077680975198746,9.846887588500977,-0.0007352119771648412,-0.004421394085763112,-0.00025492675535753324,-140.71482331934322,140.7169895236856,0,0.25001001358032227,2019-08-06 15:43:06:069
0.10680104792118073,0.09922406077384949,9.796597480773926,-0.0033990234481128304,-0.003622250702995438,0.0013433600914510408,-141.48738175751376,141.49165656241013,0,0.2532205581665039,2019-08-06 15:43:06:072
0.1475117951631546,0.16627705097198486,9.763071060180664,-0.0012679742973618717,-0.0033558695754062136,-0.0010540701868891429,-142.23975888052323,142.24252159631692,0,0.2562069892883301,2019-08-06 15:43:06:075
0.13793279230594635,0.10880305618047714,9.875624656677246,-0.0028662611929343817,-0.0033558695754062136,0.0013433600914510408,-142.97824659816263,142.98565584355643,0,0.2599916458129883,2019-08-06 15:43:06:079
0.10680104792118073,0.1447243094444275,9.808571815490723,-0.0012679742973618717,-0.005220537468530785,0.0042735527550068365,-143.70526271573857,143.70926492284525,0,0.26320552825927734,2019-08-06 15:43:06:082
0.1810382902622223,0.08246081322431564,9.791808128356934,-0.003132642320523606,0.003037277746809501,0.0005442166761740764,-144.4104836997156,144.42595602552348,0,0.26619815826416016,2019-08-06 15:43:06:085
0.10440629720687866,0.09443455934524536,9.760676383972168,0.0005966937908184444,-0.002023963937460091,0.006404601775720633,-145.10958467915418,145.12622304261595,0,0.2700028419494629,2019-08-06 15:43:06:089
0.15709078311920166,0.16627705097198486,9.868440628051758,-0.002333498937755932,-0.006552443626625559,0.0016097412190402653,-145.78797090739627,145.80481351760778,0,0.27321648597717285,2019-08-06 15:43:06:092
0.1211695447564125,0.07048705965280533,9.875624656677246,-0.002333498937755932,-0.0022903450650493154,0.0021425034742187147,-146.4577688066764,146.48092917490766,0,0.2761986255645752,2019-08-06 15:43:06:095
0.11638004332780838,0.0848555639386177,9.801386833190918,-0.0036654045757020556,-0.003888631830584663,0.004539933882596061,-147.1141763994708,147.14217360845458,0,0.28000569343566895,2019-08-06 15:43:06:099
0.10919579863548279,0.07767131179571152,9.803781509399414,-0.0028662611929343817,-0.0030894884478169893,0.002941646856986388,-147.758574087236,147.7907674949869,0,0.28321051597595215,2019-08-06 15:43:06:102
0.07806405425071716,0.14232955873012543,9.830123901367188,-0.003132642320523606,-0.0054869185961200105,0.003474409372239163,-148.3933837397086,148.41888636292597,0,0.2861933708190918,2019-08-06 15:43:06:105
0.1475117951631546,0.08006606251001358,9.789413452148438,-0.003132642320523606,-0.0054869185961200105,0.0005442166761740764,-149.00707847059104,149.0418055230383,0,0.2899963855743408,2019-08-06 15:43:06:109
0.10680104792118073,0.09443455934524536,9.743913650512695,-0.0020671176801295454,-0.0017575828098708665,0.005605458392952959,-149.6140598738229,149.65023723148352,0,0.2932124137878418,2019-08-06 15:43:06:112
0.1618802845478058,0.0656975656747818,9.854071617126465,-0.0028662611929343817,-0.0012248205546924172,0.003208027984575613,-150.20275043914006,150.25007271056856,0,0.29619479179382324,2019-08-06 15:43:06:115
0.08285354822874069,0.08964505791664124,9.796597480773926,6.393147468507523e-05,-0.0033558695754062136,0.002941646856986388,-150.78828814862274,150.8345720556261,0,0.29999494552612305,2019-08-06 15:43:06:119
0.11398529261350632,0.09682931005954742,9.818150520324707,-0.0012679742973618717,-0.003888631830584663,0.004539933882596061,-151.35851683654914,151.40680870019233,0,0.30321216583251953,2019-08-06 15:43:06:122
0.1738540381193161,0.1375400573015213,9.851676940917969,-0.0018007365525403206,-0.00255672619263854,0.0008105978362725917,-151.91069683085308,151.96297793354046,0,0.30620479583740234,2019-08-06 15:43:06:125
0.14511704444885254,0.11359255760908127,9.813361167907715,-0.001534355424951096,-0.005220537468530785,0.003208027984575613,-152.45442884784043,152.5107808413703,0,0.30999088287353516,2019-08-06 15:43:06:129
0.16427503526210785,0.0920398086309433,9.882808685302734,-0.0020671176801295454,-0.0028231073202277645,0.0010769789638618162,-152.98578522977445,153.05026620643918,0,0.3132021427154541,2019-08-06 15:43:06:132
0.1283537894487381,0.14232955873012543,9.796597480773926,-0.004198166830880505,-0.004687775213352337,0.002408884601807939,-153.51027084808348,153.5733174672103,0,0.31618785858154297,2019-08-06 15:43:06:135
0.1546960473060608,0.1183820590376854,9.887598037719727,-0.0012679742973618717,-0.0033558695754062136,0.003474409372239163,-154.02142123188872,154.08840299172854,0,0.3199944496154785,2019-08-06 15:43:06:139
0.11638004332780838,0.08006606251001358,9.911545753479004,-0.004198166830880505,0.00010708522141819095,0.003474409372239163,-154.52755762138537,154.5981382597155,0,0.32321810722351074,2019-08-06 15:43:06:142
0.06848505139350891,0.125566303730011,9.803781509399414,-0.002333498937755932,-0.004421394085763112,0.0010769789638618162,-155.0282272784122,155.09190820244444,0,0.3263375759124756,2019-08-06 15:43:06:145
0.13314329087734222,0.08964505791664124,9.875624656677246,-0.0020671176801295454,-0.00015929593055300162,0.004539933882596061,-155.51218168674848,155.5800931609971,0,0.32999730110168457,2019-08-06 15:43:06:149
0.1475117951631546,0.0848555639386177,9.830123901367188,-0.00020244967322245603,0.00010708522141819095,1.1454389502251989e-05,-155.98476302183266,156.0586364493964,0,0.3332235813140869,2019-08-06 15:43:06:152
0.09722204506397247,0.13275055587291718,9.928308486938477,0.0013958372386046994,-0.0033558695754062136,0.002941646856986388,-156.4532838846495,156.5219085367794,0,0.3362112045288086,2019-08-06 15:43:06:155
0.10680104792118073,0.12317155301570892,9.803781509399414,-0.0004688308170663259,-0.005220537468530785,0.005871839520542184,-156.91062780501414,156.9771736636405,0,0.33998918533325195,2019-08-06 15:43:06:159
0.10440629720687866,0.0848555639386177,9.810966491699219,-0.0004688308170663259,-0.0030894884478169893,0.0026752657293971638,-157.35966279804654,157.4278040774498,0,0.34320759773254395,2019-08-06 15:43:06:162
0.15230129659175873,0.13993480801582336,9.861255645751953,0.00033031263071992917,-0.0006920582344953867,0.0016097412190402653,-157.79465711054527,157.86293283571234,0,0.3461887836456299,2019-08-06 15:43:06:165
0.16427503526210785,0.125566303730011,9.777440071105957,-0.0018007365525403206,-0.0054869185961200105,0.005605458392952959,-158.21834108221722,158.29134314918105,0,0.3499917984008789,2019-08-06 15:43:06:169
0.1211695447564125,0.11598730832338333,9.839703559875488,-0.003132642320523606,-0.0012248205546924172,-0.0007876890592999184,-158.63964265721762,158.71257474520564,0,0.3532068729400635,2019-08-06 15:43:06:172
0.037353307008743286,0.14711906015872955,9.818150520324707,-0.002333498937755932,-0.0022903450650493154,1.1454389502251989e-05,-159.06210650724316,159.12154457468634,0,0.35619020462036133,2019-08-06 15:43:06:175
0.09482730180025101,0.18543504178524017,9.803781509399414,-0.003132642320523606,-0.004954156340941561,0.00507269613777451,-159.46872093380563,159.51811188011712,0,0.3600003719329834,2019-08-06 15:43:06:179
0.030169056728482246,0.1111978068947792,9.842098236083984,-0.0033990234481128304,-0.003622250702995438,0.0008105978362725917,-159.87518182634193,159.91541536012656,0,0.3632066249847412,2019-08-06 15:43:06:182
0.14272229373455048,0.1111978068947792,9.806177139282227,-0.0007352119771648412,-0.00255672619263854,0.0037407904998283874,-160.26057226501553,160.30423680716328,0,0.3661954402923584,2019-08-06 15:43:06:185
0.1666697859764099,0.0920398086309433,9.803781509399414,-0.0010015931047540657,-0.00015929593055300162,0.005871839520542184,-160.63584754278168,160.68760774498224,0,0.36999058723449707,2019-08-06 15:43:06:189
0.18582779169082642,0.17825080454349518,9.803781509399414,-0.003132642320523606,-0.006019680851298459,-0.00025492675535753324,-161.0003129361257,161.05359534670563,0,0.3732442855834961,2019-08-06 15:43:06:192
0.11398529261350632,0.1447243094444275,9.79420280456543,0.00033031263071992917,-0.004687775213352337,0.0021425034742187147,-161.3661841735765,161.41553657164158,0,0.3762338161468506,2019-08-06 15:43:06:195
0.1355380415916443,0.07527656108140945,9.84449291229248,-0.002333498937755932,-0.002023963937460091,0.0010769789638618162,-161.72265704147878,161.77895667407128,0,0.37999629974365234,2019-08-06 15:43:06:199
0.10440629720687866,0.11598730832338333,9.866044998168945,-0.0010015931047540657,0.0009062286610771233,0.0021425034742187147,-162.0762409810588,162.13008685299783,0,0.38320255279541016,2019-08-06 15:43:06:202
0.11877479404211044,0.10161881148815155,9.784624099731445,-0.00020244967322245603,-0.00015929593055300162,0.0010769789638618162,-162.4207798987444,162.47561858348035,0,0.38619494438171387,2019-08-06 15:43:06:205
0.07327455282211304,0.06809231638908386,9.791808128356934,-0.0020671176801295454,-0.003888631830584663,0.002408884601807939,-162.76296042349927,162.81857824080456,0,0.38999104499816895,2019-08-06 15:43:06:209
0.07327455282211304,0.06330281496047974,9.899572372436523,-0.0028662611929343817,-0.0012248205546924172,0.0010769789638618162,-163.0989979726419,163.15539772773795,0,0.39321279525756836,2019-08-06 15:43:06:212
0.11159054934978485,0.125566303730011,9.92591381072998,-0.0007352119771648412,-0.004155012958173888,0.004539933882596061,-163.42343958894833,163.4779174983845,0,0.3961968421936035,2019-08-06 15:43:06:215
0.17145928740501404,0.16627705097198486,9.87322998046875,0.0005966937908184444,-0.003888631830584663,0.0008105978362725917,-163.7342444978898,163.78893528806594,0,0.3999900817871094,2019-08-06 15:43:06:219
0.1211695447564125,0.1375400573015213,9.894782066345215,-0.002333498937755932,0.0014389909812741537,0.0013433600914510408,-164.04578671608297,164.09764918320104,0,0.4031963348388672,2019-08-06 15:43:06:222
0.05890605226159096,0.1111978068947792,9.727149963378906,-0.0010015931047540657,-0.0030894884478169893,0.0005442166761740764,-164.35741318639413,164.4027650752775,0,0.40618467330932617,2019-08-06 15:43:06:225
0.10440629720687866,0.14711906015872955,9.899572372436523,0.000863074918407669,-0.002023963937460091,0.0002778355485848519,-164.65774612566446,164.69749641868017,0,0.4100017547607422,2019-08-06 15:43:06:229
0.1355380415916443,0.125566303730011,9.846887588500977,-0.0010015931047540657,-0.004155012958173888,0.0037407904998283874,-164.94806903568195,164.98911553411682,0,0.41321706771850586,2019-08-06 15:43:06:232
0.09003780037164688,0.1638823002576828,9.83491325378418,0.0005966937908184444,-0.003888631830584663,0.0013433600914510408,-165.23796636122674,165.2701403665455,0,0.4161977767944336,2019-08-06 15:43:06:235
0.08524829894304276,0.1638823002576828,9.818150520324707,-0.00020244967322245603,-0.004954156340941561,-0.0023859759548724283,-165.5221946031076,165.54565541654952,0,0.42001914978027344,2019-08-06 15:43:06:239
0.11877479404211044,0.10880305618047714,9.837308883666992,-0.0010015931047540657,-0.002023963937460091,-0.0029187382100508774,-165.7975499156737,165.82224973138904,0,0.42323780059814453,2019-08-06 15:43:06:242
0.18822254240512848,0.1303558051586151,9.882808685302734,-0.00020244967322245603,-0.004421394085763112,0.0002778355485848519,-166.05897351420134,166.09072759993342,0,0.42647457122802734,2019-08-06 15:43:06:246
0.08764304965734482,0.1375400573015213,9.758281707763672,-0.0010015931047540657,-0.003622250702995438,-0.00025492675535753324,-166.32677962358343,166.35296263406042,0,0.43002820014953613,2019-08-06 15:43:06:249
0.07806405425071716,0.14711906015872955,9.837308883666992,-0.004464548218544054,-0.00255672619263854,0.003208027984575613,-166.59069085151555,166.6095704038414,0,0.43323206901550293,2019-08-06 15:43:06:252
0.09961679577827454,0.12317155301570892,9.868440628051758,-0.0004688308170663259,-0.003888631830584663,0.002941646856986388,-166.84664314298112,166.86315755385058,0,0.43628621101379395,2019-08-06 15:43:06:255
0.0756693035364151,0.13275055587291718,9.957045555114746,-0.0007352119771648412,-0.0014912016822816417,0.0002778355485848519,-167.1006899962311,167.1107714072954,0,0.44001221656799316,2019-08-06 15:43:06:259
0.18343304097652435,0.0920398086309433,9.854071617126465,-0.003132642320523606,-0.0022903450650493154,0.0005442166761740764,-167.33693384854828,167.3584188905254,0,0.44322872161865234,2019-08-06 15:43:06:262
0.13793279230594635,0.07527656108140945,9.751097679138184,-0.004198166830880505,-0.0028231073202277645,1.1454389502251989e-05,-167.57351384095452,167.60310786382183,0,0.4462127685546875,2019-08-06 15:43:06:265
0.11877479404211044,0.09443455934524536,9.803781509399414,-0.0020671176801295454,-0.004155012958173888,0.0010769789638618162,-167.8072784935982,167.84044722701927,0,0.4499964714050293,2019-08-06 15:43:06:269
0.11398529261350632,0.1447243094444275,9.839703559875488,-0.0007352119771648412,-0.003622250702995438,-0.0005213078992014032,-168.03720395322196,168.06691809541047,0,0.4532170295715332,2019-08-06 15:43:06:272
0.06609030067920685,0.11359255760908127,9.79420280456543,-0.006062834984079402,-0.002023963937460091,0.0042735527550068365,-168.26838717975747,168.29330941258053,0,0.4562113285064697,2019-08-06 15:43:06:275
0.042142804712057114,0.18064555525779724,9.832518577575684,-0.0010015931047540657,-0.0014912016822816417,0.003208027984575613,-168.49778926978033,168.50660661730137,0,0.4600179195404053,2019-08-06 15:43:06:279
0.07806405425071716,0.10640830546617508,9.772649765014648,-0.0010015931047540657,-0.0033558695754062136,0.0008105978362725917,-168.71807709894244,168.7241777846713,0,0.46321797370910645,2019-08-06 15:43:06:282
0.1283537894487381,0.06809231638908386,9.923519134521484,-0.0018007365525403206,-0.005220537468530785,0.003474409372239163,-168.92799593307535,168.94214144837105,0,0.46628427505493164,2019-08-06 15:43:06:285
0.1403275430202484,0.1375400573015213,9.827729225158691,-0.0010015931047540657,-0.00255672619263854,-0.00025492675535753324,-169.13254102312004,169.1474716083159,0,0.4700031280517578,2019-08-06 15:43:06:289
0.1355380415916443,0.1638823002576828,9.866044998168945,-0.007394740622025524,-0.0028231073202277645,0.0008105978362725917,-169.3336393070784,169.34682396845818,0,0.473217248916626,2019-08-06 15:43:06:292
0.1020115464925766,0.09682931005954742,9.878019332885742,-0.002599880065345157,-0.0014912016822816417,0.0010769789638618162,-169.53488153365967,169.54909330816412,0,0.47621965408325195,2019-08-06 15:43:06:295
0.09722204506397247,0.13275055587291718,9.904361724853516,-0.00020244967322245603,-0.0017575828098708665,-0.00025492675535753324,-169.73256391334107,169.74279622109148,0,0.47998857498168945,2019-08-06 15:43:06:299
0.11877479404211044,0.1447243094444275,9.791808128356934,-0.0012679742973618717,-0.006818824754214785,0.0021425034742187147,-169.92278181889378,169.93123373943257,0,0.48320508003234863,2019-08-06 15:43:06:302
0.10680104792118073,0.13275055587291718,9.849282264709473,0.0005966937908184444,-0.0054869185961200105,-0.0005213078992014032,-170.11098234618865,170.1170652345141,0,0.48618650436401367,2019-08-06 15:43:06:305
0.05411655455827713,0.08964505791664124,9.86365032196045,0.0005966937908184444,-0.002023963937460091,0.0037407904998283874,-170.3020431645406,170.30418211820802,0,0.4899928569793701,2019-08-06 15:43:06:309
0.08285354822874069,0.14711906015872955,9.83491325378418,-0.0020671176801295454,-0.003622250702995438,0.0002778355485848519,-170.4856956597328,170.48133092028328,0,0.49320435523986816,2019-08-06 15:43:06:312
0.07087980210781097,0.08006606251001358,9.849282264709473,0.0021949807514095357,-0.004687775213352337,0.0016097412190402653,-170.66694872518104,170.66202087841208,0,0.49619293212890625,2019-08-06 15:43:06:315
0.07806405425071716,0.07048705965280533,9.904361724853516,0.00033031263071992917,-0.003888631830584663,0.0008105978362725917,-170.84374843204395,170.84055490873308,0,0.49999260902404785,2019-08-06 15:43:06:319
0.03256380558013916,0.10640830546617508,9.832518577575684,0.0016622183661939237,-0.0054869185961200105,0.0010769789638618162,-171.02208189793188,171.011041228063,0,0.5032269954681396,2019-08-06 15:43:06:322
0.10440629720687866,0.11598730832338333,9.83491325378418,-0.004730929346133278,-0.002023963937460091,0.0008105978362725917,-171.18913741872774,171.1780977361496,0,0.5062046051025391,2019-08-06 15:43:06:325
0.08045879751443863,0.12796105444431305,9.870835304260254,0.0005966937908184444,-0.003622250702995438,-0.00025492675535753324,-171.35524316796364,171.33955444707718,0,0.5099961757659912,2019-08-06 15:43:06:329
0.11877479404211044,0.08246081322431564,9.746308326721191,-0.0036654045757020556,-0.004954156340941561,0.0021425034742187147,-171.51326127213636,171.5037437064689,0,0.5132777690887451,2019-08-06 15:43:06:332
0.04453755542635918,0.14232955873012543,9.904361724853516,0.0005966937908184444,-0.006552443626625559,0.0018761223466294901,-171.6767446709243,171.6571026754674,0,0.516263484954834,2019-08-06 15:43:06:335
0.09961679577827454,0.13993480801582336,9.818150520324707,-0.0018007365525403206,-0.00255672619263854,0.0013433600914510408,-171.83104801546813,171.80800652735283,0,0.5199935436248779,2019-08-06 15:43:06:339
0.09722204506397247,0.08006606251001358,9.870835304260254,-0.0012679742973618717,-0.002023963937460091,0.0016097412190402653,-171.98277554152884,171.96278048217223,0,0.5232076644897461,2019-08-06 15:43:06:342
0.09003780037164688,0.1111978068947792,9.818150520324707,6.393147468507523e-05,-0.006286061978887684,0.0026752657293971638,-172.1315546972411,172.1105363372865,0,0.5262022018432617,2019-08-06 15:43:06:345
0.1211695447564125,0.13514530658721924,9.770255088806152,-0.0036654045757020556,-0.0028231073202277645,0.0002778355485848519,-172.27411081122045,172.2532575752574,0,0.5299999713897705,2019-08-06 15:43:06:349
0.08045879751443863,0.21417205035686493,9.86365032196045,-0.00020244967322245603,-0.0030894884478169893,0.002941646856986388,-172.41872355402478,172.38335132265064,0,0.5332159996032715,2019-08-06 15:43:06:352
0.08764304965734482,0.0848555639386177,9.820545196533203,-0.0010015931047540657,-0.0028231073202277645,0.0002778355485848519,-172.5596510540331,172.52595045019763,0,0.5361912250518799,2019-08-06 15:43:06:355
0.10919579863548279,0.12796105444431305,9.851676940917969,6.393147468507523e-05,-0.004155012958173888,0.0018761223466294901,-172.69486437225478,172.66053451875896,0,0.5400183200836182,2019-08-06 15:43:06:359
0.1283537894487381,0.10640830546617508,9.849282264709473,-0.0020671176801295454,-0.004954156340941561,0.0042735527550068365,-172.825143227919,172.79531614978697,0,0.5432226657867432,2019-08-06 15:43:06:362
0.07087980210781097,0.10880305618047714,9.820545196533203,-0.0020671176801295454,-0.004954156340941561,0.004539933882596061,-172.95953718476477,172.92706203589066,0,0.5462160110473633,2019-08-06 15:43:06:365
0.1020115464925766,0.08006606251001358,9.837308883666992,0.00033031263071992917,-0.00255672619263854,0.0008105978362725917,-173.08792082835723,173.0591242114962,0,0.5499987602233887,2019-08-06 15:43:06:369
0.11159054934978485,0.1111978068947792,9.937888145446777,-0.0020671176801295454,-0.0028231073202277645,0.0010769789638618162,-173.21278514529882,173.18549412527602,0,0.5532195568084717,2019-08-06 15:43:06:372
0.13314329087734222,0.1375400573015213,9.851676940917969,0.0011294561110154748,-0.0006920582344953867,0.006404601775720633,-173.3329275147266,173.30559763583452,0,0.556206464767456,2019-08-06 15:43:06:375
0.12595903873443604,0.10161881148815155,9.796597480773926,-0.0010015931047540657,-0.003622250702995438,0.0005442166761740764,-173.45076271055817,173.42781357072522,0,0.5600097179412842,2019-08-06 15:43:06:379
0.11638004332780838,0.12077680975198746,9.866044998168945,-0.004464548218544054,-0.002023963937460091,0.003474409372239163,-173.56786673780795,173.5460332440766,0,0.563213586807251,2019-08-06 15:43:06:382
0.12356429547071457,0.16148754954338074,9.866044998168945,-0.0007352119771648412,-0.0028231073202277645,0.0010769789638618162,-173.6816855334079,173.65648106093892,0,0.5661971569061279,2019-08-06 15:43:06:385
0.1020115464925766,0.125566303730011,9.868440628051758,-0.002599880065345157,-0.0054869185961200105,0.005339077265363735,-173.79503669001642,173.76932597521179,0,0.5699949264526367,2019-08-06 15:43:06:389
0.11159054934978485,0.04414481669664383,9.90196704864502,0.0019285994937831485,-0.003622250702995438,0.002408884601807939,-173.90556865832164,173.8884826216888,0,0.5732100009918213,2019-08-06 15:43:06:392
0.0756693035364151,0.1111978068947792,9.83491325378418,-0.0010015931047540657,-0.0017575828098708665,0.002941646856986388,-174.01834630825678,173.99792514880417,0,0.5761945247650146,2019-08-06 15:43:06:395
0.14990654587745667,0.13275055587291718,9.8229398727417,-0.0012679742973618717,-0.0014912016822816417,0.0002778355485848519,-174.1201745487593,174.10275214137843,0,0.5799987316131592,2019-08-06 15:43:06:399
0.11398529261350632,0.13993480801582336,9.818150520324707,-0.00020244967322245603,-0.004954156340941561,0.002408884601807939,-174.22357501509236,174.20440234407872,0,0.5832087993621826,2019-08-06 15:43:06:402
0.1666697859764099,0.09922406077384949,9.827729225158691,-0.00393178570329128,-0.00255672619263854,0.0016097412190402653,-174.31924331967377,174.30940382143106,0,0.5861923694610596,2019-08-06 15:43:06:405
0.12356429547071457,0.09443455934524536,9.758281707763672,0.0005966937908184444,-0.004954156340941561,0.0042735527550068365,-174.41729116188787,174.41199921809857,0,0.5899953842163086,2019-08-06 15:43:06:409
0.14272229373455048,0.125566303730011,9.854071617126465,-0.0020671176801295454,-0.00042567707439687154,0.0021425034742187147,-174.51227261787858,174.50953160254502,0,0.5932133197784424,2019-08-06 15:43:06:412
0.1618802845478058,0.03696056827902794,9.880414009094238,-0.002333498937755932,-0.004155012958173888,0.002941646856986388,-174.60255574377163,174.61544662672267,0,0.5962071418762207,2019-08-06 15:43:06:415
0.10919579863548279,0.12317155301570892,9.861255645751953,0.0024613618789987605,-0.0022903450650493154,0.002408884601807939,-174.69732795946223,174.7083007597486,0,0.6000034809112549,2019-08-06 15:43:06:419
0.11638004332780838,0.1183820590376854,9.849282264709473,-0.0036654045757020556,-0.0033558695754062136,0.003474409372239163,-174.78923668136167,174.80102315263426,0,0.6032147407531738,2019-08-06 15:43:06:422
0.11638004332780838,0.05851331353187561,9.779834747314453,6.393147468507523e-05,-0.004155012958173888,0.0008105978362725917,-174.87902272020924,174.89813448366877,0,0.6066157817840576,2019-08-06 15:43:06:426
0.17864353954792023,0.11359255760908127,9.803781509399414,-0.002599880065345157,-0.0028231073202277645,0.0021425034742187147,-174.96002299172955,174.98739317528765,0,0.610027551651001,2019-08-06 15:43:06:429
0.1355380415916443,0.09922406077384949,9.889992713928223,-0.001534355424951096,-0.004155012958173888,0.0016097412190402653,-175.04437015437085,175.07642560678454,0,0.6132383346557617,2019-08-06 15:43:06:432
0.1403275430202484,0.07288181036710739,9.820545196533203,-0.0033990234481128304,-0.0014912016822816417,0.0037407904998283874,-175.12685947493702,175.16696329054034,0,0.6162264347076416,2019-08-06 15:43:06:435
0.15709078311920166,0.12077680975198746,9.772649765014648,0.0013958372386046994,-0.0030894884478169893,0.0037407904998283874,-175.20525132589228,175.24916797465394,0,0.6199877262115479,2019-08-06 15:43:06:439
0.1475117951631546,0.1375400573015213,9.837308883666992,0.0011294561110154748,-0.0054869185961200105,0.0042735527550068365,-175.28297264557136,175.32795991920278,0,0.6232068538665771,2019-08-06 15:43:06:442
0.1355380415916443,0.14711906015872955,9.88520336151123,-0.0010015931047540657,-0.00255672619263854,0.0018761223466294901,-175.3611725361633,175.40451595588544,0,0.6262004375457764,2019-08-06 15:43:06:445
0.04453755542635918,0.10640830546617508,9.937888145446777,6.393147468507523e-05,-0.0022903450650493154,0.0018761223466294901,-175.44832562056507,175.48414278157603,0,0.6299948692321777,2019-08-06 15:43:06:449
0.1738540381193161,0.12077680975198746,9.88520336151123,-0.002333498937755932,-0.0014912016822816417,0.0016097412190402653,-175.51893900256192,175.5608802472856,0,0.6332030296325684,2019-08-06 15:43:06:452
0.1546960473060608,0.1111978068947792,9.882808685302734,-0.0004688308170663259,-0.004155012958173888,-0.00025492675535753324,-175.58992976580774,175.63684816031395,0,0.6361813545227051,2019-08-06 15:43:06:455
0.10680104792118073,0.07048705965280533,9.767860412597656,-0.0012679742973618717,-0.0028231073202277645,-0.00025492675535753324,-175.66499421912332,175.71611527924898,0,0.6400175094604492,2019-08-06 15:43:06:459
0.03974805399775505,0.12317155301570892,9.837308883666992,-0.0007352119771648412,-0.0030894884478169893,0.006138220648131409,-175.74650737609707,175.78757839454602,0,0.6432275772094727,2019-08-06 15:43:06:462
0.1403275430202484,0.1375400573015213,9.899572372436523,-0.0010015931047540657,-0.0028231073202277645,0.0026752657293971638,-175.81485924264527,175.85607576487598,0,0.6462278366088867,2019-08-06 15:43:06:465
0.13074854016304016,0.12317155301570892,9.787018775939941,-0.0004688308170663259,-0.0022903450650493154,-0.00025492675535753324,-175.88276982530633,175.92463259774632,0,0.6499946117401123,2019-08-06 15:43:06:469
0.07806405425071716,0.10640830546617508,9.777440071105957,-0.005530072728900952,-0.003888631830584663,0.0018761223466294901,-175.9552095881228,175.9947444079958,0,0.6534566879272461,2019-08-06 15:43:06:473
0.15709078311920166,0.15430329740047455,9.854071617126465,-0.0028662611929343817,-0.0054869185961200105,0.003208027984575613,-176.01705892771298,176.05731482096792,0,0.6559889316558838,2019-08-06 15:43:06:475
0.1355380415916443,0.16148754954338074,9.889992713928223,0.0024613618789987605,-0.0017575828098708665,0.0021425034742187147,-176.0806504636883,176.11694949618516,0,0.659677267074585,2019-08-06 15:43:06:479
0.1475117951631546,0.08725030720233917,9.906756401062012,-0.00393178570329128,-0.0006920582344953867,0.0018761223466294901,-176.14183816036692,176.18530167807103,0,0.6632246971130371,2019-08-06 15:43:06:482
0.09722204506397247,0.11598730832338333,9.78222942352295,-0.0018007365525403206,-0.0030894884478169893,0.0008105978362725917,-176.20709357959439,176.2483119373457,0,0.6662185192108154,2019-08-06 15:43:06:485
0.10440629720687866,0.10880305618047714,9.894782066345215,-0.0028662611929343817,-0.004421394085763112,-0.0010540701868891429,-176.2699244690238,176.31135274605512,0,0.6699903011322021,2019-08-06 15:43:06:489
0.13074854016304016,0.10161881148815155,9.868440628051758,0.0013958372386046994,-0.004687775213352337,-0.0010540701868891429,-176.32849780809497,176.37307411441327,0,0.6732068061828613,2019-08-06 15:43:06:492
0.1403275430202484,0.14232955873012543,9.83491325378418,-0.00393178570329128,-0.002023963937460091,-0.00025492675535753324,-176.38523926712645,176.42968961617726,0,0.6761934757232666,2019-08-06 15:43:06:495
0.1618802845478058,0.1183820590376854,9.887598037719727,0.00033031263071992917,-0.0022903450650493154,0.0021425034742187147,-176.4382867328041,176.48730623974797,0,0.6799914836883545,2019-08-06 15:43:06:499
0.1738540381193161,0.10161881148815155,9.875624656677246,-0.001534355424951096,-0.0012248205546924172,0.003474409372239163,-176.48912886077335,176.54604620923666,0,0.6832065582275391,2019-08-06 15:43:06:502
0.11159054934978485,0.08725030720233917,9.758281707763672,-0.0033990234481128304,-0.0054869185961200105,0.0026752657293971638,-176.5453235626858,176.6054491777932,0,0.686190128326416,2019-08-06 15:43:06:505
0.05890605226159096,0.12317155301570892,9.858860969543457,-0.00020244967322245603,-0.003622250702995438,0.0013433600914510408,-176.60679569866,176.6590677559262,0,0.6899991035461426,2019-08-06 15:43:06:509
0.11877479404211044,0.07767131179571152,9.86365032196045,0.000863074918407669,-0.00255672619263854,0.003208027984575613,-176.66040036727466,176.7167073371679,0,0.6932127475738525,2019-08-06 15:43:06:512
0.10440629720687866,0.08964505791664124,9.868440628051758,-0.0004688308170663259,-0.004687775213352337,0.0008105978362725917,-176.71428447047603,176.77204244824208,0,0.6961941719055176,2019-08-06 15:43:06:515
0.08285354822874069,0.12317155301570892,9.935493469238281,-0.00020244967322245603,-0.004954156340941561,0.0026752657293971638,-176.7693811593922,176.8224396618028,0,0.7000114917755127,2019-08-06 15:43:06:519
0.10680104792118073,0.10401355475187302,9.777440071105957,-0.0028662611929343817,0.0009062286610771233,0.0016097412190402653,-176.82163958268737,176.87431530885752,0,0.7032074928283691,2019-08-06 15:43:06:522
0.08285354822874069,0.12317155301570892,9.866044998168945,-0.0033990234481128304,-0.00255672619263854,0.002941646856986388,-176.87515619003364,176.92309216159907,0,0.706186056137085,2019-08-06 15:43:06:525
0.07806405425071716,0.16627705097198486,9.882808685302734,-0.0028662611929343817,-0.0014912016822816417,0.002941646856986388,-176.92828318718844,176.96596445856702,0,0.7099900245666504,2019-08-06 15:43:06:529
0.16427503526210785,0.08725030720233917,9.839703559875488,-0.0033990234481128304,-0.003622250702995438,0.0016097412190402653,-176.9699343854478,177.01709783941567,0,0.7132041454315186,2019-08-06 15:43:06:532
0.11877479404211044,0.06330281496047974,9.777440071105957,-0.0020671176801295454,-0.004687775213352337,-0.00025492675535753324,-177.01583046380682,177.06968328003023,0,0.7161884307861328,2019-08-06 15:43:06:535
0.1546960473060608,0.08246081322431564,9.739123344421387,-0.0012679742973618717,-0.004954156340941561,0.003208027984575613,-177.0562514022717,177.11885930144527,0,0.7200071811676025,2019-08-06 15:43:06:539
0.07087980210781097,0.09682931005954742,9.933098793029785,-0.0036654045757020556,-0.0009584393620846114,0.0021425034742187147,-177.10677745625392,177.16597018123613,0,0.72320556640625,2019-08-06 15:43:06:542
0.1546960473060608,0.15430329740047455,9.779834747314453,-0.001534355424951096,-0.0006920582344953867,0.0010769789638618162,-177.14640153036586,177.2048294525033,0,0.7261896133422852,2019-08-06 15:43:06:545
0.1355380415916443,0.10161881148815155,9.868440628051758,-0.0004688308170663259,-0.003622250702995438,0.002408884601807939,-177.1869633485367,177.24903337806248,0,0.7299880981445312,2019-08-06 15:43:06:549
0.15230129659175873,0.10161881148815155,9.849282264709473,0.000863074918407669,-0.006019680851298459,1.1454389502251989e-05,-177.22441871324904,177.29207439229975,0,0.7332048416137695,2019-08-06 15:43:06:552
0.11638004332780838,0.1183820590376854,9.815755844116211,-0.0020671176801295454,-0.005220537468530785,0.0021425034742187147,-177.26546766406892,177.33276054405698,0,0.7361960411071777,2019-08-06 15:43:06:555
0.0756693035364151,0.12077680975198746,9.796597480773926,-0.0020671176801295454,-0.0009584393620846114,0.0037407904998283874,-177.31110121180956,177.3724233670751,0,0.7400271892547607,2019-08-06 15:43:06:559
0.14990654587745667,0.09922406077384949,9.825334548950195,0.0016622183661939237,-0.004687775213352337,-0.0018532135696568165,-177.34655370332143,177.41310385171946,0,0.7432315349578857,2019-08-06 15:43:06:562
0.09961679577827454,0.1638823002576828,9.810966491699219,0.00033031263071992917,-0.0012248205546924172,0.004539933882596061,-177.3877537428201,177.4456390582736,0,0.7466354370117188,2019-08-06 15:43:06:566
0.03256380558013916,0.04653956741094589,9.791808128356934,-0.002333498937755932,0.0022381343640418276,-0.0005213078992014032,-177.43661204143103,177.4917221985247,0,0.7500112056732178,2019-08-06 15:43:06:569
0.13074854016304016,0.13275055587291718,9.889992713928223,-0.0007352119771648412,-0.0022903450650493154,0.003474409372239163,-177.4723187420202,177.5266398288375,0,0.7532196044921875,2019-08-06 15:43:06:572
0.10919579863548279,0.125566303730011,9.715176582336426,-0.00020244967322245603,-0.00255672619263854,-0.0015868324420675922,-177.50955424985065,177.5613319287463,0,0.7562768459320068,2019-08-06 15:43:06:575
0.11638004332780838,0.14951379597187042,9.866044998168945,-0.0004688308170663259,-0.004421394085763112,0.0013433600914510408,-177.54492602873012,177.59283858824344,0,0.7599847316741943,2019-08-06 15:43:06:579
0.05172180384397507,0.1447243094444275,9.866044998168945,-0.002333498937755932,-0.002023963937460091,-0.0007876890592999184,-177.58765458757676,177.6245952064103,0,0.7632019519805908,2019-08-06 15:43:06:582
0.08764304965734482,0.06090806424617767,9.861255645751953,0.000863074918407669,-0.0033558695754062136,0.0018761223466294901,-177.62515367010892,177.6648806843298,0,0.766193151473999,2019-08-06 15:43:06:585
0.07087980210781097,0.12077680975198746,9.88520336151123,-0.004730929346133278,-0.0030894884478169893,0.0021425034742187147,-177.66377450307738,177.69859321414674,0,0.769995927810669,2019-08-06 15:43:06:589
0.14990654587745667,0.09443455934524536,9.849282264709473,0.0019285994937831485,-0.004421394085763112,0.002941646856986388,-177.69226076032254,177.7332862948949,0,0.7732131481170654,2019-08-06 15:43:06:592
0.1211695447564125,0.12317155301570892,9.837308883666992,-0.001534355424951096,-0.0030894884478169893,0.0026752657293971638,-177.7237872309536,177.76452893610727,0,0.7761783599853516,2019-08-06 15:43:06:595
0.12595903873443604,0.18543504178524017,9.87322998046875,0.0011294561110154748,-0.0033558695754062136,0.0010769789638618162,-177.75397349126874,177.78747656519155,0,0.7799973487854004,2019-08-06 15:43:06:599
0.15230129659175873,0.07767131179571152,9.851676940917969,-0.001534355424951096,-0.0033558695754062136,0.0002778355485848519,-177.7805737815659,177.82297002081998,0,0.7832157611846924,2019-08-06 15:43:06:602
0.1475117951631546,0.1375400573015213,9.861255645751953,-0.0028662611929343817,-0.0028231073202277645,0.0010769789638618162,-177.8073462930502,177.85101210728413,0,0.7862176895141602,2019-08-06 15:43:06:605
0.09003780037164688,0.16148754954338074,9.815755844116211,-0.001534355424951096,-0.004155012958173888,1.1454389502251989e-05,-177.83980573153434,177.87546707023589,0,0.7900011539459229,2019-08-06 15:43:06:609
0.14272229373455048,0.09922406077384949,9.849282264709473,0.00033031263071992917,-0.0022903450650493154,0.0037407904998283874,-177.86597259013348,177.90635141857473,0,0.7933692932128906,2019-08-06 15:43:06:612
0.08285354822874069,0.0848555639386177,9.899572372436523,0.0005966937908184444,-0.005220537468530785,0.002941646856986388,-177.89829703312063,177.93831473862076,0,0.7959814071655273,2019-08-06 15:43:06:615
0.1666697859764099,0.08006606251001358,9.837308883666992,-0.0007352119771648412,-0.003622250702995438,0.00507269613777451,-177.92016792254373,177.97037429075442,0,0.7996699810028076,2019-08-06 15:43:06:619
0.08524829894304276,0.11359255760908127,9.813361167907715,0.00033031263071992917,-0.0012248205546924172,0.0026752657293971638,-177.95156650005833,177.99763733989542,0,0.8032147884368896,2019-08-06 15:43:06:622
0.07806405425071716,0.09682931005954742,9.887598037719727,-0.0018007365525403206,-0.0017575828098708665,0.0002778355485848519,-177.9831923299265,178.02676611169815,0,0.8062126636505127,2019-08-06 15:43:06:625
0.06609030067920685,0.1183820590376854,9.878019332885742,-0.0020671176801295454,-0.00255672619263854,0.0016097412190402653,-178.0153174368538,178.052938370988,0,0.8100037574768066,2019-08-06 15:43:06:629
0.1211695447564125,0.15190854668617249,9.897176742553711,-0.0007352119771648412,-0.006286061978887684,-0.0005213078992014032,-178.03984991887836,178.07442516782956,0,0.8132126331329346,2019-08-06 15:43:06:632
0.1283537894487381,0.17825080454349518,9.827729225158691,0.0005966937908184444,-0.004687775213352337,0.002941646856986388,-178.0633063758562,178.0920554053581,0,0.816180944442749,2019-08-06 15:43:06:635
0.01819530874490738,0.11598730832338333,9.808571815490723,-0.0036654045757020556,-0.004421394085763112,0.0002778355485848519,-178.09896831902495,178.11744878973857,0,0.8199923038482666,2019-08-06 15:43:06:639
0.1283537894487381,0.08725030720233917,9.846887588500977,-0.003132642320523606,-0.0030894884478169893,0.0037407904998283874,-178.12149427406158,178.14551282863607,0,0.8232121467590332,2019-08-06 15:43:06:642
0.08285354822874069,0.0848555639386177,9.770255088806152,-0.0028662611929343817,-0.004155012958173888,0.0008105978362725917,-178.14864996962757,178.17313130698568,0,0.826200008392334,2019-08-06 15:43:06:645
0.1020115464925766,0.08964505791664124,9.849282264709473,-0.0010015931047540657,-0.003622250702995438,0.0008105978362725917,-178.17303608891598,178.19945288470177,0,0.8299994468688965,2019-08-06 15:43:06:649
0.09482730180025101,0.09443455934524536,9.87322998046875,-0.0020671176801295454,-0.003888631830584663,0.0016097412190402653,-178.19786886905428,178.22487640084125,0,0.8332095146179199,2019-08-06 15:43:06:652
0.09722204506397247,0.0920398086309433,9.84449291229248,-0.0018007365525403206,-0.004687775213352337,0.0037407904998283874,-178.22181116364368,178.24996671353784,0,0.8361876010894775,2019-08-06 15:43:06:655
0.1283537894487381,0.1303558051586151,9.916335105895996,-0.003132642320523606,-0.004155012958173888,0.0013433600914510408,-178.24163696647918,178.2705879505038,0,0.8400728702545166,2019-08-06 15:43:06:659
0.1618802845478058,0.10401355475187302,9.887598037719727,0.0013958372386046994,-0.004954156340941561,0.004539933882596061,-178.25716607709415,178.2928744526675,0,0.8432321548461914,2019-08-06 15:43:06:662
0.07087980210781097,0.13993480801582336,9.820545196533203,-0.0049973104737225035,-0.002023963937460091,0.0005442166761740764,-178.2834055418356,178.3115457508208,0,0.846282958984375,2019-08-06 15:43:06:665
0.11877479404211044,0.1638823002576828,9.815755844116211,-0.0018007365525403206,-0.0022903450650493154,0.003474409372239163,-178.3033949558661,178.32655968984767,0,0.8499927520751953,2019-08-06 15:43:06:669
0.07327455282211304,0.07767131179571152,9.911545753479004,-0.0020671176801295454,-0.002023963937460091,0.0042735527550068365,-178.32849093038172,178.35142124871473,0,0.8532018661499023,2019-08-06 15:43:06:672
0.08285354822874069,0.13993480801582336,9.887598037719727,-0.0007352119771648412,-0.0033558695754062136,0.005339077265363735,-178.3517582369128,178.36829914176803,0,0.8561782836914062,2019-08-06 15:43:06:675
0.0756693035364151,0.10161881148815155,9.882808685302734,-0.0004688308170663259,-0.0028231073202277645,0.0013433600914510408,-178.37534523002392,178.38925115957383,0,0.8599894046783447,2019-08-06 15:43:06:679
0.08045879751443863,0.15190854668617249,9.870835304260254,-0.0028662611929343817,-0.005220537468530785,0.0037407904998283874,-178.39755526407114,178.40434989457546,0,0.8632054328918457,2019-08-06 15:43:06:682
0.11398529261350632,0.10161881148815155,9.878019332885742,-0.0018007365525403206,-0.0028231073202277645,0.0037407904998283874,-178.41591045148846,178.42477544541381,0,0.8661782741546631,2019-08-06 15:43:06:685
0.14990654587745667,0.10401355475187302,9.787018775939941,-0.0004688308170663259,-0.004954156340941561,0.00507269613777451,-178.42898048185458,178.44420237503545,0,0.8699934482574463,2019-08-06 15:43:06:689
0.12356429547071457,0.10401355475187302,9.897176742553711,-0.0004688308170663259,-0.004421394085763112,0.0021425034742187147,-178.44529803384262,178.46336038331182,0,0.8732039928436279,2019-08-06 15:43:06:692
0.10919579863548279,0.0920398086309433,9.832518577575684,-0.002599880065345157,-0.0030894884478169893,0.0021425034742187147,-178.46314859659762,178.4838027160324,0,0.8761897087097168,2019-08-06 15:43:06:695
0.09722204506397247,0.11598730832338333,9.763071060180664,0.0024613618789987605,-0.005220537468530785,0.0013433600914510408,-178.48135820781548,178.4999871344616,0,0.8799989223480225,2019-08-06 15:43:06:699
0.10919579863548279,0.08964505791664124,9.98338794708252,-0.0018007365525403206,-0.0014912016822816417,0.0042735527550068365,-178.49892800596785,178.52002381109335,0,0.8832211494445801,2019-08-06 15:43:06:702
0.10919579863548279,0.12796105444431305,9.815755844116211,0.002727743006587985,-0.0033558695754062136,0.002941646856986388,-178.51562628308756,178.5342175829949,0,0.886277437210083,2019-08-06 15:43:06:705
0.14272229373455048,0.1183820590376854,9.897176742553711,-0.0012679742973618717,-0.0017575828098708665,0.002408884601807939,-178.52842236706786,178.5500927460543,0,0.8900048732757568,2019-08-06 15:43:06:709
0.15230129659175873,0.11359255760908127,9.851676940917969,0.0005966937908184444,-0.0022903450650493154,0.005605458392952959,-178.53972841137363,178.5657714897688,0,0.8932063579559326,2019-08-06 15:43:06:712
0.13793279230594635,0.15430329740047455,9.880414009094238,-0.004198166830880505,-0.0033558695754062136,0.0008105978362725917,-178.55237486099702,178.577265686916,0,0.8961930274963379,2019-08-06 15:43:06:715
0.11159054934978485,0.05611856281757355,9.861255645751953,-0.003132642320523606,-0.003888631830584663,0.0026752657293971638,-178.56753086797482,178.59986773137047,0,0.8999934196472168,2019-08-06 15:43:06:719
0.15709078311920166,0.08246081322431564,9.878019332885742,-0.0036654045757020556,-0.003888631830584663,0.003474409372239163,-178.57725637363666,178.61896615270444,0,0.9032077789306641,2019-08-06 15:43:06:722
0.13314329087734222,0.1303558051586151,9.882808685302734,-0.0018007365525403206,-0.0030894884478169893,0.003208027984575613,-178.58975654837255,178.63177459496083,0,0.9061915874481201,2019-08-06 15:43:06:725
0.14511704444885254,0.13993480801582336,9.815755844116211,-0.0020671176801295454,-0.004687775213352337,0.003474409372239163,-178.60002212741472,178.6432444816389,0,0.9099876880645752,2019-08-06 15:43:06:729
0.14272229373455048,0.15430329740047455,9.820545196533203,0.0019285994937831485,-0.003622250702995438,0.0021425034742187147,-178.61071565871066,178.65202812870973,0,0.913201093673706,2019-08-06 15:43:06:732
0.1403275430202484,0.1303558051586151,9.921124458312988,-0.003132642320523606,-0.0028231073202277645,0.0002778355485848519,-178.62182313636416,178.6644547465322,0,0.916172981262207,2019-08-06 15:43:06:735
0.09961679577827454,0.1303558051586151,9.88520336151123,0.00033031263071992917,-0.0009584393620846114,0.003208027984575613,-178.63763361652718,178.67598451099883,0,0.9199941158294678,2019-08-06 15:43:06:739
0.11398529261350632,0.1111978068947792,9.803781509399414,-0.002599880065345157,-0.006019680851298459,0.0037407904998283874,-178.6504697237492,178.68993819702996,0,0.9232149124145508,2019-08-06 15:43:06:742
0.12356429547071457,0.07288181036710739,9.741518020629883,-0.003132642320523606,-0.0012248205546924172,0.007203745158488308,-178.66271988408272,178.70809345877177,0,0.9262115955352783,2019-08-06 15:43:06:745
0.1355380415916443,0.10401355475187302,9.878019332885742,-0.003132642320523606,-0.0017575828098708665,0.004007171627417612,-178.67336961618844,178.72253157034189,0,0.9299967288970947,2019-08-06 15:43:06:749
0.1475117951631546,0.0920398086309433,9.808571815490723,0.002727743006587985,-0.004155012958173888,-0.00025492675535753324,-178.6819205425161,178.73683640314624,0,0.9332091808319092,2019-08-06 15:43:06:752
0.11159054934978485,0.08964505791664124,9.798992156982422,-0.0028662611929343817,-0.00015929593055300162,0.0002778355485848519,-178.69520571372593,178.75210859610803,0,0.9362657070159912,2019-08-06 15:43:06:755
0.11159054934978485,0.125566303730011,9.894782066345215,-0.0007352119771648412,-0.005220537468530785,0.0018761223466294901,-178.70728571411388,178.76267930503315,0,0.9399948120117188,2019-08-06 15:43:06:759
0.15230129659175873,0.1375400573015213,9.818150520324707,-0.0004688308170663259,-0.0022903450650493154,0.0016097412190402653,-178.71495208154022,178.77145859288237,0,0.9432113170623779,2019-08-06 15:43:06:762
0.1211695447564125,0.08725030720233917,9.88520336151123,-0.0020671176801295454,0.0009062286610771233,0.0021425034742187147,-178.72675980524897,178.7862628593876,0,0.946204662322998,2019-08-06 15:43:06:765
0.1403275430202484,0.1111978068947792,9.861255645751953,0.00033031263071992917,-0.005753299723709235,-0.0013204513144783674,-178.73469433444896,178.79754622186212,0,0.9499959945678711,2019-08-06 15:43:06:769
0.10680104792118073,0.0656975656747818,9.789413452148438,-0.004464548218544054,-0.0028231073202277645,0.0026752657293971638,-178.74698968161425,178.81471080625144,0,0.9532101154327393,2019-08-06 15:43:06:772
0.15709078311920166,0.09922406077384949,9.911545753479004,-0.0010015931047540657,-0.0022903450650493154,0.0010769789638618162,-178.75350477421392,178.82711349777495,0,0.9562015533447266,2019-08-06 15:43:06:775
0.20259103178977966,0.13514530658721924,9.820545196533203,0.00033031263071992917,-0.0033558695754062136,0.0026752657293971638,-178.75408359701953,178.83473234513784,0,0.9599959850311279,2019-08-06 15:43:06:779
0.1810382902622223,0.1375400573015213,9.90196704864502,-0.0004688308170663259,-0.0033558695754062136,-0.0023859759548724283,-178.7574487581252,178.84220622640763,0,0.9632048606872559,2019-08-06 15:43:06:782
0.1283537894487381,0.07048705965280533,9.842098236083984,-0.00020244967322245603,-0.0012248205546924172,0.0010769789638618162,-178.76715160012378,178.85718928392095,0,0.9661827087402344,2019-08-06 15:43:06:785
0.08045879751443863,0.14951379597187042,9.760676383972168,-0.00020244967322245603,-0.006019680851298459,-0.0018532135696568165,-178.78107214549692,178.86253717169288,0,0.970001220703125,2019-08-06 15:43:06:789
0.15709078311920166,0.10640830546617508,9.897176742553711,-0.0020671176801295454,-0.004421394085763112,-0.0005213078992014032,-178.7864667636669,178.8733394273192,0,0.9732122421264648,2019-08-06 15:43:06:792
0.1355380415916443,0.15909279882907867,9.849282264709473,0.000863074918407669,-0.004155012958173888,0.0021425034742187147,-178.79427282778133,178.87721992525493,0,0.9761972427368164,2019-08-06 15:43:06:795
0.11159054934978485,0.12796105444431305,9.916335105895996,-0.001534355424951096,-0.0054869185961200105,0.0013433600914510408,-178.8043228593034,178.8852165064918,0,0.9799942970275879,2019-08-06 15:43:06:799
0.16427503526210785,0.16148754954338074,9.875624656677246,6.393147468507523e-05,-0.004421394085763112,-0.0007876890592999184,-178.80837203820462,178.8887640467143,0,0.9832348823547363,2019-08-06 15:43:06:802
0.13074854016304016,0.1303558051586151,9.796597480773926,-0.002599880065345157,-0.0030894884478169893,0.0013433600914510408,-178.81638321428835,178.89618661974583,0,0.9862816333770752,2019-08-06 15:43:06:805
0.09003780037164688,0.03696056827902794,9.806177139282227,-0.0020671176801295454,0.00010708522141819095,0.0010769789638618162,-178.82955663925176,178.91437422091357,0,0.9899897575378418,2019-08-06 15:43:06:809
0.15709078311920166,0.1111978068947792,9.889992713928223,-0.0010015931047540657,-0.004954156340941561,-0.0018532135696568165,-178.8338712416679,178.9233840154103,0,0.9932045936584473,2019-08-06 15:43:06:812
0.19540677964687347,0.09682931005954742,9.851676940917969,-0.0012679742973618717,-0.0014912016822816417,-0.00025492675535753324,-178.8342177480992,178.93386636055956,0,0.9961898326873779,2019-08-06 15:43:06:815
0.17864353954792023,0.11598730832338333,9.851676940917969,-0.0018007365525403206,-0.006818824754214785,0.0026752657293971638,-178.8353002496995,178.9420829346272,0,0.999993085861206,2019-08-06 15:43:06:819
0.1355380415916443,0.07288181036710739,9.789413452148438,-0.0004688308170663259,-0.003888631830584663,0.0021425034742187147,-178.84202794738067,178.95479473411265,0,1.003206729888916,2019-08-06 15:43:06:822
0.1618802845478058,0.10640830546617508,9.79420280456543,-0.003132642320523606,-0.0033558695754062136,0.0016097412190402653,-178.84569012189522,178.96377153285104,0,1.006173849105835,2019-08-06 15:43:06:825
0.09961679577827454,0.11359255760908127,9.832518577575684,-0.0012679742973618717,-0.003888631830584663,-0.0015868324420675922,-178.85633244177083,178.97153035969455,0,1.0099961757659912,2019-08-06 15:43:06:829
0.12356429547071457,0.1111978068947792,9.84449291229248,-0.0004688308170663259,-0.0014912016822816417,0.003474409372239163,-178.8645544346366,178.97924127020158,0,1.0132091045379639,2019-08-06 15:43:06:832
0.13074854016304016,0.14711906015872955,9.8229398727417,0.003260505261766434,-0.006286061978887684,0.0026752657293971638,-178.87095168462432,178.98194553153905,0,1.016211748123169,2019-08-06 15:43:06:835
0.1738540381193161,0.04893431439995766,9.858860969543457,-0.002599880065345157,-0.00042567707439687154,1.1454389502251989e-05,-178.87323669803678,178.99717250622706,0,1.0200037956237793,2019-08-06 15:43:06:839
0.09003780037164688,0.05851331353187561,9.808571815490723,6.393147468507523e-05,-0.0033558695754062136,0.0005442166761740764,-178.88464826758667,179.0103816184745,0,1.0232148170471191,2019-08-06 15:43:06:842
0.15709078311920166,0.09443455934524536,9.868440628051758,-0.0020671176801295454,-0.0033558695754062136,0.002408884601807939,-178.88815599090987,179.01955334690822,0,1.0261845588684082,2019-08-06 15:43:06:845
0.10919579863548279,0.1375400573015213,9.918729782104492,-0.0010015931047540657,-0.00015929593055300162,0.0016097412190402653,-178.89774370882415,179.0234884496011,0,1.0300114154815674,2019-08-06 15:43:06:849
0.10440629720687866,0.09682931005954742,9.839703559875488,-0.0004688308170663259,-0.0012248205546924172,-0.0023859759548724283,-178.9074100306575,179.03182677946936,0,1.0332143306732178,2019-08-06 15:43:06:852
0.08045879751443863,0.13514530658721924,9.878019332885742,6.393147468507523e-05,-0.00255672619263854,1.1454389502251989e-05,-178.9194996890397,179.03550275525225,0,1.0361998081207275,2019-08-06 15:43:06:855
0.14990654587745667,0.09922406077384949,9.84449291229248,-0.004730929346133278,-0.0006920582344953867,0.0005442166761740764,-178.92351413770498,179.0442517698741,0,1.0399963855743408,2019-08-06 15:43:06:859
0.10440629720687866,0.06330281496047974,9.79420280456543,-0.0018007365525403206,-0.002023963937460091,0.003208027984575613,-178.93246466035808,179.05628446699174,0,1.043200969696045,2019-08-06 15:43:06:862
0.1618802845478058,0.07048705965280533,9.849282264709473,-0.0007352119771648412,-0.0014912016822816417,0.0002778355485848519,-178.93473394929114,179.06708092790495,0,1.0461764335632324,2019-08-06 15:43:06:865
0.09003780037164688,0.13993480801582336,9.861255645751953,-0.0020671176801295454,-0.004954156340941561,0.0037407904998283874,-178.94451613461973,179.06992201324942,0,1.0499894618988037,2019-08-06 15:43:06:869
0.08285354822874069,0.11359255760908127,9.798992156982422,6.393147468507523e-05,-0.004421394085763112,0.002941646856986388,-178.9551386725818,179.0752288626475,0,1.0532050132751465,2019-08-06 15:43:06:872
0.08764304965734482,0.12796105444431305,9.796597480773926,-0.002599880065345157,-0.006552443626625559,0.0002778355485848519,-178.96468634708242,179.07919315721293,0,1.056189775466919,2019-08-06 15:43:06:875
0.1475117951631546,0.09443455934524536,9.894782066345215,-0.002599880065345157,-0.00042567707439687154,0.0010769789638618162,-178.96821963290228,179.08722832656167,0,1.059992790222168,2019-08-06 15:43:06:879
0.06609030067920685,0.10640830546617508,9.842098236083984,0.0021949807514095357,-0.0030894884478169893,-0.00025492675535753324,-178.98060219091192,179.09269848961912,0,1.0632109642028809,2019-08-06 15:43:06:882
0.11877479404211044,0.11359255760908127,9.791808128356934,-0.00393178570329128,-0.004155012958173888,0.0016097412190402653,-178.98639344170755,179.09821155154032,0,1.0662002563476562,2019-08-06 15:43:06:885
0.1020115464925766,0.07288181036710739,9.95465087890625,-0.0010015931047540657,-0.0017575828098708665,0.0018761223466294901,-178.99454834483493,179.10807132737926,0,1.0699973106384277,2019-08-06 15:43:06:889
0.11877479404211044,0.1183820590376854,9.801386833190918,-0.002599880065345157,-0.003622250702995438,-0.0010540701868891429,-179.00011605915657,179.1125406631519,0,1.0732207298278809,2019-08-06 15:43:06:892
0.10440629720687866,0.125566303730011,9.894782066345215,-0.0007352119771648412,-0.0033558695754062136,0.0013433600914510408,-179.00744325404568,179.11587577237984,0,1.0762968063354492,2019-08-06 15:43:06:895
0.08045879751443863,0.11359255760908127,9.815755844116211,-0.003132642320523606,-0.0054869185961200105,0.0026752657293971638,-179.01676104188036,179.12094897414244,0,1.0799989700317383,2019-08-06 15:43:06:899
0.06369554996490479,0.12077680975198746,9.83491325378418,0.0005966937908184444,-0.0006920582344953867,0.0008105978362725917,-179.028879600853,179.124350752884,0,1.0832114219665527,2019-08-06 15:43:06:902
0.0756693035364151,0.07527656108140945,9.846887588500977,-0.0007352119771648412,-0.0028231073202277645,0.0037407904998283874,-179.0390233804978,179.13322687868722,0,1.0861947536468506,2019-08-06 15:43:06:905
0.06369554996490479,0.171066552400589,9.810966491699219,-0.002333498937755932,-0.0033558695754062136,0.0016097412190402653,-179.05008734243393,179.13108180221306,0,1.0899949073791504,2019-08-06 15:43:06:909
0.10440629720687866,0.10880305618047714,9.868440628051758,-0.0004688308170663259,-0.002023963937460091,0.0005442166761740764,-179.05659749882173,179.13591109446855,0,1.0932064056396484,2019-08-06 15:43:06:912
0.09482730180025101,0.13275055587291718,9.842098236083984,0.000863074918407669,-0.005220537468530785,0.0013433600914510408,-179.06355189343336,179.1375932924335,0,1.0961854457855225,2019-08-06 15:43:06:915
0.10919579863548279,0.1183820590376854,9.827729225158691,-0.0010015931047540657,-0.00255672619263854,0.0010769789638618162,-179.0690025810958,179.14125282449896,0,1.0999925136566162,2019-08-06 15:43:06:919
0.1020115464925766,0.10640830546617508,9.810966491699219,6.393147468507523e-05,-0.004687775213352337,0.0021425034742187147,-179.07486179996556,179.14598828137153,0,1.1032075881958008,2019-08-06 15:43:06:922
0.14272229373455048,0.13275055587291718,9.839703559875488,-0.00020244967322245603,-0.005220537468530785,0.0016097412190402653,-179.0758679892115,179.1476435352943,0,1.1061978340148926,2019-08-06 15:43:06:925
0.13074854016304016,0.05851331353187561,9.83491325378418,0.002994124134177209,-0.0022903450650493154,0.0026752657293971638,-179.07862830493985,179.15723374082663,0,1.1100006103515625,2019-08-06 15:43:06:929
0.1355380415916443,0.12317155301570892,9.818150520324707,-0.0012679742973618717,-0.0030894884478169893,0.0008105978362725917,-179.08068048582237,179.15994260658056,0,1.1132118701934814,2019-08-06 15:43:06:932
0.11159054934978485,0.12796105444431305,9.830123901367188,-0.0020671176801295454,-0.0033558695754062136,0.0016097412190402653,-179.0854975945679,179.1621738249029,0,1.1161918640136719,2019-08-06 15:43:06:935
0.07806405425071716,0.1375400573015213,9.87322998046875,-0.002333498937755932,-0.0012248205546924172,0.0018761223466294901,-179.09446658466268,179.1634651587257,0,1.119985580444336,2019-08-06 15:43:06:939
0.1211695447564125,0.08725030720233917,9.801386833190918,-0.0018007365525403206,-0.0030894884478169893,0.0069373640308990825,-179.09784245658435,179.17032710917925,0,1.1232664585113525,2019-08-06 15:43:06:942
0.08524829894304276,0.16627705097198486,9.832518577575684,-0.0007352119771648412,-0.00255672619263854,0.002408884601807939,-179.1055249037083,179.1676663629837,0,1.126232624053955,2019-08-06 15:43:06:945
0.18343304097652435,0.13514530658721924,9.842098236083984,-0.0028662611929343817,-0.004954156340941561,0.0018761223466294901,-179.10101380087755,179.16918420629784,0,1.1299927234649658,2019-08-06 15:43:06:949
0.09482730180025101,0.12317155301570892,9.73672866821289,-0.0007352119771648412,-0.004421394085763112,0.006670982903309857,-179.10703671901788,179.17143775354947,0,1.1332027912139893,2019-08-06 15:43:06:952
0.09722204506397247,0.12317155301570892,9.78222942352295,0.0011294561110154748,-0.003888631830584663,0.0018761223466294901,-179.11285632768266,179.1733919885966,0,1.1361851692199707,2019-08-06 15:43:06:955
0.06369554996490479,0.1111978068947792,9.892387390136719,-0.00393178570329128,-0.003888631830584663,0.004007171627417612,-179.12238961945866,179.17788428212495,0,1.1399924755096436,2019-08-06 15:43:06:959
0.11877479404211044,0.11359255760908127,9.825334548950195,-0.0036654045757020556,-0.0054869185961200105,0.005339077265363735,-179.12509993959267,179.18174039638356,0,1.1432058811187744,2019-08-06 15:43:06:962
0.09482730180025101,0.08725030720233917,9.818150520324707,-0.0010015931047540657,-0.0012248205546924172,0.0037407904998283874,-179.13132630636176,179.18808959430234,0,1.1461765766143799,2019-08-06 15:43:06:965
0.07087980210781097,0.11359255760908127,9.784624099731445,-0.002333498937755932,-0.0028231073202277645,0.002941646856986388,-179.13979474902658,179.19152451723977,0,1.1499879360198975,2019-08-06 15:43:06:969
0.12595903873443604,0.12077680975198746,9.849282264709473,-0.002333498937755932,-0.007351587009393233,0.0018761223466294901,-179.14101650572053,179.1940646061847,0,1.1532061100006104,2019-08-06 15:43:06:972
0.15230129659175873,0.12796105444431305,9.806177139282227,0.0005966937908184444,0.00010708522141819095,0.002408884601807939,-179.1404181746228,179.19513097492907,0,1.1561939716339111,2019-08-06 15:43:06:975
0.1211695447564125,0.10640830546617508,9.837308883666992,-0.0036654045757020556,-0.003622250702995438,0.0013433600914510408,-179.1427216668844,179.19961712909029,0,1.1600005626678467,2019-08-06 15:43:06:979
0.11877479404211044,0.10401355475187302,9.839703559875488,-0.0010015931047540657,-0.003888631830584663,0.0042735527550068365,-179.14533348613656,179.2036928316485,0,1.1632161140441895,2019-08-06 15:43:06:982
0.10440629720687866,0.07288181036710739,9.84449291229248,-0.00020244967322245603,-0.0028231073202277645,0.005605458392952959,-179.14980095362128,179.21116950174692,0,1.1662015914916992,2019-08-06 15:43:06:985
0.11638004332780838,0.11598730832338333,9.801386833190918,-0.0007352119771648412,-0.004421394085763112,-0.0026523570824616527,-179.1522515900496,179.21354381597882,0,1.1700184345245361,2019-08-06 15:43:06:989
0.10680104792118073,0.08246081322431564,9.777440071105957,-0.0028662611929343817,-0.0022903450650493154,0.0021425034742187147,-179.1562792701286,179.22012274599498,0,1.1732120513916016,2019-08-06 15:43:06:992
0.14272229373455048,0.09682931005954742,9.842098236083984,-0.0004688308170663259,-0.003622250702995438,0.002941646856986388,-179.15593353340574,179.22452501395907,0,1.176182508468628,2019-08-06 15:43:06:995
0.11638004332780838,0.08964505791664124,9.803781509399414,-0.0020671176801295454,-0.0017575828098708665,0.0008105978362725917,-179.15883611303482,179.22999920972882,0,1.1799955368041992,2019-08-06 15:43:06:999
0.07087980210781097,0.08725030720233917,9.76546573638916,0.0011294561110154748,-0.004421394085763112,0.0013433600914510408,-179.16654317627797,179.23495710368627,0,1.1832141876220703,2019-08-06 15:43:07:002
0.1618802845478058,0.12796105444431305,9.868440628051758,-0.0012679742973618717,-0.0006920582344953867,0.0026752657293971638,-179.1643001943207,179.23561330870342,0,1.1862094402313232,2019-08-06 15:43:07:005
0.11159054934978485,0.12317155301570892,9.806177139282227,-0.0012679742973618717,-0.003888631830584663,0.00507269613777451,-179.16714783795973,179.23677800955917,0,1.1899962425231934,2019-08-06 15:43:07:009
0.05890605226159096,0.13514530658721924,9.878019332885742,0.0019285994937831485,-0.004155012958173888,0.002408884601807939,-179.17622243944191,179.23601800604206,0,1.193206787109375,2019-08-06 15:43:07:012
0.09961679577827454,0.08246081322431564,9.801386833190918,-0.0020671176801295454,-0.0030894884478169893,-0.00025492675535753324,-179.1805366162906,179.24200180219125,0,1.1961767673492432,2019-08-06 15:43:07:015
0.15230129659175873,0.09443455934524536,9.90196704864502,-0.0020671176801295454,-0.004421394085763112,0.0018761223466294901,-179.1783547100429,179.24667646246593,0,1.1999926567077637,2019-08-06 15:43:07:019
0.07806405425071716,0.1375400573015213,9.798992156982422,0.0016622183661939237,-0.003622250702995438,0.0042735527550068365,-179.18500428678007,179.24535939111084,0,1.2032108306884766,2019-08-06 15:43:07:022
0.10919579863548279,0.09922406077384949,9.887598037719727,-0.002599880065345157,-0.006552443626625559,0.002408884601807939,-179.18754780552925,179.24939024415485,0,1.2062053680419922,2019-08-06 15:43:07:025
0.10680104792118073,0.09682931005954742,9.741518020629883,-0.0012679742973618717,-0.004687775213352337,0.003208027984575613,-179.19023447607657,179.25328296384575,0,1.210003137588501,2019-08-06 15:43:07:029
0.08524829894304276,0.10640830546617508,9.820545196533203,-0.0036654045757020556,-0.003888631830584663,0.003208027984575613,-179.1957822513276,179.2564618070463,0,1.2132115364074707,2019-08-06 15:43:07:032
0.10680104792118073,0.10401355475187302,9.945072174072266,-0.00020244967322245603,-0.003622250702995438,0.004539933882596061,-179.1989376738988,179.25938293926652,0,1.2162761688232422,2019-08-06 15:43:07:035
0.17864353954792023,0.08006606251001358,9.899572372436523,-0.00020244967322245603,-0.002023963937460091,0.00507269613777451,-179.19385930652064,179.26496983722961,0,1.2199995517730713,2019-08-06 15:43:07:039
0.15230129659175873,0.09682931005954742,9.894782066345215,0.0016622183661939237,-0.00255672619263854,0.005871839520542184,-179.191883930866,179.26815691379278,0,1.2232146263122559,2019-08-06 15:43:07:042
0.08285354822874069,0.15190854668617249,9.839703559875488,0.00033031263071992917,-0.005220537468530785,0.002941646856986388,-179.19752186360114,179.26504876027442,0,1.2262017726898193,2019-08-06 15:43:07:045
0.1355380415916443,0.13514530658721924,9.952256202697754,0.00033031263071992917,-0.004687775213352337,0.0018761223466294901,-179.19696823153723,179.26411760572242,0,1.2299938201904297,2019-08-06 15:43:07:049
0.13314329087734222,0.13275055587291718,9.86365032196045,-0.004198166830880505,-0.0012248205546924172,0.0016097412190402653,-179.1973405765299,179.2641720795711,0,1.233210563659668,2019-08-06 15:43:07:052
0.1355380415916443,0.05611856281757355,9.837308883666992,-0.0033990234481128304,-0.00015929593055300162,-0.0013204513144783674,-179.1975796799783,179.272921480951,0,1.2361962795257568,2019-08-06 15:43:07:055
0.16906453669071198,0.1447243094444275,9.810966491699219,-0.0012679742973618717,-0.0017575828098708665,0.003208027984575613,-179.19350579961224,179.2708329642313,0,1.2400224208831787,2019-08-06 15:43:07:059
0.14272229373455048,0.08246081322431564,9.851676940917969,-0.0033990234481128304,-0.003888631830584663,0.0008105978362725917,-179.1923355102903,179.27643710655852,0,1.243229866027832,2019-08-06 15:43:07:062
0.1546960473060608,0.0656975656747818,9.933098793029785,-0.0012679742973618717,-0.0030894884478169893,0.0013433600914510408,-179.1901128904075,179.28354735411884,0,1.2462913990020752,2019-08-06 15:43:07:065
0.18343304097652435,0.1303558051586151,9.830123901367188,-0.003132642320523606,-0.00255672619263854,0.003208027984575613,-179.18439830029982,179.2833329348844,0,1.2499949932098389,2019-08-06 15:43:07:069
0.13793279230594635,0.12317155301570892,9.801386833190918,-0.00020244967322245603,-0.0009584393620846114,0.003474409372239163,-179.18441203832361,179.2833031741655,0,1.2532122135162354,2019-08-06 15:43:07:072
0.09243255108594894,0.17346130311489105,9.875624656677246,6.393147468507523e-05,-0.005220537468530785,0.0021425034742187147,-179.18912351296296,179.2775009241253,0,1.2561979293823242,2019-08-06 15:43:07:075
0.17145928740501404,0.16867180168628693,9.78222942352295,-0.0012679742973618717,-0.00255672619263854,-0.0007876890592999184,-179.18471311950557,179.2724643979864,0,1.2599928379058838,2019-08-06 15:43:07:079
0.1666697859764099,0.10401355475187302,9.78222942352295,-0.001534355424951096,-0.0033558695754062136,0.0037407904998283874,-179.18087718317827,179.27511436791877,0,1.2632801532745361,2019-08-06 15:43:07:082
0.1020115464925766,0.05611856281757355,9.856466293334961,-0.0007352119771648412,-0.0014912016822816417,0.003474409372239163,-179.18514991556793,179.28321117532576,0,1.2662689685821533,2019-08-06 15:43:07:085
0.08764304965734482,0.11359255760908127,9.815755844116211,-0.00020244967322245603,-0.0033558695754062136,0.0010769789638618162,-179.19051445900405,179.28432876102613,0,1.2699894905090332,2019-08-06 15:43:07:089
0.15948553383350372,0.12077680975198746,9.851676940917969,-0.003132642320523606,-0.0028231073202277645,0.002408884601807939,-179.18764582715596,179.28515945312083,0,1.2732012271881104,2019-08-06 15:43:07:092
0.17624878883361816,0.06330281496047974,9.959440231323242,-0.0004688308170663259,-0.00015929593055300162,-0.0013204513144783674,-179.18358954126472,179.29225117430926,0,1.2761764526367188,2019-08-06 15:43:07:095
0.08524829894304276,0.07767131179571152,9.815755844116211,-0.0033990234481128304,-0.003622250702995438,0.0010769789638618162,-179.1891895516563,179.29806730716825,0,1.2799935340881348,2019-08-06 15:43:07:099
0.1403275430202484,0.10401355475187302,9.909151077270508,-0.003132642320523606,-0.00042567707439687154,0.0021425034742187147,-179.1891021800684,179.30064386802457,0,1.283210277557373,2019-08-06 15:43:07:102
0.14272229373455048,0.08006606251001358,9.84449291229248,-0.0007352119771648412,-0.0022903450650493154,0.0005442166761740764,-179.18832445895143,179.30543454907905,0,1.286194086074829,2019-08-06 15:43:07:105
0.09003780037164688,0.1303558051586151,9.808571815490723,-0.0020671176801295454,-0.006019680851298459,0.0010769789638618162,-179.19275687776138,179.30453793562356,0,1.2899882793426514,2019-08-06 15:43:07:109
0.18343304097652435,0.09443455934524536,9.861255645751953,-0.0018007365525403206,-0.0033558695754062136,-0.00025492675535753324,-179.18698190254946,179.30779939346195,0,1.2932078838348389,2019-08-06 15:43:07:112
0.1283537894487381,0.1183820590376854,9.861255645751953,-0.002599880065345157,-0.0030894884478169893,0.002408884601807939,-179.18780855451044,179.30832466558664,0,1.2962017059326172,2019-08-06 15:43:07:115
0.14511704444885254,0.1303558051586151,9.825334548950195,0.0005966937908184444,-0.0030894884478169893,0.0002778355485848519,-179.18646990933604,179.30682858400425,0,1.2999999523162842,2019-08-06 15:43:07:119
0.1403275430202484,0.15909279882907867,9.846887588500977,-0.0018007365525403206,-0.004687775213352337,0.0021425034742187147,-179.18556527453234,179.30250441554676,0,1.3032138347625732,2019-08-06 15:43:07:122
0.13074854016304016,0.14711906015872955,9.86365032196045,-0.0018007365525403206,-0.0030894884478169893,0.0008105978362725917,-179.18614881784686,179.29966484865923,0,1.306189775466919,2019-08-06 15:43:07:125
0.1738540381193161,0.14711906015872955,9.851676940917969,-0.0028662611929343817,-0.0017575828098708665,-0.00025492675535753324,-179.181830693679,179.29717211699892,0,1.309990644454956,2019-08-06 15:43:07:129
0.08285354822874069,0.08964505791664124,9.90196704864502,0.0005966937908184444,-0.004155012958173888,-0.0005213078992014032,-179.18784766903457,179.3007457881368,0,1.3132410049438477,2019-08-06 15:43:07:132
0.14990654587745667,0.17585605382919312,9.796597480773926,-0.0028662611929343817,-0.003622250702995438,-0.0015868324420675922,-179.18595076830195,179.29464308543982,0,1.3162236213684082,2019-08-06 15:43:07:135
0.09961679577827454,0.08964505791664124,9.760676383972168,6.393147468507523e-05,-0.0006920582344953867,-0.0026523570824616527,-179.19039050155018,179.29821254249302,0,1.3199942111968994,2019-08-06 15:43:07:139
0.1403275430202484,0.08246081322431564,9.851676940917969,0.002727743006587985,-0.006019680851298459,-0.00025492675535753324,-179.18917294255243,179.30216374188086,0,1.3232142925262451,2019-08-06 15:43:07:142
0.1475117951631546,0.08725030720233917,9.8229398727417,-0.004730929346133278,-0.0014912016822816417,-0.00025492675535753324,-179.18793226429585,179.3067361930179,0,1.326202630996704,2019-08-06 15:43:07:145
0.08045879751443863,0.171066552400589,9.770255088806152,-0.0018007365525403206,-0.003622250702995438,-0.0023859759548724283,-179.19396591802288,179.3009231759886,0,1.3299944400787354,2019-08-06 15:43:07:149
0.07806405425071716,0.0920398086309433,9.801386833190918,0.0019285994937831485,-0.003888631830584663,-0.0015868324420675922,-179.20025866721937,179.3037964692511,0,1.3332066535949707,2019-08-06 15:43:07:152
0.1475117951631546,0.13514530658721924,9.84449291229248,-0.001534355424951096,-0.004421394085763112,0.0005442166761740764,-179.1983418556033,179.30224798683835,0,1.3361966609954834,2019-08-06 15:43:07:155
0.18822254240512848,0.08006606251001358,9.849282264709473,-0.0036654045757020556,-0.003888631830584663,-0.0026523570824616527,-179.1916491669603,179.30767005649233,0,1.3399968147277832,2019-08-06 15:43:07:159
0.09482730180025101,0.08725030720233917,9.882808685302734,-0.0010015931047540657,-0.0012248205546924172,0.0008105978362725917,-179.19659922757188,179.3115817749045,0,1.3432252407073975,2019-08-06 15:43:07:162
0.11877479404211044,0.09443455934524536,9.86365032196045,-0.004464548218544054,-0.0022903450650493154,0.0008105978362725917,-179.19848465317423,179.31512902842485,0,1.3462152481079102,2019-08-06 15:43:07:165
0.11638004332780838,0.12317155301570892,9.878019332885742,-0.001534355424951096,-0.0033558695754062136,0.0002778355485848519,-179.2003017156214,179.31486447445067,0,1.349999189376831,2019-08-06 15:43:07:169
0.1283537894487381,0.034565817564725876,9.86365032196045,-0.0028662611929343817,-0.004421394085763112,-0.0005213078992014032,-179.20058670737959,179.32506896950187,0,1.3532145023345947,2019-08-06 15:43:07:172
0.09961679577827454,0.06090806424617767,9.909151077270508,-0.0012679742973618717,-0.004954156340941561,0.0005442166761740764,-179.20416846803428,179.33175115712058,0,1.356403112411499,2019-08-06 15:43:07:175
0.1283537894487381,0.09922406077384949,9.966625213623047,-0.00393178570329128,-0.004155012958173888,-0.0007876890592999184,-179.20448864718523,179.33450283398403,0,1.3600025177001953,2019-08-06 15:43:07:179
0.1666697859764099,0.08725030720233917,9.894782066345215,-0.001534355424951096,-0.004421394085763112,0.0010769789638618162,-179.2003014863643,179.33798521520222,0,1.3632135391235352,2019-08-06 15:43:07:182
0.09003780037164688,0.10640830546617508,9.887598037719727,-0.0018007365525403206,-0.0009584393620846114,-0.0015868324420675922,-179.205700511176,179.3391951885002,0,1.3661935329437256,2019-08-06 15:43:07:185
0.10919579863548279,0.15909279882907867,9.806177139282227,-0.0033990234481128304,-0.006286061978887684,-0.0021195946972460415,-179.20748581746452,179.33454698230727,0,1.369992733001709,2019-08-06 15:43:07:189
0.08764304965734482,0.09682931005954742,9.818150520324707,-0.0004688308170663259,-0.0030894884478169893,0.0002778355485848519,-179.2125490969511,179.33663976588122,0,1.3732099533081055,2019-08-06 15:43:07:192
0.14272229373455048,0.08725030720233917,9.923519134521484,-0.0010015931047540657,-0.004155012958173888,1.1454389502251989e-05,-179.21112235726957,179.3399998193471,0,1.3761935234069824,2019-08-06 15:43:07:195
0.14990654587745667,0.1375400573015213,9.842098236083984,-0.0033990234481128304,-0.005753299723709235,-0.0013204513144783674,-179.20821731510262,179.33791394495523,0,1.3800020217895508,2019-08-06 15:43:07:199
0.11638004332780838,0.10640830546617508,9.79420280456543,-0.0018007365525403206,0.0017053721088633783,0.0005442166761740764,-179.21074537825837,179.3390318439533,0,1.3832201957702637,2019-08-06 15:43:07:202
0.12595903873443604,0.11359255760908127,9.83491325378418,-0.00020244967322245603,-0.0028231073202277645,0.0002778355485848519,-179.21138250252628,179.3390504450568,0,1.3862018585205078,2019-08-06 15:43:07:205
0.15230129659175873,0.0656975656747818,9.779834747314453,-0.0010015931047540657,-0.003622250702995438,1.1454389502251989e-05,-179.20853999021858,179.3447848669021,0,1.3899924755096436,2019-08-06 15:43:07:209
0.08524829894304276,0.10640830546617508,9.849282264709473,-0.0018007365525403206,-0.0028231073202277645,0.0018761223466294901,-179.2139419132928,179.34583443056604,0,1.3932054042816162,2019-08-06 15:43:07:212
0.09482730180025101,0.1183820590376854,9.870835304260254,0.0019285994937831485,-0.0054869185961200105,0.0008105978362725917,-179.2177347977553,179.34485192721263,0,1.3961915969848633,2019-08-06 15:43:07:215
0.12595903873443604,0.14951379597187042,9.75349235534668,0.0019285994937831485,-0.0030894884478169893,0.002408884601807939,-179.21792264117533,179.33997845011797,0,1.399994134902954,2019-08-06 15:43:07:219
0.05411655455827713,0.07048705965280533,9.849282264709473,-0.0012679742973618717,-0.004687775213352337,0.002408884601807939,-179.22637328080296,179.34522022179536,0,1.4033935070037842,2019-08-06 15:43:07:222
0.08285354822874069,0.09922406077384949,9.87322998046875,0.00033031263071992917,-0.004155012958173888,0.0005442166761740764,-179.23153168360935,179.3467444740282,0,1.406385898590088,2019-08-06 15:43:07:225
0.10919579863548279,0.07048705965280533,9.777440071105957,-0.003132642320523606,-0.004421394085763112,0.0002778355485848519,-179.2332104254637,179.35218164741397,0,1.4099845886230469,2019-08-06 15:43:07:229
0.11159054934978485,0.0848555639386177,9.868440628051758,-0.0020671176801295454,-0.0054869185961200105,0.0018761223466294901,-179.234598871355,179.35565789817363,0,1.4131982326507568,2019-08-06 15:43:07:232
0.10440629720687866,0.09682931005954742,9.86365032196045,-0.0012679742973618717,-0.003888631830584663,-0.0010540701868891429,-179.23712497300406,179.3575087927013,0,1.4161884784698486,2019-08-06 15:43:07:235
0.07806405425071716,0.14951379597187042,9.813361167907715,-0.0020671176801295454,-0.004687775213352337,0.004007171627417612,-179.24226559036833,179.35334270173973,0,1.4199931621551514,2019-08-06 15:43:07:239
0.0756693035364151,0.1111978068947792,9.906756401062012,0.0019285994937831485,-0.005753299723709235,-0.0010540701868891429,-179.24762868990416,179.35306580815282,0,1.4232096672058105,2019-08-06 15:43:07:242
0.12595903873443604,0.1638823002576828,9.820545196533203,-0.00020244967322245603,-0.005753299723709235,0.0037407904998283874,-179.24701733903555,179.34691742332018,0,1.426187515258789,2019-08-06 15:43:07:245
0.03495855629444122,0.10401355475187302,9.849282264709473,-0.001534355424951096,-0.003888631830584663,0.0013433600914510408,-179.25717958771045,179.3482056209347,0,1.4299895763397217,2019-08-06 15:43:07:249
0.1355380415916443,0.11598730832338333,9.777440071105957,-0.00020244967322245603,-0.0030894884478169893,0.002941646856986388,-179.25559393772664,179.34768500456465,0,1.43320631980896,2019-08-06 15:43:07:252
0.01819530874490738,0.08246081322431564,9.815755844116211,-0.0020671176801295454,-0.004155012958173888,0.002408884601807939,-179.26765926032226,179.3514524229365,0,1.4362008571624756,2019-08-06 15:43:07:255
0.07087980210781097,0.1111978068947792,9.854071617126465,-0.0007352119771648412,-0.002023963937460091,0.0005442166761740764,-179.27363151388906,179.35164988907562,0,1.4400038719177246,2019-08-06 15:43:07:259
0.13793279230594635,0.13993480801582336,9.758281707763672,-0.00020244967322245603,-0.0014912016822816417,1.1454389502251989e-05,-179.27169228758376,179.34822215052617,0,1.4432311058044434,2019-08-06 15:43:07:262
0.13793279230594635,0.04893431439995766,9.842098236083984,-0.0018007365525403206,-0.0033558695754062136,0.003208027984575613,-179.2696377778617,179.3558620038675,0,1.4462146759033203,2019-08-06 15:43:07:265
0.04693230614066124,0.11598730832338333,9.858860969543457,-0.0007352119771648412,-0.0030894884478169893,0.0002778355485848519,-179.27812252438056,179.35542279009775,0,1.4500625133514404,2019-08-06 15:43:07:269
0.07806405425071716,0.13275055587291718,9.906756401062012,-0.00020244967322245603,-0.0014912016822816417,0.0008105978362725917,-179.2832621410544,179.3529964264675,0,1.4532685279846191,2019-08-06 15:43:07:272
0.10440629720687866,0.08006606251001358,9.79420280456543,0.0005966937908184444,-0.002023963937460091,0.0013433600914510408,-179.2850442297932,179.35646948049146,0,1.4562397003173828,2019-08-06 15:43:07:275
0.03256380558013916,0.08964505791664124,9.808571815490723,-0.0012679742973618717,0.00010708522141819095,0.004007171627417612,-179.2955615643489,179.35913456276387,0,1.4599931240081787,2019-08-06 15:43:07:279
0.10440629720687866,0.05851331353187561,9.916335105895996,-0.001534355424951096,-0.003622250702995438,0.003208027984575613,-179.29693053690227,179.36546779208385,0,1.463214635848999,2019-08-06 15:43:07:282
0.11638004332780838,0.0920398086309433,9.832518577575684,-0.001534355424951096,-0.0033558695754062136,0.002941646856986388,-179.29686469322,179.3676902272938,0,1.4662106037139893,2019-08-06 15:43:07:285
0.1355380415916443,0.08725030720233917,9.767860412597656,-0.0020671176801295454,-0.0030894884478169893,0.0002778355485848519,-179.29437132950113,179.37054015728856,0,1.4699947834014893,2019-08-06 15:43:07:289
0.09243255108594894,0.125566303730011,9.923519134521484,-0.0007352119771648412,-0.0033558695754062136,0.0005442166761740764,-179.2972037785828,179.36876333559752,0,1.473215103149414,2019-08-06 15:43:07:292
0.1546960473060608,0.10161881148815155,9.846887588500977,-0.0012679742973618717,-0.0033558695754062136,0.0021425034742187147,-179.29269562943276,179.36977550663445,0,1.476203203201294,2019-08-06 15:43:07:295
0.12356429547071457,0.14232955873012543,9.84449291229248,0.00033031263071992917,-0.0014912016822816417,0.005605458392952959,-179.29214240748752,179.36574353810104,0,1.4799888134002686,2019-08-06 15:43:07:299
0.11159054934978485,0.07527656108140945,9.861255645751953,0.0011294561110154748,-0.004687775213352337,0.005605458392952959,-179.29248634820064,179.36947745650602,0,1.4832048416137695,2019-08-06 15:43:07:302
0.08524829894304276,0.08725030720233917,9.78222942352295,-0.002599880065345157,-0.0012248205546924172,0.0013433600914510408,-179.29644518264305,179.37230362906675,0,1.4861927032470703,2019-08-06 15:43:07:305
0.08524829894304276,0.10401355475187302,9.760676383972168,-0.0007352119771648412,-0.006019680851298459,0.002941646856986388,-179.29922074631767,179.37280394969244,0,1.490001916885376,2019-08-06 15:43:07:309
0.11877479404211044,0.10640830546617508,9.868440628051758,-0.0012679742973618717,-0.002023963937460091,0.003474409372239163,-179.2990676613522,179.37322867165202,0,1.4933218955993652,2019-08-06 15:43:07:312
0.1211695447564125,0.1375400573015213,9.923519134521484,-0.0012679742973618717,-0.0014912016822816417,0.0069373640308990825,-179.29883991732902,179.37009959985937,0,1.496368169784546,2019-08-06 15:43:07:315
0.07087980210781097,0.1375400573015213,9.787018775939941,-0.002333498937755932,-0.003888631830584663,0.0010769789638618162,-179.30377321435805,179.36706946225456,0,1.4999911785125732,2019-08-06 15:43:07:319
0.13074854016304016,0.12796105444431305,9.810966491699219,0.000863074918407669,-0.003622250702995438,0.004806315010185286,-179.30177430606042,179.36462755038494,0,1.5032017230987549,2019-08-06 15:43:07:322
0.06130080297589302,0.11359255760908127,9.846887588500977,-0.0036654045757020556,-0.003888631830584663,0.0026752657293971638,-179.30795492880947,179.36472931262415,0,1.5061795711517334,2019-08-06 15:43:07:325
0.11877479404211044,0.08246081322431564,9.83491325378418,-0.0020671176801295454,-0.0028231073202277645,0.0042735527550068365,-179.30735283060517,179.36826973458852,0,1.5099937915802002,2019-08-06 15:43:07:329
0.14511704444885254,0.12317155301570892,9.787018775939941,-0.003132642320523606,-0.007351587009393233,0.004539933882596061,-179.30288693034342,179.3670498487012,0,1.5132133960723877,2019-08-06 15:43:07:332
0.13314329087734222,0.08964505791664124,9.813361167907715,-0.0004688308170663259,0.001971753236452603,0.0021425034742187147,-179.30161398980127,179.36931993368228,0,1.5162041187286377,2019-08-06 15:43:07:335
0.1546960473060608,0.12317155301570892,9.767860412597656,0.0005966937908184444,-0.0028231073202277645,0.004539933882596061,-179.29683442457298,179.3673574881638,0,1.5199933052062988,2019-08-06 15:43:07:339
0.13793279230594635,0.08006606251001358,9.86365032196045,-0.005530072728900952,-0.007351587009393233,0.002408884601807939,-179.29354808741365,179.37170647466945,0,1.5232062339782715,2019-08-06 15:43:07:342
0.08764304965734482,0.14711906015872955,9.827729225158691,-0.003132642320523606,-0.0030894884478169893,0.004539933882596061,-179.29694107795567,179.36764384963672,0,1.5261871814727783,2019-08-06 15:43:07:345
0.10919579863548279,0.1111978068947792,9.719965934753418,0.00033031263071992917,-0.004155012958173888,0.005871839520542184,-179.297239065979,179.36711132774732,0,1.530003309249878,2019-08-06 15:43:07:349
0.09003780037164688,0.1303558051586151,9.854071617126465,-0.0012679742973618717,-0.0030894884478169893,0.00507269613777451,-179.30026714054327,179.36483972996712,0,1.5332145690917969,2019-08-06 15:43:07:352
0.13314329087734222,0.0920398086309433,9.837308883666992,-0.0007352119771648412,-0.004687775213352337,0.004539933882596061,-179.29796981361,179.3669447176352,0,1.5361912250518799,2019-08-06 15:43:07:355
0.13074854016304016,0.10161881148815155,9.818150520324707,-0.002333498937755932,-0.002023963937460091,0.002941646856986388,-179.29631969852792,179.36824332688963,0,1.539987564086914,2019-08-06 15:43:07:359
0.0756693035364151,0.11598730832338333,9.813361167907715,-0.002599880065345157,-0.004155012958173888,0.004806315010185286,-179.30080296479437,179.3678072721522,0,1.5432217121124268,2019-08-06 15:43:07:362
0.11159054934978485,0.10161881148815155,9.801386833190918,0.000863074918407669,-0.0017575828098708665,0.004007171627417612,-179.3014387600453,179.36842250515087,0,1.5462844371795654,2019-08-06 15:43:07:365
0.04453755542635918,0.1183820590376854,9.851676940917969,-0.002599880065345157,-0.006818824754214785,0.002941646856986388,-179.30881217531933,179.36782531265365,0,1.5499863624572754,2019-08-06 15:43:07:369
0.1020115464925766,0.08725030720233917,9.818150520324707,-0.0007352119771648412,-0.0022903450650493154,0.004806315010185286,-179.31031598219724,179.37041870345635,0,1.5532071590423584,2019-08-06 15:43:07:372
0.10680104792118073,0.09443455934524536,9.87322998046875,0.0005966937908184444,-0.004421394085763112,0.003208027984575613,-179.310972739336,179.37195020973047,0,1.5561950206756592,2019-08-06 15:43:07:375
0.09003780037164688,0.10640830546617508,9.818150520324707,-0.004464548218544054,-0.004687775213352337,0.005871839520542184,-179.31324532924043,179.3730443325569,0,1.5599925518035889,2019-08-06 15:43:07:379
0.17145928740501404,0.1183820590376854,9.801386833190918,0.00033031263071992917,-0.006019680851298459,0.0013433600914510408,-179.30584975207748,179.37168400966723,0,1.5632078647613525,2019-08-06 15:43:07:382
0.09961679577827454,0.14232955873012543,9.870835304260254,-0.002333498937755932,-0.004954156340941561,0.0005442166761740764,-179.3073405660998,179.36811827422196,0,1.5661842823028564,2019-08-06 15:43:07:385
0.12595903873443604,0.13993480801582336,9.849282264709473,-0.001534355424951096,-0.0014912016822816417,0.004806315010185286,-179.30622128931606,179.36480404441468,0,1.56998872756958,2019-08-06 15:43:07:389
0.020590057596564293,0.1183820590376854,9.837308883666992,-0.0007352119771648412,-0.0028231073202277645,1.1454389502251989e-05,-179.31718924634072,179.36385129137204,0,1.5732007026672363,2019-08-06 15:43:07:392
0.10919579863548279,0.1183820590376854,9.90196704864502,-0.006329216111668627,-0.002023963937460091,0.005339077265363735,-179.31786829046104,179.36394102131237,0,1.576200246810913,2019-08-06 15:43:07:395
0.1283537894487381,0.0920398086309433,9.830123901367188,0.0019285994937831485,-0.005220537468530785,-0.0018532135696568165,-179.31543566910972,179.36552184728328,0,1.5799994468688965,2019-08-06 15:43:07:399
0.14511704444885254,0.1638823002576828,9.875624656677246,-0.004730929346133278,-0.004954156340941561,0.002408884601807939,-179.31139797978616,179.36004851038308,0,1.5832045078277588,2019-08-06 15:43:07:402
0.1810382902622223,0.13993480801582336,9.789413452148438,-0.003132642320523606,-0.0033558695754062136,-0.0013204513144783674,-179.30341967544354,179.35699207290517,0,1.586181879043579,2019-08-06 15:43:07:405
0.1403275430202484,0.1375400573015213,9.8229398727417,-0.0036654045757020556,-0.0022903450650493154,0.0021425034742187147,-179.30048909839414,179.35459739095367,0,1.5900161266326904,2019-08-06 15:43:07:409
0.1283537894487381,0.06330281496047974,9.84449291229248,-0.001534355424951096,-0.0054869185961200105,0.0010769789638618162,-179.29855241265804,179.36041303636236,0,1.5932202339172363,2019-08-06 15:43:07:412
0.05890605226159096,0.14711906015872955,9.839703559875488,-0.0012679742973618717,-0.004687775213352337,0.002408884601807939,-179.30493476071175,179.35628556942535,0,1.5962085723876953,2019-08-06 15:43:07:415
0.1283537894487381,0.10880305618047714,9.820545196533203,-0.0010015931047540657,-0.0033558695754062136,0.002408884601807939,-179.30314660362737,179.3566775211335,0,1.5999939441680908,2019-08-06 15:43:07:419
0.15948553383350372,0.12317155301570892,9.827729225158691,-0.0012679742973618717,-0.003622250702995438,0.0026752657293971638,-179.29783451736415,179.35541208081534,0,1.6032130718231201,2019-08-06 15:43:07:422
0.04693230614066124,0.1183820590376854,9.923519134521484,-0.0036654045757020556,-0.004421394085763112,0.0016097412190402653,-179.30571553855847,179.35525017346703,0,1.6062052249908447,2019-08-06 15:43:07:425
0.1618802845478058,0.08246081322431564,9.808571815490723,-0.001534355424951096,-0.004421394085763112,-0.0005213078992014032,-179.2997495007525,179.35883832546764,0,1.6099967956542969,2019-08-06 15:43:07:429
0.12356429547071457,0.0920398086309433,9.787018775939941,-0.0010015931047540657,0.00010708522141819095,0.0042735527550068365,-179.2993070668773,179.36106630643042,0,1.6132140159606934,2019-08-06 15:43:07:432
0.16427503526210785,0.15430329740047455,9.832518577575684,0.0013958372386046994,-0.0014912016822816417,0.004007171627417612,-179.29392703266058,179.35562894261807,0,1.6162056922912598,2019-08-06 15:43:07:435
0.12356429547071457,0.13993480801582336,9.870835304260254,-0.0020671176801295454,-0.0028231073202277645,0.0010769789638618162,-179.29310357981078,179.3527122998736,0,1.6199967861175537,2019-08-06 15:43:07:439
0.11398529261350632,0.10161881148815155,9.827729225158691,-0.0007352119771648412,0.0003734663733893835,0.002941646856986388,-179.29401878199877,179.35394236409533,0,1.6232104301452637,2019-08-06 15:43:07:442
0.1211695447564125,0.1566980481147766,9.851676940917969,-0.0020671176801295454,-0.0030894884478169893,0.0005442166761740764,-179.29352624893357,179.34898556558656,0,1.6262011528015137,2019-08-06 15:43:07:445
0.17864353954792023,0.07048705965280533,9.78222942352295,-0.0033990234481128304,-0.006286061978887684,-0.0007876890592999184,-179.28538812537622,179.35447523945783,0,1.6300065517425537,2019-08-06 15:43:07:449
0.10919579863548279,0.13275055587291718,9.734333992004395,-0.003132642320523606,-0.004155012958173888,-0.0007876890592999184,-179.28607701109163,179.3523245091672,0,1.6332190036773682,2019-08-06 15:43:07:452
0.12356429547071457,0.1375400573015213,9.748703002929688,-0.0012679742973618717,-0.0012248205546924172,0.0016097412190402653,-179.28562162101196,179.34932949913744,0,1.6362755298614502,2019-08-06 15:43:07:455
0.07327455282211304,0.12317155301570892,9.854071617126465,-0.0010015931047540657,-0.004687775213352337,0.0010769789638618162,-179.2904087330559,179.34822952176714,0,1.6399972438812256,2019-08-06 15:43:07:459
0.08524829894304276,0.07767131179571152,9.84449291229248,0.0016622183661939237,0.0006398475334878987,0.0018761223466294901,-179.2947931839963,179.35192419603516,0,1.6432099342346191,2019-08-06 15:43:07:462
0.056511301547288895,0.125566303730011,9.856466293334961,-0.002599880065345157,-0.003622250702995438,0.0010769789638618162,-179.30172258388276,179.35072221583772,0,1.6461834907531738,2019-08-06 15:43:07:465
0.08285354822874069,0.05611856281757355,9.719965934753418,-0.001534355424951096,-0.0028231073202277645,0.004007171627417612,-179.30531605046778,179.35742038895253,0,1.6499967575073242,2019-08-06 15:43:07:469
0.11638004332780838,0.10401355475187302,9.818150520324707,-0.004730929346133278,-0.0030894884478169893,0.002941646856986388,-179.30507015568185,179.35898557665743,0,1.653207778930664,2019-08-06 15:43:07:472
0.13314329087734222,0.07048705965280533,9.84449291229248,0.000863074918407669,-0.007617968136982457,0.003474409372239163,-179.30219731555175,179.36345682374952,0,1.656186819076538,2019-08-06 15:43:07:475
0.12595903873443604,0.1111978068947792,9.734333992004395,-0.003132642320523606,-0.0017575828098708665,0.0002778355485848519,-179.300950671651,179.36376790474839,0,1.65999436378479,2019-08-06 15:43:07:479
0.12356429547071457,0.11598730832338333,9.827729225158691,-0.0036654045757020556,-0.0009584393620846114,0.0037407904998283874,-179.30035095921744,179.36363381867594,0,1.663224458694458,2019-08-06 15:43:07:482
0.11398529261350632,0.1566980481147766,9.856466293334961,-0.004198166830880505,-0.008150730392160906,0.0010769789638618162,-179.29971989856654,179.3588519328327,0,1.6662237644195557,2019-08-06 15:43:07:485
0.09003780037164688,0.07048705965280533,9.789413452148438,-0.003132642320523606,-0.0028231073202277645,0.0026752657293971638,-179.30258808349288,179.36408784252075,0,1.6699974536895752,2019-08-06 15:43:07:489
0.16906453669071198,0.03696056827902794,9.830123901367188,-0.0010015931047540657,-0.0022903450650493154,0.0037407904998283874,-179.29641697167185,179.37267821077484,0,1.6732099056243896,2019-08-06 15:43:07:492
0.09961679577827454,0.07767131179571152,9.827729225158691,-0.0004688308170663259,-0.006552443626625559,0.0005442166761740764,-179.29777764275315,179.3762467640824,0,1.6761889457702637,2019-08-06 15:43:07:495
0.06609030067920685,0.12077680975198746,9.820545196533203,-0.00393178570329128,-0.0017575828098708665,0.0010769789638618162,-179.30373567673178,179.37546795774284,0,1.6799862384796143,2019-08-06 15:43:07:499
0.12595903873443604,0.1447243094444275,9.83491325378418,-0.0018007365525403206,-0.003888631830584663,0.0002778355485848519,-179.30228400480115,179.37142216378496,0,1.6831996440887451,2019-08-06 15:43:07:502
0.09003780037164688,0.16627705097198486,9.911545753479004,-0.0033990234481128304,-0.0012248205546924172,0.0026752657293971638,-179.30559838838928,179.36541140029922,0,1.6865522861480713,2019-08-06 15:43:07:506
0.10919579863548279,0.11598730832338333,9.784624099731445,-0.002333498937755932,-0.004687775213352337,0.003474409372239163,-179.30578713567624,179.36497379574914,0,1.6900150775909424,2019-08-06 15:43:07:509
0.1546960473060608,0.10640830546617508,9.775045394897461,-0.004198166830880505,-0.003888631830584663,0.0037407904998283874,-179.30083703240024,179.36595757481052,0,1.6932258605957031,2019-08-06 15:43:07:512
0.08045879751443863,0.13514530658721924,9.83491325378418,-0.0004688308170663259,-0.0030894884478169893,0.0026752657293971638,-179.304927934814,179.36297154173252,0,1.696211338043213,2019-08-06 15:43:07:515
0.13314329087734222,0.1183820590376854,9.78222942352295,0.0016622183661939237,-0.007351587009393233,0.002408884601807939,-179.301673091381,179.36149237395514,0,1.6999917030334473,2019-08-06 15:43:07:519
0.17624878883361816,0.10161881148815155,9.904361724853516,-0.0010015931047540657,-0.002023963937460091,-0.0005213078992014032,-179.2948848119908,179.36268662485537,0,1.7032063007354736,2019-08-06 15:43:07:522
0.11877479404211044,0.14711906015872955,9.878019332885742,-0.0010015931047540657,-0.0017575828098708665,0.002941646856986388,-179.2949149575517,179.35853500290344,0,1.7061870098114014,2019-08-06 15:43:07:525
0.12356429547071457,0.06330281496047974,9.889992713928223,-0.003132642320523606,-0.006286061978887684,0.0021425034742187147,-179.29335782694648,179.36469885651178,0,1.7099909782409668,2019-08-06 15:43:07:529
0.1283537894487381,0.15430329740047455,9.837308883666992,-0.002599880065345157,-0.0009584393620846114,0.004539933882596061,-179.2923673333821,179.35990047847883,0,1.7131996154785156,2019-08-06 15:43:07:532
0.09722204506397247,0.0656975656747818,9.98338794708252,-0.0012679742973618717,-0.0022903450650493154,-0.0010540701868891429,-179.29497909000423,179.3653730827796,0,1.7161691188812256,2019-08-06 15:43:07:535
0.17864353954792023,0.12796105444431305,9.851676940917969,-0.0028662611929343817,-0.0033558695754062136,0.0021425034742187147,-179.28758260671515,179.36379733430653,0,1.7199897766113281,2019-08-06 15:43:07:539
0.12356429547071457,0.11598730832338333,9.832518577575684,0.000863074918407669,-0.0054869185961200105,-0.004250643847997001,-179.28643858916854,179.36284833463264,0,1.7232112884521484,2019-08-06 15:43:07:542
0.11877479404211044,0.09922406077384949,9.796597480773926,0.000863074918407669,-0.0033558695754062136,0.0042735527550068365,-179.28625336741993,179.36384041059077,0,1.7262041568756104,2019-08-06 15:43:07:545
0.17145928740501404,0.12077680975198746,9.928308486938477,-0.0007352119771648412,-0.002023963937460091,0.0013433600914510408,-179.28030922306885,179.3627810504665,0,1.7300000190734863,2019-08-06 15:43:07:549
0.12595903873443604,0.08725030720233917,9.75349235534668,6.393147468507523e-05,-0.007085205881804008,0.0016097412190402653,-179.27862729514723,179.36526333209025,0,1.7332122325897217,2019-08-06 15:43:07:552
0.1283537894487381,0.1375400573015213,9.851676940917969,-0.0004688308170663259,-0.0028231073202277645,0.0016097412190402653,-179.2776529064987,179.3620394327741,0,1.7361960411071777,2019-08-06 15:43:07:555
0.11638004332780838,0.1447243094444275,9.9139404296875,6.393147468507523e-05,-0.0006920582344953867,0.005871839520542184,-179.27850081242684,179.35805804043122,0,1.739997386932373,2019-08-06 15:43:07:559
0.1618802845478058,0.10640830546617508,9.772649765014648,-0.001534355424951096,-0.003622250702995438,0.0021425034742187147,-179.27323105864073,179.35872511630495,0,1.7435364723205566,2019-08-06 15:43:07:563
0.1546960473060608,0.09922406077384949,9.851676940917969,0.00033031263071992917,-0.004421394085763112,0.0008105978362725917,-179.2690151140899,179.35995287133122,0,1.746593952178955,2019-08-06 15:43:07:566
0.2073805332183838,0.07767131179571152,9.808571815490723,-0.002333498937755932,-0.004954156340941561,0.0016097412190402653,-179.25846840074502,179.36412360194123,0,1.7499809265136719,2019-08-06 15:43:07:569
0.10440629720687866,0.19980354607105255,9.83491325378418,-0.0010015931047540657,-0.00255672619263854,0.0018761223466294901,-179.26068661552665,179.3537396984943,0,1.7531013488769531,2019-08-06 15:43:07:572
0.11638004332780838,0.1375400573015213,9.90196704864502,-0.0010015931047540657,-0.004421394085763112,0.0010769789638618162,-179.26124956256612,179.35092015943184,0,1.7561454772949219,2019-08-06 15:43:07:575
0.1546960473060608,0.0848555639386177,9.858860969543457,-0.0012679742973618717,-0.0014912016822816417,0.002408884601807939,-179.25772322614648,179.3543130167831,0,1.759993314743042,2019-08-06 15:43:07:579
0.13314329087734222,0.1566980481147766,9.76546573638916,0.0005966937908184444,-0.0014912016822816417,0.003474409372239163,-179.2566848519619,179.34873623082217,0,1.7631146907806396,2019-08-06 15:43:07:582
0.16427503526210785,0.08725030720233917,9.743913650512695,-0.0007352119771648412,-0.0030894884478169893,-0.0007876890592999184,-179.25170327670176,179.35162709251924,0,1.7661724090576172,2019-08-06 15:43:07:585
0.11638004332780838,0.10161881148815155,9.868440628051758,0.00033031263071992917,-0.002023963937460091,0.0013433600914510408,-179.25271978175687,179.3527238996654,0,1.7700097560882568,2019-08-06 15:43:07:589
0.1475117951631546,0.08725030720233917,9.801386833190918,-0.0018007365525403206,-0.0022903450650493154,-0.00025492675535753324,-179.25001950145037,179.3557842585913,0,1.7731282711029053,2019-08-06 15:43:07:592
0.08285354822874069,0.1375400573015213,9.808571815490723,-0.0007352119771648412,-0.00015929593055300162,0.0016097412190402653,-179.2553125737771,179.3527264332202,0,1.7761642932891846,2019-08-06 15:43:07:595
0.09003780037164688,0.06090806424617767,9.727149963378906,0.0005966937908184444,-0.0054869185961200105,-0.0010540701868891429,-179.25841408905677,179.35836774242355,0,1.7800123691558838,2019-08-06 15:43:07:599
0.15948553383350372,0.07048705965280533,9.892387390136719,-0.001534355424951096,-0.006019680851298459,0.0008105978362725917,-179.25371673611556,179.36330464317422,0,1.7831370830535889,2019-08-06 15:43:07:602
0.08045879751443863,0.0920398086309433,9.791808128356934,-0.0010015931047540657,-0.0017575828098708665,0.0002778355485848519,-179.2589282160829,179.36543772082754,0,1.7861614227294922,2019-08-06 15:43:07:605
0.1355380415916443,0.12077680975198746,9.842098236083984,0.0005966937908184444,-0.004687775213352337,0.0010769789638618162,-179.25672274009452,179.36390887277136,0,1.7908997535705566,2019-08-06 15:43:07:610
0.19540677964687347,0.09443455934524536,9.849282264709473,0.0011294561110154748,-0.002023963937460091,0.0010769789638618162,-179.2485835569017,179.36549163834567,0,1.7933027744293213,2019-08-06 15:43:07:612
0.0756693035364151,0.13275055587291718,9.889992713928223,-0.0007352119771648412,-0.004687775213352337,0.003208027984575613,-179.25405959171093,179.36292453941655,0,1.7962849140167236,2019-08-06 15:43:07:615
0.16427503526210785,0.12317155301570892,9.854071617126465,-0.0010015931047540657,-0.004155012958173888,0.002941646856986388,-179.24893726707668,179.361569850935,0,1.8003122806549072,2019-08-06 15:43:07:619
0.2001962810754776,0.13993480801582336,9.820545196533203,-0.0020671176801295454,-0.004687775213352337,0.003208027984575613,-179.2397348342019,179.3583934635108,0,1.8036057949066162,2019-08-06 15:43:07:623
0.10919579863548279,0.0656975656747818,9.827729225158691,-0.0018007365525403206,-0.003888631830584663,0.0008105978362725917,-179.24160187988093,179.36384622434593,0,1.8063836097717285,2019-08-06 15:43:07:625
0.05172180384397507,0.08246081322431564,9.842098236083984,-0.0033990234481128304,0.0003734663733893835,-0.0005213078992014032,-179.25082805713038,179.36769789274928,0,1.8102047443389893,2019-08-06 15:43:07:629
0.15709078311920166,0.14951379597187042,9.849282264709473,-0.00020244967322245603,-0.00042567707439687154,0.003474409372239163,-179.2474617784444,179.3629855198228,0,1.8133227825164795,2019-08-06 15:43:07:632
0.15709078311920166,0.12077680975198746,9.940282821655273,-0.0004688308170663259,0.0006398475334878987,0.0037407904998283874,-179.24452268129005,179.36188984669838,0,1.8166086673736572,2019-08-06 15:43:07:636
0.13793279230594635,0.0920398086309433,9.806177139282227,-0.0018007365525403206,-0.009482635509958379,-0.0005213078992014032,-179.24171130252404,179.36423942415857,0,1.8199961185455322,2019-08-06 15:43:07:639
0.1618802845478058,0.1303558051586151,9.899572372436523,0.000863074918407669,-0.0022903450650493154,0.002408884601807939,-179.23774034939282,179.36171552551818,0,1.8231072425842285,2019-08-06 15:43:07:642
0.13793279230594635,0.07767131179571152,9.79420280456543,-0.001534355424951096,-0.004155012958173888,0.002941646856986388,-179.23609552300036,179.36567199040087,0,1.8263349533081055,2019-08-06 15:43:07:645
0.08764304965734482,0.1111978068947792,9.856466293334961,0.0019285994937831485,-0.002023963937460091,-0.0015868324420675922,-179.24073965396312,179.36500734802954,0,1.8302490711212158,2019-08-06 15:43:07:649
0.06130080297589302,0.07767131179571152,9.882808685302734,-0.002599880065345157,-0.006286061978887684,0.003208027984575613,-179.24771773022562,179.36915606007463,0,1.8333637714385986,2019-08-06 15:43:07:652
0.10440629720687866,0.1375400573015213,9.923519134521484,-0.0033990234481128304,-0.0009584393620846114,0.003474409372239163,-179.25054649327683,179.36646266820756,0,1.8363561630249023,2019-08-06 15:43:07:655
0.13314329087734222,0.13514530658721924,9.815755844116211,0.000863074918407669,-0.00255672619263854,0.0018761223466294901,-179.24943198543374,179.36316781932422,0,1.8402643203735352,2019-08-06 15:43:07:659
0.08045879751443863,0.12796105444431305,9.882808685302734,-0.0012679742973618717,0.0003734663733893835,0.0016097412190402653,-179.25518001282876,179.36129118604416,0,1.8433969020843506,2019-08-06 15:43:07:662
0.09722204506397247,0.12077680975198746,9.9139404296875,-0.004198166830880505,-0.0028231073202277645,0.0013433600914510408,-179.25836115056362,179.36081685951103,0,1.8464128971099854,2019-08-06 15:43:07:665
0.17145928740501404,0.15430329740047455,9.854071617126465,-0.0010015931047540657,-0.0022903450650493154,0.004007171627417612,-179.252761642392,179.3558749918453,0,1.8502662181854248,2019-08-06 15:43:07:669
0.18582779169082642,0.10880305618047714,9.894782066345215,0.0021949807514095357,-0.00015929593055300162,0.0026752657293971638,-179.24616048756423,179.3557755674197,0,1.853365182876587,2019-08-06 15:43:07:672
0.1283537894487381,0.0848555639386177,9.78222942352295,-0.002599880065345157,-0.004421394085763112,0.00507269613777451,-179.24545712662865,179.35915837075996,0,1.8563673496246338,2019-08-06 15:43:07:675
0.17145928740501404,0.12796105444431305,9.856466293334961,0.0005966937908184444,-0.0030894884478169893,-0.00025492675535753324,-179.23994110146072,179.3569688854304,0,1.8602583408355713,2019-08-06 15:43:07:679
0.1403275430202484,0.1447243094444275,9.935493469238281,-0.001534355424951096,-0.004421394085763112,0.0037407904998283874,-179.2381884216072,179.35340610580243,0,1.8633606433868408,2019-08-06 15:43:07:682
0.10919579863548279,0.08725030720233917,9.827729225158691,0.0013958372386046994,-0.0033558695754062136,1.1454389502251989e-05,-179.24012878996626,179.35593020014932,0,1.8663544654846191,2019-08-06 15:43:07:685
0.11877479404211044,0.09922406077384949,9.899572372436523,0.0005966937908184444,-0.004421394085763112,0.00507269613777451,-179.2406125262763,179.3571960690035,0,1.8702442646026611,2019-08-06 15:43:07:689
0.11159054934978485,0.12796105444431305,9.83491325378418,-0.00020244967322245603,-0.004421394085763112,0.003474409372239163,-179.2420292061587,179.3551788389333,0,1.8733444213867188,2019-08-06 15:43:07:692
0.1618802845478058,0.11598730832338333,9.889992713928223,-0.001534355424951096,-0.004954156340941561,0.0002778355485848519,-179.23759401080176,179.35489697950564,0,1.8763635158538818,2019-08-06 15:43:07:695
0.18582779169082642,0.15430329740047455,9.763071060180664,-0.0033990234481128304,-0.0033558695754062136,0.0016097412190402653,-179.23029858278682,179.35043416191363,0,1.8802647590637207,2019-08-06 15:43:07:699
0.15230129659175873,0.07288181036710739,9.832518577575684,6.393147468507523e-05,-0.004687775213352337,1.1454389502251989e-05,-179.22712591103735,179.3549205756639,0,1.8833739757537842,2019-08-06 15:43:07:702
0.09722204506397247,0.17825080454349518,9.849282264709473,-0.001534355424951096,-0.0022903450650493154,0.0018761223466294901,-179.23087753621857,179.34735038667534,0,1.8864448070526123,2019-08-06 15:43:07:706
0.08764304965734482,0.14951379597187042,9.837308883666992,-0.003132642320523606,0.0014389909812741537,0.004806315010185286,-179.23636067557814,179.34366249277628,0,1.89027738571167,2019-08-06 15:43:07:709
0.08764304965734482,0.171066552400589,9.878019332885742,0.000863074918407669,-0.0012248205546924172,0.0008105978362725917,-179.2412534286161,179.33679619409,0,1.893376350402832,2019-08-06 15:43:07:712
0.12356429547071457,0.08246081322431564,9.878019332885742,-0.0004688308170663259,-0.0009584393620846114,0.003474409372239163,-179.2419328175152,179.3405737436292,0,1.8963868618011475,2019-08-06 15:43:07:715
0.12356429547071457,0.13514530658721924,9.777440071105957,-0.0007352119771648412,-0.003888631830584663,-0.0013204513144783674,-179.24176721054968,179.338084201715,0,1.900261402130127,2019-08-06 15:43:07:719
0.06609030067920685,0.1447243094444275,9.76546573638916,-0.001534355424951096,-0.0028231073202277645,0.0021425034742187147,-179.24868380451488,179.334609170713,0,1.9033708572387695,2019-08-06 15:43:07:722
0.14511704444885254,0.1447243094444275,9.904361724853516,-0.0036654045757020556,-0.004421394085763112,-0.0010540701868891429,-179.24617086073093,179.33179620195864,0,1.9063947200775146,2019-08-06 15:43:07:725
0.12595903873443604,0.0656975656747818,9.882808685302734,-0.003132642320523606,-0.0022903450650493154,-0.0018532135696568165,-179.2461477787313,179.33822039480913,0,1.9102473258972168,2019-08-06 15:43:07:729
0.09003780037164688,0.10401355475187302,9.832518577575684,-0.00020244967322245603,-0.00255672619263854,0.0002778355485848519,-179.25028660610255,179.33936959297725,0,1.9133484363555908,2019-08-06 15:43:07:732
0.10440629720687866,0.14232955873012543,9.767860412597656,-0.0010015931047540657,-0.0012248205546924172,0.003474409372239163,-179.25282499698804,179.3360560375789,0,1.9163718223571777,2019-08-06 15:43:07:735
