ACCELEROMETER X (m/s²),ACCELEROMETER Y (m/s²),ACCELEROMETER Z (m/s²),GYROSCOPE X (rad/s),GYROSCOPE Y (rad/s),GYROSCOPE Z (rad/s),Time since start in ms ,YYYY-MO-DD HH-MI-SS_SSS,Pitch (Deg),Roll (Deg),Heading (Deg),MagX,MagY,MagZ
0.04480816051363945,0.06847068667411804,9.84411907196045,0.001803400363816213,-6.659528596096748e-05,-0.004442438259861242,0.0,2019-08-07 14:22:29:737,-3.5947840924389296,3.5920297223647757,0,-14.094261169433594,23.090599060058594,-29.687911987304688
0.03043966367840767,0.09002342820167542,9.846513748168945,0.002602543746583887,-0.0048614559686148365,-0.005774343897807364,0.00984644889831543,2019-08-07 14:22:29:747,-7.116658134784529,7.108273805481225,0,-14.094261169433594,23.090599060058594,-29.687911987304688
0.08312415331602097,0.11397092789411545,9.801013946533203,-0.0032578413204533796,0.004994646272335123,-0.00604072502539659,0.020021438598632812,2019-08-07 14:22:29:757,-10.567460052623824,10.554644953404795,0,-14.094261169433594,23.090599060058594,-29.687911987304688
0.01607116498053074,0.06368118524551392,9.827356338500977,0.001803400363816213,-0.0016648821774698163,-0.005241581642628916,0.029848814010620117,2019-08-07 14:22:29:767,-13.953318188810105,13.93513150825098,0,-14.094261169433594,23.090599060058594,-29.687911987304688
0.06875565648078918,0.08283918350934982,9.796224594116211,0.001803400363816213,-0.0005993576020943366,-0.00257777036673667,0.03984880447387695,2019-08-07 14:22:29:777,-17.265872710449127,17.2457263709152,0,-14.094261169433594,23.090599060058594,-29.687911987304688
0.08551890403032303,0.08762867748737335,9.832145690917969,0.00020511348449834825,0.002597216124032102,-0.0041760571322720175,0.04986429214477539,2019-08-07 14:22:29:787,-20.51204905381738,20.490483829291826,0,-14.094261169433594,23.090599060058594,-29.687911987304688
0.028044912964105606,0.04452318698167801,9.827356338500977,0.00047149462834221814,-0.0021976444326482656,-0.005241581642628916,0.05984616279602051,2019-08-07 14:22:29:797,-23.697306176703698,23.67521831330959,0,-14.094261169433594,23.090599060058594,-29.687911987304688
0.020860664546489716,0.08523393422365189,9.78664493560791,0.003668068256940785,0.00019978586194656375,8.60411123386422e-05,0.06985974311828613,2019-08-07 14:22:29:807,-26.8210298191712,26.789671768856195,0,-14.094261169433594,23.090599060058594,-29.687911987304688
0.05199240893125534,0.07326018065214157,9.78664493560791,0.002336162618994662,-0.00246402556023749,-0.0031105326219151193,0.07985162734985352,2019-08-07 14:22:29:817,-29.877139078912997,29.843989791554844,0,-14.094261169433594,23.090599060058594,-29.687911987304688
0.05199240893125534,0.08523393422365189,9.8848295211792,0.0012706381086377639,-0.0016648821774698163,-0.0020450079815210586,0.08989548683166504,2019-08-07 14:22:29:827,-32.872630115736314,32.83651276175738,0,-14.094261169433594,23.090599060058594,-29.687911987304688
0.01607116498053074,0.06368118524551392,9.81538200378418,0.00047149462834221814,-0.003529550070594388,0.004348139470731819,0.0998847484588623,2019-08-07 14:22:29:837,-35.811321546740025,35.772083569470844,0,-14.094261169433594,23.090599060058594,-29.687911987304688
0.025650164112448692,0.09241817891597748,9.839329719543457,0.005799117537728906,-6.659528596096748e-05,-0.002844151494325895,0.10986590385437012,2019-08-07 14:22:29:847,-38.6920705107223,38.6426288770775,0,-14.843955993652344,23.240537643432617,-30.13772964477539
0.04001866281032562,0.05649693310260773,9.846513748168945,0.002336162618994662,-0.001132119922291367,-0.003643294877093568,0.11986064910888672,2019-08-07 14:22:29:857,-41.5129364925246,41.46189032016771,0,-14.843955993652344,23.240537643432617,-30.13772964477539
0.04480816051363945,0.07326018065214157,9.8034086227417,0.0020697814914054373,0.002597216124032102,-0.0015122457263426093,0.12986421585083008,2019-08-07 14:22:29:867,-44.27889904887223,44.22292673283425,0,-14.843955993652344,23.240537643432617,-30.13772964477539
0.03043966367840767,0.10678667575120926,9.836935043334961,0.00020511348449834825,0.00019978586194656375,0.00061880342440835,0.139876127243042,2019-08-07 14:22:29:877,-46.98988744177946,46.92591367910728,0,-14.843955993652344,23.240537643432617,-30.13772964477539
0.011281665414571762,0.07326018065214157,9.836935043334961,0.0015370192362269886,-0.0021976444326482656,-0.007106249535753488,0.14986014366149902,2019-08-07 14:22:29:887,-49.64754347764388,49.577999747961705,0,-14.843955993652344,23.240537643432617,-30.13772964477539
0.028044912964105606,0.08762867748737335,9.846513748168945,0.004467211899782784,-0.0021976444326482656,-0.003643294877093568,0.15985941886901855,2019-08-07 14:22:29:897,-52.25009492677336,52.17373383807058,0,-14.843955993652344,23.240537643432617,-30.13772964477539
0.06396616250276566,0.1043919250369072,9.777066230773926,-0.0005940299795425521,-0.0021976444326482656,-0.004975200515039691,0.16986393928527832,2019-08-07 14:22:29:907,-54.796361484665795,54.71835812672491,0,-14.843955993652344,23.240537643432617,-30.13772964477539
0.05678191035985947,0.08283918350934982,9.846513748168945,0.005266355282550457,0.0028635972516213265,-0.0031105326219151193,0.17986083030700684,2019-08-07 14:22:29:917,-57.29543358058067,57.211394417865506,0,-14.843955993652344,23.240537643432617,-30.13772964477539
0.054387159645557404,0.08762867748737335,9.860882759094238,0.002336162618994662,-0.0008657387296835611,-0.00604072502539659,0.18987822532653809,2019-08-07 14:22:29:927,-59.742717781568274,59.6556695913714,0,-14.843955993652344,23.240537643432617,-30.13772964477539
0.01367641519755125,0.08044443279504776,9.805803298950195,0.0010042569160299579,-0.002996787815415939,-0.008704536821437486,0.1998891830444336,2019-08-07 14:22:29:937,-62.14458065183233,62.05259108997772,0,-14.843955993652344,23.240537643432617,-30.13772964477539
0.03762391209602356,0.09481292963027954,9.801013946533203,-0.00272507906527493,-0.0021976444326482656,-0.0017786268539318336,0.20985889434814453,2019-08-07 14:22:29:947,-64.49605990857465,64.40197976326996,0,-14.843955993652344,23.240537643432617,-30.13772964477539
0.03283441439270973,0.10918142646551132,9.860882759094238,0.0012706381086377639,-6.659528596096748e-05,-0.004975200515039691,0.2198643684387207,2019-08-07 14:22:29:957,-66.80228568216417,66.70053905556738,0,-14.843955993652344,23.240537643432617,-30.13772964477539
0.049597661942243576,0.07565493136644363,9.872856140136719,-0.0005940299795425521,0.001531691613675204,-0.005507962770218141,0.2298593521118164,2019-08-07 14:22:29:967,-69.06134296240029,68.95808076368347,0,-14.843955993652344,23.240537643432617,-30.13772964477539
0.061571408063173294,0.06607593595981598,9.789039611816406,0.004999974154961233,0.00019978586194656375,-0.004708819387450467,0.23988056182861328,2019-08-07 14:22:29:977,-71.2730209998346,71.16837091191029,0,-14.843955993652344,23.240537643432617,-30.13772964477539
0.04001866281032562,0.1043919250369072,9.796224594116211,-0.0011267922997395827,-0.0016648821774698163,-0.004975200515039691,0.24985790252685547,2019-08-07 14:22:29:987,-73.44194670291354,73.33342394550368,0,-14.843955993652344,23.240537643432617,-30.13772964477539
0.004097416531294584,0.09960243105888367,9.810592651367188,-0.0024586979376857053,0.0004661670057904337,-0.007106249535753488,0.2598593235015869,2019-08-07 14:22:29:997,-75.57289096394123,75.456502664522,0,-14.843955993652344,23.240537643432617,-30.13772964477539
0.04001866281032562,0.0972076803445816,9.829751014709473,0.0007378757884407334,-0.0016648821774698163,-0.003909676004682793,0.2698640823364258,2019-08-07 14:22:30:007,-77.65583267052972,77.53562635957748,0,-14.843955993652344,23.240537643432617,-30.13772964477539
-0.0030868323519825935,0.08523393422365189,9.779460906982422,0.001803400363816213,-0.004595074841025611,-0.0041760571322720175,0.2798616886138916,2019-08-07 14:22:30:017,-72.50049820831978,79.57391437129503,0,-14.843955993652344,23.240537643432617,-30.13772964477539
0.04001866281032562,0.09241817891597748,9.810592651367188,-0.002192316810096481,-0.003263168943005164,-0.0017786268539318336,0.28987860679626465,2019-08-07 14:22:30:027,-74.64397856897212,81.57287466393221,0,-14.843955993652344,23.240537643432617,-30.13772964477539
0.04480816051363945,0.13552367687225342,9.860882759094238,0.002336162618994662,-0.00033297644199582136,-0.007905393438669812,0.2998642921447754,2019-08-07 14:22:30:037,-76.7457052588669,83.52435932305215,0,-14.843955993652344,23.240537643432617,-30.13772964477539
0.03762391209602356,0.07326018065214157,9.872856140136719,-0.0029914601928641544,-0.0013985010498805918,-0.004442438259861242,0.3098597526550293,2019-08-07 14:22:30:047,-78.80563936959595,85.44704812084072,0,-14.843955993652344,23.240537643432617,-30.13772964477539
0.04480816051363945,0.09241817891597748,9.812987327575684,-0.0032578413204533796,0.001531691613675204,-0.007372630663342713,0.31986141204833984,2019-08-07 14:22:30:057,-80.82515431285522,87.32914488403543,0,-14.843955993652344,23.240537643432617,-30.13772964477539
0.03762391209602356,0.1043919250369072,9.887224197387695,0.0020697814914054373,0.0017980727412644285,-0.0012458645987533845,0.329880952835083,2019-08-07 14:22:30:067,-82.80530227660952,89.16929910590098,0,-14.843955993652344,23.240537643432617,-30.13772964477539
0.03283441439270973,0.11876042932271957,9.824960708618164,0.0012706381086377639,0.001531691613675204,-0.0012458645987533845,0.3398566246032715,2019-08-07 14:22:30:077,-84.74622461633724,90.97135067588145,0,-14.843955993652344,23.240537643432617,-30.13772964477539
0.018465915694832802,0.10678667575120926,9.812987327575684,-0.0011267922997395827,-0.004062312325772837,-0.0023113892391474454,0.3498690128326416,2019-08-07 14:22:30:087,-86.64685995315575,92.74008757317179,0,-14.843955993652344,23.240537643432617,-30.13772964477539
0.01607116498053074,0.08044443279504776,9.824960708618164,-0.004856128085988727,-0.005127837096204061,-0.0007131023435749355,0.3598604202270508,2019-08-07 14:22:30:097,-88.50917152652316,94.47862791443218,0,-15.44371223449707,22.64078140258789,-30.13772964477539
0.025650164112448692,0.10199718177318573,9.726776123046875,-0.004323365830810277,0.00019978586194656375,-0.004708819387450467,0.3698596954345703,2019-08-07 14:22:30:107,-90.33607841772297,96.17946685371182,0,-15.44371223449707,22.64078140258789,-30.13772964477539
0.01607116498053074,0.09241817891597748,9.846513748168945,0.00393444938453001,-0.004062312325772837,-0.0031105326219151193,0.37987637519836426,2019-08-07 14:22:30:117,-92.12520173676536,97.84290953542525,0,-15.44371223449707,22.64078140258789,-30.13772964477539
0.07833465933799744,0.07565493136644363,9.86567211151123,0.0010042569160299579,0.0017980727412644285,0.00035242226430983473,0.38985395431518555,2019-08-07 14:22:30:127,-93.87460653317062,99.47670143577702,0,-15.44371223449707,22.64078140258789,-30.13772964477539
0.004097416531294584,0.12833942472934723,9.810592651367188,0.003135306001762336,-6.659528596096748e-05,-0.0033769137495043436,0.39986252784729004,2019-08-07 14:22:30:137,-95.59659838303787,101.07041573595777,0,-15.44371223449707,22.64078140258789,-30.13772964477539
0.006492166314274073,0.08762867748737335,9.808197975158691,0.0012706381086377639,-0.0008657387296835611,-0.004975200515039691,0.409865140914917,2019-08-07 14:22:30:147,-97.28342168178733,102.63805617440987,0,-15.44371223449707,22.64078140258789,-30.13772964477539
0.011281665414571762,0.1043919250369072,9.772276878356934,0.001803400363816213,-0.004062312325772837,-0.005774343897807364,0.4198582172393799,2019-08-07 14:22:30:157,-98.93415093584221,104.17204241704529,0,-15.44371223449707,22.64078140258789,-30.13772964477539
0.02325541339814663,0.08523393422365189,9.777066230773926,0.0015370192362269886,-0.003529550070594388,-0.006573487280575038,0.42988061904907227,2019-08-07 14:22:30:167,-100.55075600728227,105.67774705851674,0,-15.44371223449707,22.64078140258789,-30.13772964477539
0.025650164112448692,0.1307341754436493,9.887224197387695,-6.126766340918298e-05,-0.003529550070594388,-0.005507962770218141,0.4402923583984375,2019-08-07 14:22:30:177,-102.13470463769923,107.14907690858584,0,-15.44371223449707,22.64078140258789,-30.13772964477539
0.006492166314274073,0.12594467401504517,9.839329719543457,-0.0013931734273288073,-0.004328693453362062,-0.007639012311080588,0.450131893157959,2019-08-07 14:22:30:187,-103.68886289586855,108.5921980182085,0,-15.44371223449707,22.64078140258789,-30.13772964477539
-0.01745533011853695,0.13312892615795135,9.796224594116211,0.001803400363816213,-0.0005993576020943366,-0.005241581642628916,0.4598522186279297,2019-08-07 14:22:30:197,-98.01680035062972,110.00379794331519,0,-15.44371223449707,22.64078140258789,-30.13772964477539
0.03043966367840767,0.08044443279504776,9.812987327575684,0.00020511348449834825,-0.0037959311981836125,-0.004975200515039691,0.4698624610900879,2019-08-07 14:22:30:207,-99.65077615760825,111.3942129745781,0,-15.44371223449707,22.64078140258789,-30.13772964477539
0.01367641519755125,0.0780496820807457,9.84411907196045,-0.0019259356825072562,-0.0021976444326482656,-0.00950367968405651,0.4798767566680908,2019-08-07 14:22:30:217,-101.25493287881638,112.75832640191895,0,-15.44371223449707,22.64078140258789,-30.13772964477539
0.018465915694832802,0.05889168381690979,9.791434288024902,0.001803400363816213,-0.002996787815415939,-0.003909676004682793,0.48987483978271484,2019-08-07 14:22:30:227,-102.8259907426316,114.09525530592231,0,-15.44371223449707,22.64078140258789,-30.13772964477539
-0.03900807723402977,0.09241817891597748,9.777066230773926,-0.0037906035756318283,-0.0016648821774698163,-0.007905393438669812,0.49985647201538086,2019-08-07 14:22:30:237,-97.17310971143444,115.40464321064186,0,-15.44371223449707,22.64078140258789,-30.13772964477539
0.08551890403032303,0.1235499233007431,9.915961265563965,-0.005921652596345625,-0.002996787815415939,-0.006307106152985815,0.5098667144775391,2019-08-07 14:22:30:247,-98.81808054812439,116.68560172382583,0,-15.44371223449707,22.64078140258789,-30.13772964477539
0.06875565648078918,0.09002342820167542,9.827356338500977,-0.004856128085988727,-0.00033297644199582136,-0.00604072502539659,0.5198879241943359,2019-08-07 14:22:30:257,-100.43351447533462,117.94412532388526,0,-15.44371223449707,22.64078140258789,-30.13772964477539
0.15496665239334106,0.03733893856406212,9.841724395751953,-0.0011267922997395827,0.005793789655102798,-0.0017786268539318336,0.5298597812652588,2019-08-07 14:22:30:267,-102.01004627217438,119.1815262119238,0,-15.44371223449707,22.64078140258789,-30.13772964477539
0.16933514177799225,0.034944187849760056,9.853697776794434,-0.00032764881944403687,-0.001132119922291367,0.008876618639748637,0.5398578643798828,2019-08-07 14:22:30:277,-103.54951923968274,120.3940158811047,0,-15.44371223449707,22.64078140258789,-30.13772964477539
0.10228215157985687,0.15947116911411285,9.70522403717041,-0.003524222448042604,-0.02484004209825263,0.009409380894927086,0.5498480796813965,2019-08-07 14:22:30:287,-105.05251863730508,121.5692850815659,0,-15.44371223449707,22.64078140258789,-30.13772964477539
-0.34074655175209045,0.17862917482852936,9.834540367126465,-0.008851844999827095,-0.02004518076134929,0.015536147349627901,0.5598526000976562,2019-08-07 14:22:30:297,-99.3798955717193,122.72206043441781,0,-15.44371223449707,22.64078140258789,-30.13772964477539
-0.41258904337882996,-0.10155654698610306,9.700433731079102,0.00393444938453001,0.0071256958131975705,-0.013765778765781403,0.5698649883270264,2019-08-07 14:22:30:307,-93.84501361282572,116.67740377268503,0,-15.44371223449707,22.64078140258789,-30.13772964477539
-0.3167990446090698,0.0780496820807457,10.009356498718262,-0.007253558754440398,0.007392076940786795,-0.017495114552030545,0.5798583030700684,2019-08-07 14:22:30:317,-88.40851766535329,117.93899054460857,0,-15.44371223449707,22.64078140258789,-30.13772964477539
0.2890726327896118,-0.11113554239273071,9.858488082885742,-0.0056552714687564,-0.005926980478971734,-0.028949503558515853,0.5898630619049072,2019-08-07 14:22:30:327,-90.20342658709521,111.99630512507179,0,-15.44371223449707,22.64078140258789,-30.13772964477539
0.01607116498053074,0.23131366074085236,9.616618156433105,0.013790551365405645,-0.01924603685843296,-0.009770061331794384,0.5998351573944092,2019-08-07 14:22:30:337,-91.98666655001601,113.32109924752662,0,-15.44371223449707,22.64078140258789,-30.13772964477539
0.06396616250276566,0.15947116911411285,9.468143463134766,0.0012706381086377639,0.007392076940786795,-0.01882701966982802,0.6098580360412598,2019-08-07 14:22:30:347,-93.74335174271805,114.6346634305341,0,-15.29377269744873,23.690353393554688,-29.687911987304688
0.1597561538219452,-0.2811627686023712,9.731565475463867,-0.016843279867801136,0.02284218234096182,-0.02228997588893389,0.6198394298553467,2019-08-07 14:22:30:357,-95.46247671065962,108.78450843878491,0,-15.29377269744873,23.690353393554688,-29.687911987304688
0.15496665239334106,0.1762344241142273,10.062041282653809,-0.00272507906527493,-0.00033297644199582136,-0.011368348097329731,0.629859447479248,2019-08-07 14:22:30:367,-97.13539285403556,110.1902830553734,0,-15.29377269744873,23.690353393554688,-29.687911987304688
0.17651939392089844,0.20018191635608673,10.009356498718262,0.0071310231756750294,-0.022975373684979407,-0.008704536821437486,0.6398899555206299,2019-08-07 14:22:30:377,-98.75953836894719,111.55954645873028,0,-15.29377269744873,23.690353393554688,-29.687911987304688
0.0352291613817215,-0.029714053496718407,9.822566032409668,0.0010042569160299579,-0.010189078520399329,-0.007372630663342713,0.6498386859893799,2019-08-07 14:22:30:387,-100.3745459096557,105.73126100809061,0,-15.29377269744873,23.690353393554688,-29.687911987304688
0.04480816051363945,0.09481292963027954,9.769882202148438,0.002336162618994662,0.020178372105366875,0.0008851845519975746,0.6598539352416992,2019-08-07 14:22:30:397,-101.97314685723521,107.20420171678643,0,-15.29377269744873,23.690353393554688,-29.687911987304688
0.21483539044857025,0.12833942472934723,9.951883316040039,0.006598260920496581,0.006060170782692022,0.0011515656795867992,0.6698336601257324,2019-08-07 14:22:30:407,-103.51234628991075,108.64164337855532,0,-15.29377269744873,23.690353393554688,-29.687911987304688
0.2315986305475235,0.08523393422365189,9.841724395751953,0.0034016871293515603,-0.009922697912958753,0.005680045108677942,0.6798388957977295,2019-08-07 14:22:30:417,-105.00956378664446,110.05697555163808,0,-15.29377269744873,23.690353393554688,-29.687911987304688
0.11665065586566925,0.03015468828380108,9.714802742004395,0.006864642048085805,-0.010721840775577777,0.015003385094449453,0.6898326873779297,2019-08-07 14:22:30:427,-106.48959701023979,111.4484270429049,0,-15.29377269744873,23.690353393554688,-29.687911987304688
0.09270315617322922,0.07086542993783951,9.721986770629883,0.0028689248741731116,0.01564989241620141,0.008610237512159412,0.6998581886291504,2019-08-07 14:22:30:437,-107.95768842535567,112.80949084561485,0,-15.29377269744873,23.690353393554688,-29.687911987304688
0.17412464320659637,0.09241817891597748,9.846513748168945,0.004200830512119234,0.012986081140309162,0.008610237512159412,0.7098572254180908,2019-08-07 14:22:30:447,-109.38556349074982,114.14018738692135,0,-15.29377269744873,23.690353393554688,-29.687911987304688
0.21004588901996613,0.08044443279504776,9.839329719543457,0.002602543746583887,-0.006193361606560959,0.01606890960480635,0.7198355197906494,2019-08-07 14:22:30:457,-110.76992339410943,115.4465569136045,0,-15.29377269744873,23.690353393554688,-29.687911987304688
0.13820339739322662,0.08523393422365189,9.724381446838379,0.0071310231756750294,-0.00859079175486398,0.01313871668117623,0.729835033416748,2019-08-07 14:22:30:467,-112.133416729403,116.72357824903402,0,-15.29377269744873,23.690353393554688,-29.687911987304688
0.1405981481075287,0.07565493136644363,9.669301986694336,-0.0016595545549180318,0.0031299783792105513,0.009143000287486512,0.7398374080657959,2019-08-07 14:22:30:477,-113.47584508224922,117.98107300826163,0,-15.29377269744873,23.690353393554688,-29.687911987304688
0.1453876495361328,0.12115518003702164,9.808197975158691,0.0007378757884407334,0.010322268824119614,0.011007667660462434,0.7498366832733154,2019-08-07 14:22:30:487,-114.79513895213434,119.20688312780865,0,-15.29377269744873,23.690353393554688,-29.687911987304688
0.14778240025043488,0.12115518003702164,9.824960708618164,0.0034016871293515603,-6.659528596096748e-05,0.0075447130018025145,0.759850263595581,2019-08-07 14:22:30:497,-116.08196370991622,120.40670284104121,0,-15.29377269744873,23.690353393554688,-29.687911987304688
0.15496665239334106,0.10678667575120926,9.812987327575684,0.005266355282550457,-0.009922697912958753,0.009143000287486512,0.7698380947113037,2019-08-07 14:22:30:507,-117.33666484451413,121.58314576596827,0,-15.29377269744873,23.690353393554688,-29.687911987304688
0.04480816051363945,0.0780496820807457,9.702829360961914,0.00020511348449834825,-0.0021976444326482656,0.001950709062354473,0.7798328399658203,2019-08-07 14:22:30:517,-118.5834063627063,122.74215017953415,0,-15.29377269744873,23.690353393554688,-29.687911987304688
0.15017715096473694,0.1235499233007431,9.8034086227417,-0.0013931734273288073,0.0033963595067997765,0.003548996087964146,0.7898368835449219,2019-08-07 14:22:30:527,-119.79609329778447,123.87364883226603,0,-15.29377269744873,23.690353393554688,-29.687911987304688
0.1860983967781067,0.09960243105888367,9.863277435302734,0.00047149462834221814,-0.0027304066878267143,0.005946426236267168,0.7999074459075928,2019-08-07 14:22:30:537,-120.97700914715152,124.98433782663908,0,-15.29377269744873,23.690353393554688,-29.687911987304688
0.17651939392089844,0.03973368555307388,9.848908424377441,-0.0008604111071317767,-0.007791648372096307,0.005946426236267168,0.8098273277282715,2019-08-07 14:22:30:547,-122.13259327105325,126.08050734965992,0,-15.29377269744873,23.690353393554688,-29.687911987304688
0.08312415331602097,0.05649693310260773,9.805803298950195,-0.002192316810096481,-0.0037959311981836125,0.008876618639748637,0.8198587894439697,2019-08-07 14:22:30:557,-123.27808955393738,127.15352984565268,0,-15.29377269744873,23.690353393554688,-29.687911987304688
0.18130889534950256,0.04452318698167801,9.829751014709473,-0.0016595545549180318,0.00019978586194656375,0.00674556961903484,0.8298382759094238,2019-08-07 14:22:30:567,-124.39150579614132,128.20619886379774,0,-15.29377269744873,23.690353393554688,-29.687911987304688
0.15736140310764313,0.020575689151883125,9.846513748168945,0.0028689248741731116,-6.659528596096748e-05,0.008343856384570188,0.8398358821868896,2019-08-07 14:22:30:577,-125.48532648126432,129.2380698247978,0,-15.29377269744873,23.690353393554688,-29.687911987304688
0.1453876495361328,0.01578618958592415,9.772276878356934,-0.0005940299795425521,-0.006193361606560959,-0.0020450079815210586,0.8498361110687256,2019-08-07 14:22:30:587,-126.55509513602222,130.25179086625153,0,-15.29377269744873,23.690353393554688,-29.687911987304688
0.13580864667892456,0.0038124416023492813,9.85609245300293,0.0010042569160299579,-0.0048614559686148365,0.0038153772155533703,0.8598442077636719,2019-08-07 14:22:30:597,-127.6054725704439,131.24574745113026,0,-14.54407787322998,24.14017105102539,-29.238094329833984
0.12144014984369278,0.04691793769598007,9.719592094421387,-0.0013931734273288073,0.004994646272335123,0.006479188491445616,0.8698339462280273,2019-08-07 14:22:30:607,-128.64184798341415,132.21608249986133,0,-14.54407787322998,24.14017105102539,-29.238094329833984
0.1453876495361328,0.034944187849760056,9.836935043334961,0.002602543746583887,0.002597216124032102,0.008610237512159412,0.8798341751098633,2019-08-07 14:22:30:617,-129.65353425321317,133.166228821153,0,-14.54407787322998,24.14017105102539,-29.238094329833984
0.14778240025043488,0.06607593595981598,9.829751014709473,0.0028689248741731116,-0.0016648821774698163,0.005946426236267168,0.8898546695709229,2019-08-07 14:22:30:627,-130.64230020178795,134.09358727652938,0,-14.54407787322998,24.14017105102539,-29.238094329833984
0.08791365474462509,0.04691793769598007,9.824960708618164,0.001803400363816213,-0.0075252672445070825,0.0016843279347652483,0.8998363018035889,2019-08-07 14:22:30:637,-131.61498316346993,135.005232641323,0,-14.54407787322998,24.14017105102539,-29.238094329833984
0.05199240893125534,0.12115518003702164,9.84411907196045,-0.00272507906527493,-0.005127837096204061,-0.0041760571322720175,0.9098353385925293,2019-08-07 14:22:30:647,-132.57375232627643,135.89255547831004,0,-14.54407787322998,24.14017105102539,-29.238094329833984
0.061571408063173294,0.08283918350934982,9.808197975158691,0.002602543746583887,0.0028635972516213265,-0.0015122457263426093,0.9198331832885742,2019-08-07 14:22:30:657,-133.51669139650912,136.76356528605254,0,-14.54407787322998,24.14017105102539,-29.238094329833984
0.049597661942243576,0.09002342820167542,9.860882759094238,0.002602543746583887,-0.003263168943005164,0.0014179468071760237,0.9302639961242676,2019-08-07 14:22:30:667,-134.4386827601408,137.61630852847577,0,-14.54407787322998,24.14017105102539,-29.238094329833984
0.0352291613817215,0.06847068667411804,9.832145690917969,-0.004589746958399502,-0.008324410627274756,-0.004442438259861242,0.9398753643035889,2019-08-07 14:22:30:677,-135.34131074587603,138.45847935548736,0,-14.54407787322998,24.14017105102539,-29.238094329833984
0.011281665414571762,0.12833942472934723,9.805803298950195,-0.0005940299795425521,-0.001132119922291367,-0.009237299076615935,0.9498765468597412,2019-08-07 14:22:30:687,-136.23253038631682,139.27464634270862,0,-14.54407787322998,24.14017105102539,-29.238094329833984
0.01367641519755125,0.08523393422365189,9.793828964233398,-0.0005940299795425521,0.0009989292934781736,-0.007905393438669812,0.9598658084869385,2019-08-07 14:22:30:697,-137.10683988167105,140.07951415892447,0,-14.54407787322998,24.14017105102539,-29.238094329833984
0.02325541339814663,0.1307341754436493,9.839329719543457,-0.00272507906527493,-0.001132119922291367,-0.010569204194413408,0.9698655605316162,2019-08-07 14:22:30:707,-137.96135903119432,140.86422919773068,0,-14.54407787322998,24.14017105102539,-29.238094329833984
0.03283441439270973,0.11397092789411545,9.832145690917969,0.0012706381086377639,-0.004328693453362062,-0.005507962770218141,0.9798519611358643,2019-08-07 14:22:30:717,-138.79587783381956,141.63294964902082,0,-14.54407787322998,24.14017105102539,-29.238094329833984
-0.03900807723402977,0.09002342820167542,9.729170799255371,-0.0029914601928641544,-0.0027304066878267143,-0.013233016510602954,0.9898529052734375,2019-08-07 14:22:30:727,-132.4230214150181,142.39136773048102,0,-14.54407787322998,24.14017105102539,-29.238094329833984
-0.03421857953071594,0.10678667575120926,9.822566032409668,-0.0016595545549180318,-0.0019312633050590406,-0.01935978296530377,0.9998502731323242,2019-08-07 14:22:30:737,-126.17746884615275,143.13201456192365,0,-14.54407787322998,24.14017105102539,-29.238094329833984
-0.00787633191794157,0.12833942472934723,9.810592651367188,-0.0005940299795425521,-0.00033297644199582136,-0.018294258454946873,1.009875774383545,2019-08-07 14:22:30:747,-120.05465201279856,143.8547189765915,0,-14.54407787322998,24.14017105102539,-29.238094329833984
-0.04619232565164566,0.09960243105888367,9.817776679992676,-0.0037906035756318283,-0.004595074841025611,-0.021757212593458142,1.019885778427124,2019-08-07 14:22:30:757,-114.05636771956384,144.5681301034126,0,-14.54407787322998,24.14017105102539,-29.238094329833984
-0.02463958039879799,0.15228691697120667,9.877645492553711,-0.0019259356825072562,-0.00859079175486398,-0.02415464222161251,1.0298681259155273,2019-08-07 14:22:30:767,-108.17328361894594,145.26018144379125,0,-14.54407787322998,24.14017105102539,-29.238094329833984
-0.05816607549786568,0.15228691697120667,9.834540367126465,-6.126766340918298e-05,0.0009989292934781736,-0.026019310634885735,1.039888858795166,2019-08-07 14:22:30:777,-102.41715740911135,145.93726931269393,0,-14.54407787322998,24.14017105102539,-29.238094329833984
-0.08690307289361954,0.11397092789411545,9.810592651367188,-0.003524222448042604,-0.0008657387296835611,-0.02735121575268321,1.0498690605163574,2019-08-07 14:22:30:787,-96.77847946553372,146.60718720347853,0,-14.54407787322998,24.14017105102539,-29.238094329833984
-0.01745533011853695,0.11157617717981339,9.824960708618164,-0.008585464392386522,-0.0016648821774698163,-0.03401074550285977,1.0598728656768799,2019-08-07 14:22:30:797,-91.24401055848827,147.2668531047046,0,-14.54407787322998,24.14017105102539,-29.238094329833984
-0.022244829684495926,0.11876042932271957,9.832145690917969,-0.005122509213577951,-0.002996787815415939,-0.026552073930361485,1.0698890686035156,2019-08-07 14:22:30:807,-85.82003751157124,147.91055638355374,0,-14.54407787322998,24.14017105102539,-29.238094329833984
-0.06056082621216774,0.1307341754436493,9.777066230773926,-0.0019259356825072562,-0.0019312633050590406,-0.02522016673196941,1.0798709392547607,2019-08-07 14:22:30:817,-80.50965223262837,148.53810299267812,0,-14.54407787322998,24.14017105102539,-29.238094329833984
-0.05816607549786568,0.12594467401504517,9.911171913146973,-0.005921652596345625,-0.0008657387296835611,-0.03214607708958655,1.0898733139038086,2019-08-07 14:22:30:827,-75.30569796307849,149.15610596202157,0,-14.54407787322998,24.14017105102539,-29.238094329833984
0.006492166314274073,0.10918142646551132,9.944698333740234,0.00047149462834221814,-0.0016648821774698163,-0.024953786124528834,1.0998835563659668,2019-08-07 14:22:30:837,-77.39790013285963,149.76013848942918,0,-14.54407787322998,24.14017105102539,-29.238094329833984
-0.010271081700921059,0.11397092789411545,9.86567211151123,-0.004056984703221053,-0.003529550070594388,-0.023621881006731363,1.1098711490631104,2019-08-07 14:22:30:847,-72.24915575578005,150.3539735448891,0,-14.69401741027832,23.990232467651367,-29.687911987304688
0.018465915694832802,0.11157617717981339,9.78664493560791,-0.0024586979376857053,-0.0016648821774698163,-0.026019310634885735,1.1198713779449463,2019-08-07 14:22:30:857,-74.40107562371692,150.93521080292834,0,-14.69401741027832,23.990232467651367,-29.687911987304688
-0.005481582134962082,0.13312892615795135,9.812987327575684,-0.0013931734273288073,0.00019978586194656375,-0.019093400277268593,1.1298866271972656,2019-08-07 14:22:30:867,-69.31380657571643,151.50174481386472,0,-14.69401741027832,23.990232467651367,-29.687911987304688
0.04480816051363945,0.07326018065214157,9.753118515014648,-0.0019259356825072562,-0.00033297644199582136,-0.013765778765781403,1.1398706436157227,2019-08-07 14:22:30:877,-71.52207920380596,152.06418225965734,0,-14.69401741027832,23.990232467651367,-29.687911987304688
0.07354515790939331,0.09481292963027954,9.836935043334961,-0.0032578413204533796,0.002597216124032102,-0.010036441939234959,1.1498732566833496,2019-08-07 14:22:30:887,-73.68452913585823,152.6136838434808,0,-14.69401741027832,23.990232467651367,-29.687911987304688
0.061571408063173294,0.09002342820167542,9.781855583190918,-0.002192316810096481,0.0012653104860859794,-0.006307106152985815,1.1598718166351318,2019-08-07 14:22:30:897,-75.80433610697344,153.1520952903278,0,-14.69401741027832,23.990232467651367,-29.687911987304688
0.05678191035985947,0.1307341754436493,9.827356338500977,-0.0011267922997395827,-0.001132119922291367,0.0008851845519975746,1.1698753833770752,2019-08-07 14:22:30:907,-77.88099251236918,153.67444298701471,0,-14.69401741027832,23.990232467651367,-29.687911987304688
0.08551890403032303,0.07086542993783951,9.805803298950195,0.0028689248741731116,-0.004328693453362062,0.0014179468071760237,1.1798887252807617,2019-08-07 14:22:30:917,-79.9109452959296,154.1910598225903,0,-14.69401741027832,23.990232467651367,-29.687911987304688
6.405263423919678,1.7064794301986694,6.551338195800781,0.17654943748732732,0.00019978586194656375,-0.02921588416595643,1.189967155456543,2019-08-07 14:22:30:927,-81.02575813524386,154.31533153901765,0,-14.69401741027832,23.990232467651367,-29.687911987304688
2.334188938140869,1.0527127981185913,8.177372932434082,0.18214344064655238,0.23621348374513348,-0.07823001580356295,1.1998541355133057,2019-08-07 14:22:30:937,-82.81775505628269,154.58119516609318,0,-14.69401741027832,23.990232467651367,-29.687911987304688
1.8504494428634644,1.3376879692077637,9.93511962890625,-0.010716513413100317,0.014317986258106635,-0.02415464222161251,1.2098698616027832,2019-08-07 14:22:30:947,-84.55843935776669,154.94223158513222,0,-14.69401741027832,23.990232467651367,-29.687911987304688
0.8422598242759705,1.2850035429000854,8.61800765991211,0.08704537029496946,-0.1750790063809537,0.02006462599849607,1.2198705673217773,2019-08-07 14:22:30:957,-86.25731830548604,155.2248934752377,0,-14.69401741027832,23.990232467651367,-29.687911987304688
0.5285475850105286,0.16665542125701904,6.769260406494141,0.026044084274807276,-0.00965631626522088,0.0014179468071760237,1.2298862934112549,2019-08-07 14:22:30:967,-88.03744884854906,155.677542784629,0,-14.69401741027832,23.990232467651367,-29.687911987304688
-0.26890406012535095,-0.853507936000824,9.561538696289062,0.04202695401075535,0.15976208504271514,-0.003643294877093568,1.2398591041564941,2019-08-07 14:22:30:977,-82.79838084027989,149.04247743398892,0,-14.69401741027832,23.990232467651367,-29.687911987304688
0.4782578647136688,0.31034040451049805,11.415075302124023,-0.05786597559713632,0.038825052076909894,-0.0015122457263426093,1.2498550415039062,2019-08-07 14:22:30:987,-84.71622217194323,149.662960141888,0,-14.69401741027832,23.990232467651367,-29.687911987304688
-0.22579854726791382,0.5498153567314148,10.627202033996582,-0.03202700466053558,-0.09569742307728367,-0.0017786268539318336,1.2598576545715332,2019-08-07 14:22:30:997,-79.39249357754542,150.228455786627,0,-14.69401741027832,23.990232467651367,-29.687911987304688
-0.6855905055999756,0.21694517135620117,9.324458122253418,0.03696571206641143,-0.07838264822353812,0.016868053507722677,1.2698748111724854,2019-08-07 14:22:31:007,-74.24465974654917,150.776438514152,0,-14.69401741027832,23.990232467651367,-29.687911987304688
-0.4054047763347626,0.19299766421318054,9.451379776000977,0.008729310461359028,0.05773811473648809,0.021662913804328717,1.2798545360565186,2019-08-07 14:22:31:017,-69.24124315627557,151.3326217816707,0,-14.69401741027832,23.990232467651367,-29.687911987304688
0.43036285042762756,-0.3817422688007355,10.093173027038574,-0.020838996261490852,0.11900577512230703,-0.0009794834711641602,1.2898573875427246,2019-08-07 14:22:31:027,-71.47442780668291,144.76099372623761,0,-14.69401741027832,23.990232467651367,-29.687911987304688
0.717732846736908,0.20018191635608673,10.416463851928711,-0.00272507906527493,0.0017980727412644285,-0.0007131023435749355,1.2998569011688232,2019-08-07 14:22:31:037,-73.5671156004421,145.44528459563202,0,-14.69401741027832,23.990232467651367,-29.687911987304688
0.47107359766960144,0.3917618989944458,9.559144020080566,0.02710960878516417,-0.077583508481811,0.01367147893635468,1.3098580837249756,2019-08-07 14:22:31:047,-75.59578015096753,146.07421836312008,0,-14.69401741027832,23.990232467651367,-29.687911987304688
0.11425590515136719,-0.29074177145957947,9.130483627319336,0.02710960878516417,-0.00859079175486398,0.02006462599849607,1.3198699951171875,2019-08-07 14:22:31:057,-77.66469621743806,139.5739708929741,0,-14.69401741027832,23.990232467651367,-29.687911987304688
0.3680993616580963,-0.36497899889945984,9.590275764465332,0.00047149462834221814,0.06120106887499936,0.007011950746624065,1.3298544883728027,2019-08-07 14:22:31:067,-79.70175172493414,133.2258164395404,0,-14.69401741027832,23.990232467651367,-29.687911987304688
0.43754711747169495,0.05649693310260773,9.961462020874023,-0.010450131765362443,0.020711133320248026,0.0048809017259102685,1.3398582935333252,2019-08-07 14:22:31:077,-81.66904954061991,134.1606710300346,0,-14.69401741027832,23.990232467651367,-29.687911987304688
0.2507566213607788,0.16186591982841492,9.836935043334961,0.010327597226894376,-0.041888436344557606,0.0022170901899436976,1.3498563766479492,2019-08-07 14:22:31:087,-83.58294816315538,135.05280554834465,0,-14.69401741027832,23.990232467651367,-29.687911987304688
-0.07253457605838776,0.05889168381690979,9.56872272491455,0.01698712593677364,-0.042687580247473926,0.00674556961903484,1.3598525524139404,2019-08-07 14:22:31:097,-78.29601565982868,135.93516227113824,0,-14.843955993652344,21.441268920898438,-29.83785057067871
-0.11324531584978104,0.09241817891597748,9.592670440673828,0.0007378757884407334,0.02337494563643757,0.012872336073735658,1.3698766231536865,2019-08-07 14:22:31:107,-73.15677930365831,136.805004017204,0,-14.843955993652344,21.441268920898438,-29.83785057067871
0.16454564034938812,-0.015345555730164051,9.827356338500977,-0.013113944081551988,0.039091434764945074,-0.010036441939234959,1.379859447479248,2019-08-07 14:22:31:117,-75.29637080825698,130.4780441132999,0,-14.843955993652344,21.441268920898438,-29.83785057067871
0.25315138697624207,0.24328741431236267,9.9854097366333,0.0010042569160299579,-0.011254603030756228,-0.006573487280575038,1.3898587226867676,2019-08-07 14:22:31:127,-77.35507922864755,131.44000548627557,0,-14.843955993652344,21.441268920898438,-29.83785057067871
0.11904539912939072,0.16186591982841492,9.77467155456543,0.003135306001762336,-0.03149956976783459,-0.0007131023435749355,1.3998541831970215,2019-08-07 14:22:31:137,-79.37634332966677,132.39047138739343,0,-14.843955993652344,21.441268920898438,-29.83785057067871
0.11665065586566925,-0.04887205362319946,9.781855583190918,-0.0029914601928641544,0.002597216124032102,0.003548996087964146,1.4098742008209229,2019-08-07 14:22:31:147,-81.37661308236453,126.15007019243323,0,-14.843955993652344,21.441268920898438,-29.83785057067871
0.2315986305475235,-0.01774030551314354,9.70522403717041,-0.0013931734273288073,0.029235331483697814,-0.004708819387450467,1.419853687286377,2019-08-07 14:22:31:157,-83.33812261173496,120.02994408057637,0,-14.843955993652344,21.441268920898438,-29.83785057067871
0.2651251256465912,0.04452318698167801,9.968646049499512,0.00020511348449834825,-0.00033297644199582136,-0.005507962770218141,1.4298579692840576,2019-08-07 14:22:31:167,-85.24070363853363,121.22411198428726,0,-14.843955993652344,21.441268920898438,-29.83785057067871
0.20765113830566406,0.013391440734267235,9.978224754333496,0.0012706381086377639,-0.029901284042596548,-0.0009794834711641602,1.4398624897003174,2019-08-07 14:22:31:177,-87.09524889241557,122.39737806656633,0,-14.843955993652344,21.441268920898438,-29.83785057067871
-0.005481582134962082,0.09481292963027954,9.738750457763672,0.007397404303264255,-0.006992504989328633,0.006479188491445616,1.4498534202575684,2019-08-07 14:22:31:187,-81.75006618684944,123.53412477526705,0,-14.843955993652344,21.441268920898438,-29.83785057067871
0.004097416531294584,0.06607593595981598,9.755513191223145,0.006065498665318131,0.02044475271280745,-0.002844151494325895,1.4598734378814697,2019-08-07 14:22:31:197,-83.72608624719106,124.65226830863361,0,-14.843955993652344,21.441268920898438,-29.83785057067871
0.16454564034938812,0.07086542993783951,9.951883316040039,0.004200830512119234,0.012986081140309162,-0.0009794834711641602,1.469850778579712,2019-08-07 14:22:31:207,-85.63989468624891,125.74870982199057,0,-14.843955993652344,21.441268920898438,-29.83785057067871
0.09988740086555481,0.09002342820167542,9.9854097366333,0.004733593027372009,-0.020311561368789862,-0.012700254255424506,1.4798567295074463,2019-08-07 14:22:31:217,-87.5042224960253,126.82074541950632,0,-14.843955993652344,21.441268920898438,-29.83785057067871
-0.03421857953071594,0.10678667575120926,9.74593448638916,0.006065498665318131,-0.017647751133194917,-0.004442438259861242,1.489856481552124,2019-08-07 14:22:31:227,-82.14825246763097,127.86836947618256,0,-14.843955993652344,21.441268920898438,-29.83785057067871
-0.005481582134962082,0.11876042932271957,9.690855026245117,0.003668068256940785,0.01405160565066606,-0.0033769137495043436,1.4998540878295898,2019-08-07 14:22:31:237,-76.91382366826416,128.89490058985663,0,-14.843955993652344,21.441268920898438,-29.83785057067871
0.16694039106369019,0.07326018065214157,9.875250816345215,0.003135306001762336,0.008990363706322143,-0.0023113892391474454,1.5098705291748047,2019-08-07 14:22:31:247,-78.96123379756298,129.90673832130543,0,-14.843955993652344,21.441268920898438,-29.83785057067871
0.152571901679039,0.06847068667411804,9.930330276489258,0.004999974154961233,-0.010721840775577777,-0.007639012311080588,1.5198547840118408,2019-08-07 14:22:31:257,-80.95839357345103,130.89789941158,0,-14.843955993652344,21.441268920898438,-29.83785057067871
0.02325541339814663,0.1427079290151596,9.801013946533203,0.0020697814914054373,-0.02004518076134929,-0.006573487280575038,1.5298552513122559,2019-08-07 14:22:31:267,-82.92525086145523,131.86209523354393,0,-14.843955993652344,21.441268920898438,-29.83785057067871
-0.03900807723402977,0.15468166768550873,9.736355781555176,0.0034016871293515603,0.004461884017156674,0.00061880342440835,1.5398590564727783,2019-08-07 14:22:31:277,-77.67384315119413,132.80473890822597,0,-14.843955993652344,21.441268920898438,-29.83785057067871
0.04480816051363945,0.13312892615795135,9.74593448638916,0.0012706381086377639,0.01698179753399888,-0.00257777036673667,1.5498743057250977,2019-08-07 14:22:31:287,-79.72464763088998,133.73227741040597,0,-14.843955993652344,21.441268920898438,-29.83785057067871
0.10946640372276306,0.10678667575120926,9.913566589355469,0.0020697814914054373,0.0017980727412644285,-0.007106249535753488,1.5598816871643066,2019-08-07 14:22:31:297,-81.71851226054814,134.64412576113622,0,-14.843955993652344,21.441268920898438,-29.83785057067871
0.04001866281032562,0.14510267972946167,9.913566589355469,-0.0008604111071317767,-0.021643468567181936,-0.012433872607686629,1.5698516368865967,2019-08-07 14:22:31:307,-83.66739999856713,135.53495359855404,0,-14.843955993652344,21.441268920898438,-29.83785057067871
-0.055771324783563614,0.15468166768550873,9.686065673828125,0.003668068256940785,-0.006992504989328633,-0.008438155693848261,1.5798594951629639,2019-08-07 14:22:31:317,-78.39672061703341,136.40389514415864,0,-14.843955993652344,21.441268920898438,-29.83785057067871
0.042413413524627686,0.15947116911411285,9.810592651367188,0.0015370192362269886,0.01165417498221439,-0.007372630663342713,1.5898518562316895,2019-08-07 14:22:31:327,-80.43037098760828,137.25632965039816,0,-14.843955993652344,21.441268920898438,-29.83785057067871
0.107071653008461,0.14510267972946167,9.90638256072998,0.0028689248741731116,0.0017980727412644285,-0.006307106152985815,1.5998742580413818,2019-08-07 14:22:31:337,-82.41039047010871,138.09280507535462,0,-14.843955993652344,21.441268920898438,-29.83785057067871
0.11425590515136719,0.12115518003702164,9.86567211151123,0.0020697814914054373,-0.010189078520399329,-0.010302823586972834,1.6098527908325195,2019-08-07 14:22:31:347,-84.34320335273976,138.91571760414675,0,-14.394139289855957,22.790719985961914,-29.687911987304688
0.04001866281032562,0.11397092789411545,9.769882202148438,-0.00032764881944403687,-0.010455460168137204,-0.007106249535753488,1.619856595993042,2019-08-07 14:22:31:357,-86.24577253739825,139.72422018139537,0,-14.394139289855957,22.790719985961914,-29.687911987304688
0.018465915694832802,0.14031317830085754,9.724381446838379,-0.00032764881944403687,0.005527408527513573,-0.007639012311080588,1.6298551559448242,2019-08-07 14:22:31:367,-88.12178426166997,140.51338644767478,0,-14.394139289855957,22.790719985961914,-29.687911987304688
0.049597661942243576,0.05410218611359596,9.8848295211792,-6.126766340918298e-05,0.008990363706322143,-0.00897091742887806,1.6398570537567139,2019-08-07 14:22:31:377,-89.9586479668099,141.29688130210462,0,-14.394139289855957,22.790719985961914,-29.687911987304688
0.1334138959646225,0.07086542993783951,9.915961265563965,-0.00272507906527493,-0.007791648372096307,-0.007372630663342713,1.649876356124878,2019-08-07 14:22:31:387,-91.7396748184238,142.06428749437424,0,-14.394139289855957,22.790719985961914,-29.687911987304688
0.08551890403032303,0.09241817891597748,9.810592651367188,-0.0024586979376857053,-0.01604946436765957,-0.010036441939234959,1.6598551273345947,2019-08-07 14:22:31:397,-93.48590001105833,142.81358488383876,0,-14.394139289855957,22.790719985961914,-29.687911987304688
-0.019850080832839012,0.11397092789411545,9.707618713378906,-0.00032764881944403687,0.0031299783792105513,-0.010036441939234959,1.6698589324951172,2019-08-07 14:22:31:407,-88.02028331628384,143.5440443882915,0,-14.394139289855957,22.790719985961914,-29.687911987304688
0.05917666107416153,0.07326018065214157,9.798619270324707,-0.0032578413204533796,0.01405160565066606,-0.005507962770218141,1.679858684539795,2019-08-07 14:22:31:417,-89.86084698429126,144.26642535637237,0,-14.394139289855957,22.790719985961914,-29.687911987304688
0.10946640372276306,0.09241817891597748,9.980619430541992,-0.0032578413204533796,-0.004328693453362062,-0.00897091742887806,1.6898713111877441,2019-08-07 14:22:31:427,-91.64862864016125,144.97231782798013,0,-14.394139289855957,22.790719985961914,-29.687911987304688
0.06396616250276566,0.10199718177318573,9.901593208312988,-0.0008604111071317767,-0.0115209846784941,-0.009770061331794384,1.6998565196990967,2019-08-07 14:22:31:437,-93.40179389058612,145.6615501167808,0,-14.394139289855957,22.790719985961914,-29.687911987304688
-0.010271081700921059,0.14031317830085754,9.755513191223145,0.001803400363816213,-0.006193361606560959,-0.004442438259861242,1.7098510265350342,2019-08-07 14:22:31:447,-87.9314888345093,146.33082653949702,0,-14.394139289855957,22.790719985961914,-29.687911987304688
0.025650164112448692,0.11397092789411545,9.769882202148438,-0.0024586979376857053,0.0071256958131975705,-0.006307106152985815,1.7198550701141357,2019-08-07 14:22:31:457,-89.77385322731627,146.99222400745202,0,-14.394139289855957,22.790719985961914,-29.687911987304688
0.09509790688753128,0.06847068667411804,9.918355941772461,-0.0019259356825072562,0.007392076940786795,-0.00604072502539659,1.7298698425292969,2019-08-07 14:22:31:467,-91.57154615135744,147.64555191143575,0,-14.394139289855957,22.790719985961914,-29.687911987304688
0.05917666107416153,0.09481292963027954,9.937514305114746,-0.0024586979376857053,-0.006193361606560959,-0.008171774566259036,1.7398779392242432,2019-08-07 14:22:31:477,-93.32981114445144,148.2830898007544,0,-14.394139289855957,22.790719985961914,-29.687911987304688
0.0017026669811457396,0.10678667575120926,9.801013946533203,-0.00272507906527493,-0.009389935657780304,-0.004708819387450467,1.7498688697814941,2019-08-07 14:22:31:487,-95.05774819474628,148.90647194765185,0,-14.394139289855957,22.790719985961914,-29.687911987304688
-0.04858707636594772,0.11876042932271957,9.74593448638916,-0.0013931734273288073,0.0004661670057904337,-0.00604072502539659,1.7598557472229004,2019-08-07 14:22:31:497,-89.56256740384961,149.51516072571908,0,-14.394139289855957,22.790719985961914,-29.687911987304688
-0.005481582134962082,0.04452318698167801,9.848908424377441,-0.0011267922997395827,0.01005588821667904,-0.010302823586972834,1.7698609828948975,2019-08-07 14:22:31:507,-84.17760315886099,150.12031031946006,0,-14.394139289855957,22.790719985961914,-29.687911987304688
-0.012665831483900547,0.09960243105888367,9.90638256072998,0.002336162618994662,-0.003263168943005164,-0.007106249535753488,1.7798535823822021,2019-08-07 14:22:31:517,-78.89368529932685,150.70507226111084,0,-14.394139289855957,22.790719985961914,-29.687911987304688
0.02325541339814663,0.08044443279504776,9.832145690917969,0.0028689248741731116,-0.010455460168137204,-0.005507962770218141,1.7898786067962646,2019-08-07 14:22:31:527,-80.90721581180313,151.27998046959047,0,-14.394139289855957,22.790719985961914,-29.687911987304688
-0.06774507462978363,0.05889168381690979,9.755513191223145,-0.0013931734273288073,-0.00246402556023749,-0.005507962770218141,1.7998533248901367,2019-08-07 14:22:31:537,-75.69564888423194,151.84824361503763,0,-14.394139289855957,22.790719985961914,-29.687911987304688
-0.019850080832839012,0.07086542993783951,9.779460906982422,0.0007378757884407334,0.003929121761978225,-0.004442438259861242,1.8098526000976562,2019-08-07 14:22:31:547,-70.58626788792692,152.40256089250158,0,-14.394139289855957,22.790719985961914,-29.687911987304688
0.03043966367840767,0.06368118524551392,9.853697776794434,-6.126766340918298e-05,0.0052610273999243486,-0.006573487280575038,1.8198530673980713,2019-08-07 14:22:31:557,-72.77395682088904,152.94713850812875,0,-14.394139289855957,22.790719985961914,-29.687911987304688
0.018465915694832802,0.06368118524551392,9.829751014709473,-0.0032578413204533796,-0.004328693453362062,-0.011634728704770307,1.8298609256744385,2019-08-07 14:22:31:567,-74.91389253417015,153.48260283850257,0,-14.394139289855957,22.790719985961914,-29.687911987304688
-0.03661332651972771,0.1043919250369072,9.743539810180664,0.0007378757884407334,-0.010455460168137204,-0.012700254255424506,1.8398585319519043,2019-08-07 14:22:31:577,-69.81405135203764,154.00025973715336,0,-14.394139289855957,22.790719985961914,-29.687911987304688
-0.06056082621216774,0.06847068667411804,9.724381446838379,-0.004323365830810277,0.0007325481658889489,-0.00897091742887806,1.8498773574829102,2019-08-07 14:22:31:587,-64.82531878526386,154.5146182629405,0,-14.394139289855957,22.790719985961914,-29.687911987304688
-0.019850080832839012,0.07565493136644363,9.801013946533203,-0.0011267922997395827,0.004728265144745899,-0.011634728704770307,1.8598687648773193,2019-08-07 14:22:31:597,-59.93378587261712,155.01611279383545,0,-14.993894577026367,23.090599060058594,-30.88742446899414
-0.02463958039879799,0.09960243105888367,9.858488082885742,-0.0037906035756318283,-0.003529550070594388,-0.011634728704770307,1.8698585033416748,2019-08-07 14:22:31:607,-55.1359943624972,155.50633973419954,0,-14.993894577026367,23.090599060058594,-30.88742446899414
-0.08690307289361954,0.07086542993783951,9.829751014709473,-0.0019259356825072562,-0.012320127541113125,-0.011368348097329731,1.8798577785491943,2019-08-07 14:22:31:617,-50.436487812905675,155.98903318787552,0,-14.993894577026367,23.090599060058594,-30.88742446899414
-0.11324531584978104,0.09960243105888367,9.762697219848633,0.00047149462834221814,-0.00566059935138251,-0.011101966449591856,1.8898570537567139,2019-08-07 14:22:31:627,-45.83787166143624,156.45729717608864,0,-14.993894577026367,23.090599060058594,-30.88742446899414
-0.04619232565164566,0.09002342820167542,9.77467155456543,-0.0019259356825072562,0.0009989292934781736,-0.011901110352508182,1.899872064590454,2019-08-07 14:22:31:637,-41.327091199384604,156.91868083394212,0,-14.993894577026367,23.090599060058594,-30.88742446899414
-0.05337657779455185,0.14510267972946167,9.858488082885742,0.003668068256940785,0.00019978586194656375,-0.01536406553131675,1.9098529815673828,2019-08-07 14:22:31:647,-36.90686558374408,157.36138653068798,0,-14.993894577026367,23.090599060058594,-30.88742446899414
-0.06774507462978363,0.11636567860841751,9.942303657531738,-0.0019259356825072562,-0.013385652051470022,-0.013765778765781403,1.9198529720306396,2019-08-07 14:22:31:657,-32.56902019637843,157.8018289153485,0,-14.993894577026367,23.090599060058594,-30.88742446899414
-0.04140282794833183,0.09002342820167542,9.8034086227417,0.001803400363816213,-0.004328693453362062,-0.012167492000246055,1.9298551082611084,2019-08-07 14:22:31:667,-28.32004824507412,158.23425701559484,0,-14.993894577026367,23.090599060058594,-30.88742446899414
-0.04858707636594772,0.10199718177318573,9.841724395751953,-0.0011267922997395827,0.003662740634389001,-0.009237299076615935,1.9398598670959473,2019-08-07 14:22:31:677,-24.16136204544959,158.65832930994674,0,-14.993894577026367,23.090599060058594,-30.88742446899414
0.006492166314274073,0.11876042932271957,9.875250816345215,0.0012706381086377639,0.002330834996442878,-0.007905393438669812,1.9498555660247803,2019-08-07 14:22:31:687,-27.278689657039074,159.07066937552116,0,-14.993894577026367,23.090599060058594,-30.88742446899414
0.028044912964105606,0.10678667575120926,9.882434844970703,-0.0005940299795425521,-0.004328693453362062,-0.004442438259861242,1.959874153137207,2019-08-07 14:22:31:697,-30.327428857639966,159.47720821106836,0,-14.993894577026367,23.090599060058594,-30.88742446899414
-0.04140282794833183,0.0780496820807457,9.784250259399414,0.003135306001762336,-0.008857173402601856,-0.0012458645987533845,1.9698712825775146,2019-08-07 14:22:31:707,-26.120757420694495,159.87676322330586,0,-14.993894577026367,23.090599060058594,-30.88742446899414
-0.04619232565164566,0.09960243105888367,9.781855583190918,-0.0013931734273288073,0.00019978586194656375,-0.0004467211834764202,1.9798612594604492,2019-08-07 14:22:31:717,-22.00386559409915,160.26834171134288,0,-14.993894577026367,23.090599060058594,-30.88742446899414
-0.00787633191794157,0.1043919250369072,9.812987327575684,-0.0016595545549180318,0.002597216124032102,-0.0015122457263426093,1.9898602962493896,2019-08-07 14:22:31:727,-17.96616623673714,160.65171667526994,0,-14.993894577026367,23.090599060058594,-30.88742446899414
0.04001866281032562,0.07565493136644363,9.872856140136719,0.003135306001762336,-6.659528596096748e-05,0.006479188491445616,1.999856948852539,2019-08-07 14:22:31:737,-21.202160699322796,161.02814157053052,0,-14.993894577026367,23.090599060058594,-30.88742446899414
0.008886916562914848,0.09481292963027954,9.817776679992676,-0.003524222448042604,-0.005926980478971734,0.0016843279347652483,2.009873867034912,2019-08-07 14:22:31:747,-24.373746596740887,161.39849485973295,0,-14.993894577026367,23.090599060058594,-30.88742446899414
-0.04140282794833183,0.15468166768550873,9.793828964233398,0.002336162618994662,-0.0013985010498805918,0.00967576254266496,2.019852876663208,2019-08-07 14:22:31:757,-20.290332317622344,161.7511191194496,0,-14.993894577026367,23.090599060058594,-30.88742446899414
-0.00787633191794157,0.13552367687225342,9.793828964233398,0.0010042569160299579,0.0041955028895674495,0.004614520598321043,2.029860258102417,2019-08-07 14:22:31:767,-16.287804740205274,162.09967665340181,0,-14.993894577026367,23.090599060058594,-30.88742446899414
0.011281665414571762,0.0972076803445816,9.851303100585938,0.004999974154961233,0.0004661670057904337,0.009942143150105534,2.039853811264038,2019-08-07 14:22:31:777,-19.560997932287943,162.44357050263062,0,-14.993894577026367,23.090599060058594,-30.88742446899414
0.028044912964105606,0.08283918350934982,9.887224197387695,0.004467211899782784,-0.004062312325772837,0.00967576254266496,2.049873113632202,2019-08-07 14:22:31:787,-22.76424223010994,162.78258519550994,0,-14.993894577026367,23.090599060058594,-30.88742446899414
0.008886916562914848,0.0972076803445816,9.858488082885742,-0.0029914601928641544,-0.005394218223793286,0.017667196370341698,2.0598580837249756,2019-08-07 14:22:31:797,-25.904900108350468,163.11731195900086,0,-14.993894577026367,23.090599060058594,-30.88742446899414
-0.005481582134962082,0.0972076803445816,9.789039611816406,0.0028689248741731116,0.0033963595067997765,0.01313871668117623,2.069852352142334,2019-08-07 14:22:31:807,-21.78934974426347,163.44197688326656,0,-14.993894577026367,23.090599060058594,-30.88742446899414
0.03283441439270973,0.1043919250369072,9.836935043334961,0.0007378757884407334,0.002064453868853653,0.015003385094449453,2.079859733581543,2019-08-07 14:22:31:817,-24.95089788952926,163.76056244763734,0,-14.993894577026367,23.090599060058594,-30.88742446899414
0.04720291122794151,0.12594467401504517,9.911171913146973,0.003135306001762336,-0.004595074841025611,0.011007667660462434,2.0898537635803223,2019-08-07 14:22:31:827,-28.04384385165441,164.0690310193833,0,-14.993894577026367,23.090599060058594,-30.88742446899414
0.0352291613817215,0.12115518003702164,9.820171356201172,0.004467211899782784,-0.002996787815415939,0.01420424223183043,2.099871873855591,2019-08-07 14:22:31:837,-31.077170362468813,164.37100064473952,0,-14.993894577026367,23.090599060058594,-30.88742446899414
0.03043966367840767,0.08283918350934982,9.841724395751953,-0.0013931734273288073,-0.0027304066878267143,0.01420424223183043,2.109855890274048,2019-08-07 14:22:31:847,-34.05055207240371,164.674716540982,0,-14.54407787322998,22.340904235839844,-28.938217163085938
0.01367641519755125,0.12115518003702164,9.755513191223145,-0.0005940299795425521,0.002330834996442878,0.012872336073735658,2.1198577880859375,2019-08-07 14:22:31:857,-36.96924356305749,164.96732525466336,0,-14.54407787322998,22.340904235839844,-28.938217163085938
0.05199240893125534,0.0780496820807457,9.791434288024902,-0.00032764881944403687,-0.0013985010498805918,0.011540429915640882,2.129857063293457,2019-08-07 14:22:31:867,-39.82298875021702,165.25902855817472,0,-14.54407787322998,22.340904235839844,-28.938217163085938
0.061571408063173294,0.11636567860841751,9.829751014709473,-0.002192316810096481,-0.003263168943005164,0.007011950746624065,2.1398556232452393,2019-08-07 14:22:31:877,-42.61751930366633,165.541513950918,0,-14.54407787322998,22.340904235839844,-28.938217163085938
0.01367641519755125,0.0780496820807457,9.765092849731445,0.004999974154961233,-0.0019312633050590406,0.005946426236267168,2.149855852127075,2019-08-07 14:22:31:887,-45.36247959006884,165.81871733810794,0,-14.54407787322998,22.340904235839844,-28.938217163085938
0.03043966367840767,0.08523393422365189,9.791434288024902,-0.0029914601928641544,0.0031299783792105513,0.011007667660462434,2.15987229347229,2019-08-07 14:22:31:897,-48.05342794931386,166.09405056922486,0,-14.54407787322998,22.340904235839844,-28.938217163085938
0.09270315617322922,0.08283918350934982,9.805803298950195,-0.0011267922997395827,-0.0027304066878267143,0.007278331874213289,2.1698741912841797,2019-08-07 14:22:31:907,-50.67999292260718,166.36312193400678,0,-14.54407787322998,22.340904235839844,-28.938217163085938
-0.0030868323519825935,0.0972076803445816,9.846513748168945,0.001803400363816213,-0.004328693453362062,0.005147282853499493,2.179851770401001,2019-08-07 14:22:31:917,-46.064327196932254,166.62353671052318,0,-14.54407787322998,22.340904235839844,-28.938217163085938
0.020860664546489716,0.08044443279504776,9.793828964233398,-6.126766340918298e-05,-0.003263168943005164,-0.0009794834711641602,2.1898603439331055,2019-08-07 14:22:31:927,-48.738766043023155,166.88168831169207,0,-14.54407787322998,22.340904235839844,-28.938217163085938
0.05199240893125534,0.12115518003702164,9.832145690917969,-0.0013931734273288073,0.0009989292934781736,-0.004442438259861242,2.1998541355133057,2019-08-07 14:22:31:937,-51.35849172358786,167.1307166618082,0,-14.54407787322998,22.340904235839844,-28.938217163085938
-0.0030868323519825935,0.08283918350934982,9.824960708618164,0.003135306001762336,0.002064453868853653,-0.0041760571322720175,2.2098734378814697,2019-08-07 14:22:31:947,-46.732843341465326,167.37667689885487,0,-14.54407787322998,22.340904235839844,-28.938217163085938
0.02325541339814663,0.1043919250369072,9.822566032409668,0.00393444938453001,-0.0005993576020943366,-0.003643294877093568,2.219867706298828,2019-08-07 14:22:31:957,-49.395137121989215,167.61475737582072,0,-14.54407787322998,22.340904235839844,-28.938217163085938
0.04480816051363945,0.08523393422365189,9.834540367126465,-0.004589746958399502,-0.004328693453362062,-0.005507962770218141,2.2298662662506104,2019-08-07 14:22:31:967,-51.99958318636559,167.8551078282853,0,-14.244200706481934,23.240537643432617,-28.33846092224121
0.0807294100522995,0.04931268468499184,9.8034086227417,-6.126766340918298e-05,-0.0037959311981836125,-0.006573487280575038,2.2398598194122314,2019-08-07 14:22:31:977,-54.548025278960786,168.0922759645174,0,-14.244200706481934,23.240537643432617,-28.33846092224121
0.11186115443706512,0.07086542993783951,9.805803298950195,-0.005921652596345625,0.003662740634389001,-0.0068398684081642635,2.2498531341552734,2019-08-07 14:22:31:987,-57.046048387430886,168.3254719642266,0,-14.244200706481934,23.240537643432617,-28.33846092224121
0.1597561538219452,0.03254943713545799,9.767487525939941,0.0020697814914054373,0.004461884017156674,-0.0015122457263426093,2.2598750591278076,2019-08-07 14:22:31:997,-59.4888974324036,168.55397913169534,0,-14.244200706481934,23.240537643432617,-28.33846092224121
0.13580864667892456,0.05649693310260773,9.808197975158691,0.001803400363816213,0.002330834996442878,-0.0033769137495043436,2.269883632659912,2019-08-07 14:22:32:007,-61.88456352638138,168.7752854731441,0,-14.244200706481934,23.240537643432617,-28.33846092224121
0.1334138959646225,0.06847068667411804,9.793828964233398,-0.0011267922997395827,-0.0008657387296835611,0.00061880342440835,2.2798569202423096,2019-08-07 14:22:32:017,-64.23077847065915,168.99239956324905,0,-14.244200706481934,23.240537643432617,-28.33846092224121
0.10228215157985687,0.08044443279504776,9.834540367126465,-0.0005940299795425521,-0.0016648821774698163,-0.0017786268539318336,2.2898566722869873,2019-08-07 14:22:32:027,-66.5333106612778,169.2035119758095,0,-14.244200706481934,23.240537643432617,-28.33846092224121
0.12862439453601837,0.07565493136644363,9.875250816345215,-0.0013931734273288073,0.0009989292934781736,-0.0009794834711641602,2.2999231815338135,2019-08-07 14:22:32:037,-68.78828445607854,169.4114504428013,0,-14.244200706481934,23.240537643432617,-28.33846092224121
0.14299289882183075,0.09241817891597748,9.829751014709473,0.0028689248741731116,0.00019978586194656375,0.0022170901899436976,2.3098485469818115,2019-08-07 14:22:32:047,-70.99596170782434,169.61084911135853,0,-14.244200706481934,23.240537643432617,-28.33846092224121
0.11665065586566925,0.11636567860841751,9.793828964233398,0.0010042569160299579,-0.004328693453362062,-0.0023113892391474454,2.319866418838501,2019-08-07 14:22:32:057,-73.15995964509169,169.80445264194213,0,-14.244200706481934,23.240537643432617,-28.33846092224121
0.13820339739322662,0.08044443279504776,9.829751014709473,0.007397404303264255,-0.001132119922291367,0.00061880342440835,2.3298680782318115,2019-08-07 14:22:32:067,-75.28001448947141,169.99483156580155,0,-14.244200706481934,23.240537643432617,-28.33846092224121
0.10946640372276306,0.08283918350934982,9.779460906982422,0.0055327364101396825,0.0004661670057904337,-0.0031105326219151193,2.339869737625122,2019-08-07 14:22:32:077,-77.36184972382131,170.1821212843501,0,-14.244200706481934,23.240537643432617,-28.33846092224121
0.11425590515136719,0.1307341754436493,9.85609245300293,-0.0016595545549180318,0.002064453868853653,-0.012167492000246055,2.3498809337615967,2019-08-07 14:22:32:087,-79.40248988217793,170.36421286178458,0,-14.244200706481934,23.240537643432617,-28.33846092224121
0.11904539912939072,0.1043919250369072,9.753118515014648,0.004200830512119234,-0.0013985010498805918,-0.009237299076615935,2.3598616123199463,2019-08-07 14:22:32:097,-81.39967013110909,170.5423096302559,0,-15.143834114074707,23.540414810180664,-28.038583755493164
0.09749265760183334,0.11157617717981339,9.77467155456543,-0.003524222448042604,0.003662740634389001,-0.010302823586972834,2.3698627948760986,2019-08-07 14:22:32:107,-83.36230460266668,170.7203626585151,0,-15.143834114074707,23.540414810180664,-28.038583755493164
0.07115040719509125,0.10678667575120926,9.817776679992676,0.00020511348449834825,0.0012653104860859794,-0.011368348097329731,2.3798680305480957,2019-08-07 14:22:32:117,-85.28746493347082,170.893376691254,0,-15.143834114074707,23.540414810180664,-28.038583755493164
0.12144014984369278,0.07565493136644363,9.781855583190918,0.0015370192362269886,-0.0008657387296835611,-0.011368348097329731,2.3898630142211914,2019-08-07 14:22:32:127,-87.16700414224384,171.06578398032502,0,-15.143834114074707,23.540414810180664,-28.038583755493164
0.09270315617322922,0.11636567860841751,9.851303100585938,0.00020511348449834825,0.0009989292934781736,-0.010569204194413408,2.399885892868042,2019-08-07 14:22:32:137,-89.01344321419948,171.2308176981274,0,-15.143834114074707,23.540414810180664,-28.038583755493164
0.10946640372276306,0.07086542993783951,9.86567211151123,-0.0024586979376857053,-0.0019312633050590406,-0.017761495159471122,2.4098570346832275,2019-08-07 14:22:32:147,-90.81937887932068,171.3993469098765,0,-15.143834114074707,23.540414810180664,-28.038583755493164
0.09988740086555481,0.1307341754436493,9.805803298950195,-0.00672079649926195,-0.003529550070594388,-0.008171774566259036,2.4198687076568604,2019-08-07 14:22:32:157,-92.5893346169156,171.55986127864279,0,-15.143834114074707,23.540414810180664,-28.038583755493164
0.05678191035985947,0.04691793769598007,9.836935043334961,-0.004589746958399502,0.002597216124032102,-0.01296663486286508,2.429865598678589,2019-08-07 14:22:32:167,-94.3323912895783,171.72577490680283,0,-15.143834114074707,23.540414810180664,-28.038583755493164
0.06875565648078918,0.042128436267375946,9.791434288024902,-0.005122509213577951,-0.0021976444326482656,-0.00950367968405651,2.439887285232544,2019-08-07 14:22:32:177,-96.03646030235998,171.88921156439662,0,-15.143834114074707,23.540414810180664,-28.038583755493164
0.07833465933799744,0.06128643453121185,9.755513191223145,-0.0005940299795425521,-0.001132119922291367,-0.008438155693848261,2.4498753547668457,2019-08-07 14:22:32:187,-97.70589491451612,172.04456166491795,0,-15.143834114074707,23.540414810180664,-28.038583755493164
0.11186115443706512,0.03254943713545799,9.829751014709473,-0.004323365830810277,0.003929121761978225,-0.003909676004682793,2.459873914718628,2019-08-07 14:22:32:197,-99.34094310311676,172.2023031683572,0,-15.143834114074707,23.540414810180664,-28.038583755493164
0.09030840545892715,0.027759937569499016,9.781855583190918,0.0007378757884407334,-0.006193361606560959,-0.005241581642628916,2.4698727130889893,2019-08-07 14:22:32:207,-100.94006803148231,172.35459085227512,0,-15.143834114074707,23.540414810180664,-28.038583755493164
0.08551890403032303,-0.015345555730164051,9.743539810180664,0.0020697814914054373,-0.00246402556023749,-0.00950367968405651,2.479870557785034,2019-08-07 14:22:32:217,-102.50982599620792,165.30814186069236,0,-15.29377269744873,24.88986587524414,-28.788278579711914
0.0807294100522995,0.0038124416023492813,9.791434288024902,-0.0011267922997395827,-0.005394218223793286,-0.006307106152985815,2.4898784160614014,2019-08-07 14:22:32:227,-104.04715050298836,165.60216603363187,0,-15.29377269744873,24.88986587524414,-28.788278579711914
0.03283441439270973,0.07086542993783951,9.812987327575684,-0.0008604111071317767,-0.0027304066878267143,-0.007639012311080588,2.4998719692230225,2019-08-07 14:22:32:237,-105.56084112386708,165.88233032558622,0,-15.29377269744873,24.88986587524414,-28.788278579711914
0.018465915694832802,0.02297043986618519,9.8034086227417,-0.004056984703221053,-0.004062312325772837,-0.002844151494325895,2.5098774433135986,2019-08-07 14:22:32:247,-107.04518360070684,166.16427795900475,0,-15.29377269744873,24.88986587524414,-28.788278579711914
0.018465915694832802,0.07086542993783951,9.848908424377441,-0.002192316810096481,-0.0013985010498805918,-0.0023113892391474454,2.519876003265381,2019-08-07 14:22:32:257,-108.50134628775973,166.43397819026592,0,-15.29377269744873,24.88986587524414,-28.788278579711914
0.04720291122794151,0.08283918350934982,9.853697776794434,-0.0011267922997395827,-0.0021976444326482656,8.60411123386422e-05,2.5298690795898438,2019-08-07 14:22:32:267,-109.92459691816808,166.696297494606,0,-15.29377269744873,24.88986587524414,-28.788278579711914
0.06636090576648712,0.06847068667411804,9.85609245300293,0.004999974154961233,0.0012653104860859794,0.0008851845519975746,2.5398776531219482,2019-08-07 14:22:32:277,-111.3191007451114,166.95160106353686,0,-15.29377269744873,24.88986587524414,-28.788278579711914
0.07115040719509125,0.042128436267375946,9.86567211151123,0.003668068256940785,0.002597216124032102,0.0016843279347652483,2.549888849258423,2019-08-07 14:22:32:287,-112.68591459158934,167.20561385692673,0,-15.29377269744873,24.88986587524414,-28.788278579711914
0.09749265760183334,0.06128643453121185,9.841724395751953,0.001803400363816213,0.002330834996442878,0.005413663981088718,2.5598766803741455,2019-08-07 14:22:32:297,-114.02215233689061,167.4533544462075,0,-15.29377269744873,24.88986587524414,-28.788278579711914
0.054387159645557404,0.06128643453121185,9.820171356201172,0.0020697814914054373,0.006592933558019122,0.0048809017259102685,2.569870948791504,2019-08-07 14:22:32:307,-115.33906271995086,167.6959744239857,0,-15.29377269744873,24.88986587524414,-28.788278579711914
0.04720291122794151,0.09241817891597748,9.86567211151123,0.006864642048085805,-0.0008657387296835611,0.005147282853499493,2.5798771381378174,2019-08-07 14:22:32:317,-116.626312392216,167.92746383865418,0,-15.29377269744873,24.88986587524414,-28.788278579711914
0.028044912964105606,0.0517074353992939,9.827356338500977,0.00047149462834221814,-0.0021976444326482656,0.007811094129391739,2.5898683071136475,2019-08-07 14:22:32:327,-117.88928310094492,168.16262077955807,0,-15.29377269744873,24.88986587524414,-28.788278579711914
0.004097416531294584,0.10918142646551132,9.801013946533203,0.0015370192362269886,0.0007325481658889489,0.0011515656795867992,2.5998833179473877,2019-08-07 14:22:32:337,-119.13143031917082,168.38573928110156,0,-15.29377269744873,24.88986587524414,-28.788278579711914
-0.005481582134962082,0.08044443279504776,9.793828964233398,0.0010042569160299579,-0.0005993576020943366,0.006479188491445616,2.6098780632019043,2019-08-07 14:22:32:347,-113.14910671724006,168.60804880707232,0,-14.54407787322998,24.14017105102539,-29.83785057067871
0.04480816051363945,0.1043919250369072,9.805803298950195,0.0034016871293515603,-0.0019312633050590406,0.0027498524451221467,2.619868040084839,2019-08-07 14:22:32:357,-114.47980497986387,168.82178082292796,0,-14.54407787322998,24.14017105102539,-29.83785057067871
0.020860664546489716,0.11876042932271957,9.812987327575684,0.002336162618994662,0.0012653104860859794,-0.004442438259861242,2.629873752593994,2019-08-07 14:22:32:367,-115.78848374731372,169.03016508453916,0,-14.54407787322998,24.14017105102539,-29.83785057067871
0.025650164112448692,0.07565493136644363,9.848908424377441,0.002602543746583887,-6.659528596096748e-05,0.0014179468071760237,2.63986873626709,2019-08-07 14:22:32:377,-117.06969232088973,169.23929895066374,0,-14.54407787322998,24.14017105102539,-29.83785057067871
0.0352291613817215,0.10918142646551132,9.812987327575684,0.0020697814914054373,0.0031299783792105513,-0.00018034003963255039,2.6498756408691406,2019-08-07 14:22:32:387,-118.32594328455265,169.44060081026294,0,-14.54407787322998,24.14017105102539,-29.83785057067871
0.0352291613817215,0.09002342820167542,9.784250259399414,-0.004056984703221053,-6.659528596096748e-05,-0.0020450079815210586,2.6598739624023438,2019-08-07 14:22:32:397,-119.55526106731438,169.64352330206253,0,-14.54407787322998,24.14017105102539,-29.83785057067871
0.025650164112448692,0.06847068667411804,9.851303100585938,0.002336162618994662,0.002064453868853653,0.001950709062354473,2.669872999191284,2019-08-07 14:22:32:407,-120.76233127072463,169.84137674471398,0,-14.54407787322998,24.14017105102539,-29.83785057067871
0.049597661942243576,0.08044443279504776,9.805803298950195,0.0020697814914054373,0.00019978586194656375,-0.0009794834711641602,2.6798810958862305,2019-08-07 14:22:32:417,-121.94140093465008,170.03398548656656,0,-14.54407787322998,24.14017105102539,-29.83785057067871
0.03283441439270973,0.13312892615795135,9.86567211151123,-0.0019259356825072562,0.0009989292934781736,0.001950709062354473,2.6898889541625977,2019-08-07 14:22:32:427,-123.09932049185795,170.21892581074871,0,-14.54407787322998,24.14017105102539,-29.83785057067871
0.07115040719509125,0.12594467401504517,9.817776679992676,-0.0024586979376857053,0.0012653104860859794,-0.0012458645987533845,2.699873685836792,2019-08-07 14:22:32:437,-124.22973904813048,170.40122648245756,0,-14.54407787322998,24.14017105102539,-29.83785057067871
0.08791365474462509,0.1427079290151596,9.834540367126465,-0.00272507906527493,0.0033963595067997765,-0.00604072502539659,2.7098734378814697,2019-08-07 14:22:32:447,-125.3368078900909,170.57810495546138,0,-14.54407787322998,24.14017105102539,-29.83785057067871
0.05917666107416153,0.08762867748737335,9.808197975158691,0.0028689248741731116,-0.0027304066878267143,-0.0009794834711641602,2.719874143600464,2019-08-07 14:22:32:457,-126.42162483530971,170.7546942464277,0,-14.54407787322998,24.14017105102539,-29.83785057067871
0.042413413524627686,0.07326018065214157,9.851303100585938,0.0010042569160299579,-0.0008657387296835611,0.00061880342440835,2.729872465133667,2019-08-07 14:22:32:467,-127.48777275957576,170.93051501078733,0,-15.143834114074707,23.240537643432617,-29.238094329833984
0.05917666107416153,0.09960243105888367,9.851303100585938,0.00047149462834221814,0.002597216124032102,-0.0007131023435749355,2.7398808002471924,2019-08-07 14:22:32:477,-128.53259343465209,171.1000542648276,0,-15.143834114074707,23.240537643432617,-29.238094329833984
0.0352291613817215,0.08283918350934982,9.77467155456543,-0.0019259356825072562,0.0004661670057904337,-0.00257777036673667,2.749865770339966,2019-08-07 14:22:32:487,-129.55807291681572,171.26942169806003,0,-15.143834114074707,23.240537643432617,-29.238094329833984
0.05199240893125534,0.06607593595981598,9.84411907196045,-0.0029914601928641544,-0.00246402556023749,-0.008438155693848261,2.7598652839660645,2019-08-07 14:22:32:497,-130.5594758010652,171.43802135618634,0,-15.143834114074707,23.240537643432617,-29.238094329833984
0.07593990862369537,0.11157617717981339,9.78664493560791,0.002336162618994662,0.002597216124032102,-0.003643294877093568,2.76987624168396,2019-08-07 14:22:32:507,-131.54085461159744,171.59488388134238,0,-15.143834114074707,23.240537643432617,-29.238094329833984
0.0352291613817215,0.07565493136644363,9.834540367126465,0.003668068256940785,0.0017980727412644285,-0.004708819387450467,2.780012369155884,2019-08-07 14:22:32:517,-132.50695601217774,171.75208345151538,0,-15.143834114074707,23.240537643432617,-29.238094329833984
0.09030840545892715,0.0780496820807457,9.801013946533203,0.0007378757884407334,0.002064453868853653,-0.00604072502539659,2.7898566722869873,2019-08-07 14:22:32:527,-133.44739964651578,171.90750869206136,0,-15.143834114074707,23.240537643432617,-29.238094329833984
0.04720291122794151,0.1043919250369072,9.801013946533203,-0.00272507906527493,-0.0013985010498805918,-0.003643294877093568,2.79988431930542,2019-08-07 14:22:32:537,-134.37214539575342,172.05868803634831,0,-15.143834114074707,23.240537643432617,-29.238094329833984
0.042413413524627686,0.08523393422365189,9.78664493560791,-6.126766340918298e-05,0.0012653104860859794,-0.007372630663342713,2.8099396228790283,2019-08-07 14:22:32:547,-135.28045074316023,172.2075691017564,0,-15.143834114074707,23.240537643432617,-29.238094329833984
0.03043966367840767,0.1043919250369072,9.772276878356934,0.002336162618994662,0.00019978586194656375,-0.007372630663342713,2.819950580596924,2019-08-07 14:22:32:557,-136.17138462996587,172.34986380208645,0,-15.143834114074707,23.240537643432617,-29.238094329833984
0.07593990862369537,0.06128643453121185,9.860882759094238,-0.0013931734273288073,-0.0016648821774698163,-0.010302823586972834,2.829984664916992,2019-08-07 14:22:32:567,-137.0381942551627,172.49652956182388,0,-15.143834114074707,23.240537643432617,-29.238094329833984
0.061571408063173294,0.09002342820167542,9.846513748168945,-0.00032764881944403687,-0.001132119922291367,-0.009770061331794384,2.840017080307007,2019-08-07 14:22:32:577,-137.88962717415774,172.63630710484685,0,-15.143834114074707,23.240537643432617,-29.238094329833984
0.03283441439270973,0.0972076803445816,9.798619270324707,-0.003524222448042604,-0.0008657387296835611,-0.003909676004682793,2.849876642227173,2019-08-07 14:22:32:587,-138.72751548637333,172.7741642797427,0,-15.143834114074707,23.240537643432617,-29.238094329833984
0.01607116498053074,0.1043919250369072,9.772276878356934,-0.0016595545549180318,0.002597216124032102,-0.013499397118043528,2.85988712310791,2019-08-07 14:22:32:597,-139.5525405050546,172.90737308029782,0,-14.394139289855957,22.790719985961914,-29.08815574645996
0.054387159645557404,0.13312892615795135,9.836935043334961,-6.126766340918298e-05,-0.004062312325772837,-0.01296663486286508,2.8699963092803955,2019-08-07 14:22:32:607,-140.352848250293,173.03375300489677,0,-14.394139289855957,22.790719985961914,-29.08815574645996
0.061571408063173294,0.11157617717981339,9.81538200378418,-0.0016595545549180318,-0.0037959311981836125,-0.010835585842151283,2.87986159324646,2019-08-07 14:22:32:617,-141.13650041080123,173.16097161539122,0,-14.394139289855957,22.790719985961914,-29.08815574645996
0.05917666107416153,0.08044443279504776,9.834540367126465,-0.0019259356825072562,0.002064453868853653,-0.010036441939234959,2.8899104595184326,2019-08-07 14:22:32:627,-141.90804010421851,173.28946574286792,0,-14.394139289855957,22.790719985961914,-29.08815574645996
0.06636090576648712,0.09960243105888367,9.784250259399414,-0.0005940299795425521,0.00019978586194656375,-0.0031105326219151193,2.8999533653259277,2019-08-07 14:22:32:637,-142.66221999999047,173.41234653319557,0,-14.394139289855957,22.790719985961914,-29.08815574645996
0.03762391209602356,0.05410218611359596,9.870461463928223,-0.004589746958399502,-0.0008657387296835611,-0.012433872607686629,2.909839391708374,2019-08-07 14:22:32:647,-143.4041270856917,173.5403664123138,0,-14.394139289855957,22.790719985961914,-29.08815574645996
0.054387159645557404,0.11636567860841751,9.798619270324707,0.0010042569160299579,-0.001132119922291367,-0.016695970649114225,2.919865846633911,2019-08-07 14:22:32:657,-144.1290468482771,173.6553857681041,0,-14.394139289855957,22.790719985961914,-29.08815574645996
0.06396616250276566,0.10678667575120926,9.839329719543457,-0.0024586979376857053,-0.002996787815415939,-0.012167492000246055,2.9298698902130127,2019-08-07 14:22:32:667,-144.83733296712285,173.77122298277595,0,-14.394139289855957,22.790719985961914,-29.08815574645996
0.054387159645557404,0.04931268468499184,9.760302543640137,0.0012706381086377639,-0.00246402556023749,-0.014564921628400425,2.9398903846740723,2019-08-07 14:22:32:677,-145.53281462637491,173.8892940561355,0,-14.394139289855957,22.790719985961914,-29.08815574645996
0.06636090576648712,0.07086542993783951,9.839329719543457,-0.0013931734273288073,0.002330834996442878,-0.011634728704770307,2.949970006942749,2019-08-07 14:22:32:687,-146.21574905747784,174.00404362702764,0,-14.394139289855957,22.790719985961914,-29.08815574645996
0.03043966367840767,0.03733893856406212,9.81538200378418,0.0010042569160299579,-0.0013985010498805918,-0.011901110352508182,2.9598867893218994,2019-08-07 14:22:32:697,-146.88710162910613,174.11904437320266,0,-14.394139289855957,22.790719985961914,-29.08815574645996
0.07833465933799744,0.08283918350934982,9.801013946533203,0.002336162618994662,-0.001132119922291367,-0.014298541020959853,2.96991229057312,2019-08-07 14:22:32:707,-147.53956374983903,174.22566322201945,0,-14.394139289855957,22.790719985961914,-29.08815574645996
0.028044912964105606,0.05889168381690979,9.832145690917969,0.00047149462834221814,-0.0008657387296835611,-0.008171774566259036,2.979867935180664,2019-08-07 14:22:32:717,-148.1850199540182,174.33402277032295,0,-14.244200706481934,24.14017105102539,-28.63833999633789
0.018465915694832802,0.07326018065214157,9.781855583190918,0.00020511348449834825,-6.659528596096748e-05,-0.010036441939234959,2.989941358566284,2019-08-07 14:22:32:727,-148.81911866211962,174.43864424427247,0,-14.244200706481934,24.14017105102539,-28.63833999633789
0.04001866281032562,0.08762867748737335,9.81538200378418,-0.0019259356825072562,0.003929121761978225,-0.008171774566259036,3.000257730484009,2019-08-07 14:22:32:737,-149.44034025363578,174.5407568762658,0,-14.244200706481934,24.14017105102539,-28.63833999633789
0.025650164112448692,0.08762867748737335,9.870461463928223,-0.004056984703221053,0.00019978586194656375,-0.00897091742887806,3.0098724365234375,2019-08-07 14:22:32:747,-150.04866344539795,174.64195893768115,0,-14.244200706481934,24.14017105102539,-28.63833999633789
0.07354515790939331,0.10918142646551132,9.81538200378418,-0.002192316810096481,-0.005127837096204061,-0.005507962770218141,3.019878387451172,2019-08-07 14:22:32:757,-150.6362231797195,174.73760540510767,0,-14.244200706481934,24.14017105102539,-28.63833999633789
0.020860664546489716,0.04931268468499184,9.858488082885742,-0.0016595545549180318,-0.0048614559686148365,-0.007905393438669812,3.02986741065979,2019-08-07 14:22:32:767,-151.21834724571872,174.83805222850242,0,-14.244200706481934,24.14017105102539,-28.63833999633789
0.03283441439270973,0.09481292963027954,9.863277435302734,-0.0011267922997395827,-0.0005993576020943366,-0.007639012311080588,3.039858341217041,2019-08-07 14:22:32:777,-151.78982937931588,174.93090827539345,0,-14.244200706481934,24.14017105102539,-28.63833999633789
0.049597661942243576,0.09241817891597748,9.817776679992676,-0.0011267922997395827,0.0012653104860859794,-0.011901110352508182,3.0498640537261963,2019-08-07 14:22:32:787,-152.34895475515845,175.02213657646843,0,-14.244200706481934,24.14017105102539,-28.63833999633789
0.042413413524627686,0.07565493136644363,9.77467155456543,-0.0032578413204533796,-0.0005993576020943366,-0.00604072502539659,3.0598642826080322,2019-08-07 14:22:32:797,-152.89666688677715,175.11465407104424,0,-14.244200706481934,24.14017105102539,-28.63833999633789
0.004097416531294584,0.08283918350934982,9.812987327575684,-0.0019259356825072562,-0.0019312633050590406,-0.006573487280575038,3.0698606967926025,2019-08-07 14:22:32:807,-153.43717105871448,175.2037686625169,0,-14.244200706481934,24.14017105102539,-28.63833999633789
0.011281665414571762,0.05889168381690979,9.848908424377441,-0.00032764881944403687,0.002330834996442878,-0.005507962770218141,3.079873561859131,2019-08-07 14:22:32:817,-153.96842546636984,175.2930255638959,0,-14.244200706481934,24.14017105102539,-28.63833999633789
0.01607116498053074,0.09481292963027954,9.839329719543457,-0.004589746958399502,0.0031299783792105513,-0.007372630663342713,3.089862585067749,2019-08-07 14:22:32:827,-154.48894081577552,175.37869752579442,0,-14.244200706481934,24.14017105102539,-28.63833999633789
0.011281665414571762,0.10678667575120926,9.85609245300293,0.0015370192362269886,-0.0027304066878267143,-0.003909676004682793,3.0998830795288086,2019-08-07 14:22:32:837,-154.99631407895012,175.45784373773904,0,-14.244200706481934,24.14017105102539,-28.63833999633789
0.03283441439270973,0.08044443279504776,9.810592651367188,-0.0005940299795425521,-0.00246402556023749,-0.0033769137495043436,3.1098687648773193,2019-08-07 14:22:32:847,-155.49117105717662,175.53962391876465,0,-14.094261169433594,24.290109634399414,-29.08815574645996
0.01367641519755125,0.11876042932271957,9.738750457763672,-0.00032764881944403687,-0.0013985010498805918,-0.00257777036673667,3.119866371154785,2019-08-07 14:22:32:857,-155.97895332548026,175.61504205014037,0,-14.094261169433594,24.290109634399414,-29.08815574645996
0.02325541339814663,0.11636567860841751,9.841724395751953,-0.0011267922997395827,-0.004062312325772837,-0.005774343897807364,3.129869222640991,2019-08-07 14:22:32:867,-156.45438489989726,175.68982574152432,0,-14.094261169433594,24.290109634399414,-29.08815574645996
-0.00787633191794157,0.09241817891597748,9.839329719543457,-0.004323365830810277,-0.0005993576020943366,-0.0068398684081642635,3.1398637294769287,2019-08-07 14:22:32:877,-149.72587814752106,175.7676924966525,0,-14.094261169433594,24.290109634399414,-29.08815574645996
0.004097416531294584,0.07086542993783951,9.801013946533203,-0.0029914601928641544,0.0012653104860859794,-0.005774343897807364,3.1499032974243164,2019-08-07 14:22:32:887,-150.33159480388485,175.8457396891818,0,-14.094261169433594,24.290109634399414,-29.08815574645996
0.049597661942243576,0.09481292963027954,9.829751014709473,-0.00032764881944403687,-0.0016648821774698163,-0.0007131023435749355,3.159893751144409,2019-08-07 14:22:32:897,-150.9182471103758,175.91795610034583,0,-14.094261169433594,24.290109634399414,-29.08815574645996
0.05199240893125534,0.10199718177318573,9.824960708618164,0.002602543746583887,-0.003263168943005164,-0.0015122457263426093,3.169881820678711,2019-08-07 14:22:32:907,-151.49198811018195,175.98624157719428,0,-14.094261169433594,24.290109634399414,-29.08815574645996
0.008886916562914848,0.07565493136644363,9.836935043334961,0.0028689248741731116,-6.659528596096748e-05,-0.004442438259861242,3.179875373840332,2019-08-07 14:22:32:917,-152.06107573233174,176.0560939327534,0,-14.094261169433594,24.290109634399414,-29.08815574645996
0.008886916562914848,0.08523393422365189,9.767487525939941,-0.0011267922997395827,-0.0005993576020943366,-0.002844151494325895,3.18989634513855,2019-08-07 14:22:32:927,-152.61847436617998,176.12560673468303,0,-14.094261169433594,24.290109634399414,-29.08815574645996
0.042413413524627686,0.14510267972946167,9.836935043334961,-0.0013931734273288073,-6.659528596096748e-05,-0.003909676004682793,3.199880361557007,2019-08-07 14:22:32:937,-153.1611267899919,176.1869736666192,0,-14.094261169433594,24.290109634399414,-29.08815574645996
0.04001866281032562,0.08283918350934982,9.85609245300293,-0.0029914601928641544,-0.0005993576020943366,-0.004708819387450467,3.2098848819732666,2019-08-07 14:22:32:947,-153.69291483149723,176.25528360772353,0,-14.094261169433594,24.290109634399414,-29.08815574645996
-0.043797578662633896,0.11636567860841751,9.810592651367188,0.0015370192362269886,-0.001132119922291367,0.001950709062354473,3.2198779582977295,2019-08-07 14:22:32:957,-147.02353698569027,176.31572416989474,0,-14.094261169433594,24.290109634399414,-29.08815574645996
0.01607116498053074,0.11157617717981339,9.793828964233398,0.00020511348449834825,-0.006193361606560959,-0.004442438259861242,3.229879140853882,2019-08-07 14:22:32:967,-147.67770788430366,176.37624022557804,0,-14.843955993652344,22.940658569335938,-30.13772964477539
-0.010271081700921059,0.0972076803445816,9.805803298950195,0.0015370192362269886,-0.004328693453362062,-0.0007131023435749355,3.2398874759674072,2019-08-07 14:22:32:977,-141.12292143327045,176.43649225673067,0,-14.843955993652344,22.940658569335938,-30.13772964477539
-0.00787633191794157,0.11157617717981339,9.839329719543457,-6.126766340918298e-05,0.00019978586194656375,-0.0009794834711641602,3.2498810291290283,2019-08-07 14:22:32:987,-134.70149241100796,176.49480287745982,0,-14.843955993652344,22.940658569335938,-30.13772964477539
-0.00787633191794157,0.09960243105888367,9.812987327575684,0.00020511348449834825,-0.0013985010498805918,-0.006573487280575038,3.2598817348480225,2019-08-07 14:22:32:997,-128.40759701260313,176.55316092580549,0,-14.843955993652344,22.940658569335938,-30.13772964477539
-0.012665831483900547,0.11397092789411545,9.78664493560791,0.006598260920496581,-0.0005993576020943366,-0.004708819387450467,3.2698748111724854,2019-08-07 14:22:33:007,-122.24059180481251,176.60505113623648,0,-14.843955993652344,22.940658569335938,-30.13772964477539
0.03043966367840767,0.0972076803445816,9.839329719543457,0.00047149462834221814,0.0009989292934781736,-0.0020450079815210586,3.2798736095428467,2019-08-07 14:22:33:017,-123.39279572252782,176.66136469435943,0,-14.843955993652344,22.940658569335938,-30.13772964477539
-0.00787633191794157,0.12833942472934723,9.846513748168945,-0.0011267922997395827,-0.0016648821774698163,-0.00257777036673667,3.2898876667022705,2019-08-07 14:22:33:027,-117.32492029486724,176.7138359682317,0,-14.843955993652344,22.940658569335938,-30.13772964477539
0.006492166314274073,0.09960243105888367,9.84411907196045,-0.002192316810096481,0.002330834996442878,-0.008704536821437486,3.2998852729797363,2019-08-07 14:22:33:037,-118.57897460866252,176.76919600136347,0,-14.843955993652344,22.940658569335938,-30.13772964477539
-0.012665831483900547,0.0972076803445816,9.882434844970703,-0.0008604111071317767,0.0012653104860859794,-0.005507962770218141,3.309879779815674,2019-08-07 14:22:33:047,-112.60957385927253,176.82302360362326,0,-14.843955993652344,22.940658569335938,-30.13772964477539
0.01367641519755125,0.11157617717981339,9.8848295211792,0.00020511348449834825,-0.0008657387296835611,-0.0041760571322720175,3.319878339767456,2019-08-07 14:22:33:057,-113.95531088040619,176.87351386932872,0,-14.843955993652344,22.940658569335938,-30.13772964477539
0.04720291122794151,0.12833942472934723,9.868066787719727,0.004733593027372009,-0.0027304066878267143,-0.00018034003963255039,3.3298940658569336,2019-08-07 14:22:33:067,-115.26918780126738,176.9184791082597,0,-14.843955993652344,22.940658569335938,-30.13772964477539
0.025650164112448692,0.09481292963027954,9.858488082885742,-0.002192316810096481,-0.004328693453362062,-0.007639012311080588,3.3398799896240234,2019-08-07 14:22:33:077,-116.55839543394818,176.97031839829393,0,-14.843955993652344,22.940658569335938,-30.13772964477539
0.011281665414571762,0.06847068667411804,9.820171356201172,-0.0008604111071317767,-6.659528596096748e-05,0.00035242226430983473,3.3498525619506836,2019-08-07 14:22:33:087,-117.82587377794528,177.02340411138434,0,-14.843955993652344,22.940658569335938,-30.13772964477539
0.03762391209602356,0.08762867748737335,9.858488082885742,-0.00032764881944403687,-0.0027304066878267143,-0.005507962770218141,3.3598694801330566,2019-08-07 14:22:33:097,-119.06344734049675,177.07293493721605,0,-14.394139289855957,23.39047622680664,-29.687911987304688
0.04720291122794151,0.1235499233007431,9.839329719543457,-0.0037906035756318283,-0.0016648821774698163,-0.0031105326219151193,3.369873523712158,2019-08-07 14:22:33:107,-120.27574584700189,177.11921730778437,0,-14.394139289855957,23.39047622680664,-29.687911987304688
0.008886916562914848,0.06607593595981598,9.84411907196045,-0.0019259356825072562,-0.004062312325772837,-0.006573487280575038,3.3798906803131104,2019-08-07 14:22:33:117,-121.46691154273722,177.17022470018227,0,-14.394139289855957,23.39047622680664,-29.687911987304688
0.0017026669811457396,0.020575689151883125,9.84411907196045,-0.002192316810096481,0.002064453868853653,-0.0015122457263426093,3.389880418777466,2019-08-07 14:22:33:127,-122.6385331095807,177.22565479349603,0,-14.394139289855957,23.39047622680664,-29.687911987304688
0.018465915694832802,0.06368118524551392,9.851303100585938,0.00020511348449834825,-0.0037959311981836125,-0.003643294877093568,3.399881601333618,2019-08-07 14:22:33:137,-123.78148280981851,177.27361914311211,0,-14.394139289855957,23.39047622680664,-29.687911987304688
0.03043966367840767,0.09481292963027954,9.817776679992676,-0.0005940299795425521,-0.0075252672445070825,-0.004975200515039691,3.409878969192505,2019-08-07 14:22:33:147,-124.8980759797854,177.31741414613694,0,-14.394139289855957,23.39047622680664,-29.687911987304688
0.04001866281032562,0.08523393422365189,9.808197975158691,-0.0019259356825072562,-0.00033297644199582136,-0.0017786268539318336,3.4198760986328125,2019-08-07 14:22:33:157,-125.99525209641683,177.36218912617196,0,-14.394139289855957,23.39047622680664,-29.687911987304688
0.006492166314274073,0.1043919250369072,9.836935043334961,0.001803400363816213,-0.0013985010498805918,-0.007372630663342713,3.429898738861084,2019-08-07 14:22:33:167,-127.07380374059177,177.40177016834548,0,-14.394139289855957,23.39047622680664,-29.687911987304688
0.03762391209602356,0.06607593595981598,9.812987327575684,-0.0019259356825072562,-0.00033297644199582136,0.00035242226430983473,3.4398880004882812,2019-08-07 14:22:33:177,-128.12774737460776,177.44709908627487,0,-14.394139289855957,23.39047622680664,-29.687911987304688
0.006492166314274073,0.10918142646551132,9.832145690917969,-0.0019259356825072562,-0.0005993576020943366,-0.004975200515039691,3.449876546859741,2019-08-07 14:22:33:187,-129.16409962608205,177.48651293703577,0,-14.394139289855957,23.39047622680664,-29.687911987304688
0.06875565648078918,0.08044443279504776,9.887224197387695,-0.00032764881944403687,-0.00033297644199582136,-0.003909676004682793,3.4598755836486816,2019-08-07 14:22:33:197,-130.1726621288395,177.5276434423198,0,-14.394139289855957,23.39047622680664,-29.687911987304688
0.06396616250276566,0.10199718177318573,9.846513748168945,-0.003524222448042604,-0.0016648821774698163,-0.0033769137495043436,3.469900608062744,2019-08-07 14:22:33:207,-131.16082758139584,177.56720458863003,0,-14.394139289855957,23.39047622680664,-29.687911987304688
0.03043966367840767,0.06607593595981598,9.791434288024902,0.003135306001762336,-0.0021976444326482656,-0.004975200515039691,3.47987961769104,2019-08-07 14:22:33:217,-132.13281722848197,177.60637081049506,0,-15.893528938293457,23.39047622680664,-28.788278579711914
0.04720291122794151,0.04691793769598007,9.808197975158691,0.0010042569160299579,0.00019978586194656375,-0.0017786268539318336,3.4898500442504883,2019-08-07 14:22:33:227,-133.08475794346575,177.64819967820733,0,-15.893528938293457,23.39047622680664,-28.788278579711914
0.0807294100522995,0.09481292963027954,9.808197975158691,0.0012706381086377639,0.0012653104860859794,-0.0017786268539318336,3.4998831748962402,2019-08-07 14:22:33:237,-134.01434400848615,177.6834429795107,0,-15.893528938293457,23.39047622680664,-28.788278579711914
0.049597661942243576,0.09002342820167542,9.860882759094238,-0.004323365830810277,-0.0008657387296835611,-0.004708819387450467,3.5098776817321777,2019-08-07 14:22:33:247,-134.92780767703417,177.72173917911402,0,-15.893528938293457,23.39047622680664,-28.788278579711914
0.08312415331602097,0.09002342820167542,9.880040168762207,-0.005388890341167176,-0.001132119922291367,-0.0012458645987533845,3.5198862552642822,2019-08-07 14:22:33:257,-135.8189745428124,177.7598919561148,0,-15.893528938293457,23.39047622680664,-28.788278579711914
0.049597661942243576,0.09002342820167542,9.812987327575684,0.0020697814914054373,0.00019978586194656375,-0.0017786268539318336,3.5298774242401123,2019-08-07 14:22:33:267,-136.6969153945321,177.7930207362447,0,-15.893528938293457,23.39047622680664,-28.788278579711914
0.0807294100522995,0.06368118524551392,9.805803298950195,0.0012706381086377639,-0.002996787815415939,-0.00018034003963255039,3.5398828983306885,2019-08-07 14:22:33:277,-137.5518595699923,177.82900472955066,0,-15.893528938293457,23.39047622680664,-28.788278579711914
0.06636090576648712,0.0972076803445816,9.832145690917969,0.0028689248741731116,-0.00033297644199582136,0.002483471317532922,3.549875497817993,2019-08-07 14:22:33:287,-138.392901446679,177.85948595118757,0,-15.893528938293457,23.39047622680664,-28.788278579711914
0.05678191035985947,0.09002342820167542,9.839329719543457,-0.002192316810096481,-0.0016648821774698163,-0.007905393438669812,3.559873580932617,2019-08-07 14:22:33:297,-139.2174958627301,177.89304289386206,0,-15.893528938293457,23.39047622680664,-28.788278579711914
0.07593990862369537,0.05410218611359596,9.755513191223145,0.0034016871293515603,-0.00566059935138251,-0.0017786268539318336,3.5698955059051514,2019-08-07 14:22:33:307,-140.02104057950166,177.92691284482518,0,-15.893528938293457,23.39047622680664,-28.788278579711914
0.09030840545892715,0.09960243105888367,9.798619270324707,0.0010042569160299579,-0.006459742734150184,-0.0015122457263426093,3.580148220062256,2019-08-07 14:22:33:317,-140.80634000280546,177.95614868038203,0,-15.893528938293457,23.39047622680664,-28.788278579711914
0.11186115443706512,0.07565493136644363,9.836935043334961,-0.002192316810096481,-0.0008657387296835611,-0.0023113892391474454,3.589850902557373,2019-08-07 14:22:33:327,-141.57671127492765,177.98940713639982,0,-15.893528938293457,23.39047622680664,-28.788278579711914
0.0807294100522995,0.07086542993783951,9.853697776794434,0.0010042569160299579,-0.00805802949968553,-0.00604072502539659,3.599872350692749,2019-08-07 14:22:33:337,-142.33125472120292,178.02081288746678,0,-15.893528938293457,23.39047622680664,-28.788278579711914
0.10946640372276306,0.1235499233007431,9.767487525939941,-0.0008604111071317767,-0.006992504989328633,0.0022170901899436976,3.609874725341797,2019-08-07 14:22:33:347,-143.06786041930692,178.0463858365661,0,-13.344566345214844,24.14017105102539,-28.938217163085938
0.07593990862369537,0.10678667575120926,9.801013946533203,-0.0005940299795425521,0.002064453868853653,-0.007372630663342713,3.6198906898498535,2019-08-07 14:22:33:357,-143.79878568000694,178.07330740181794,0,-13.344566345214844,24.14017105102539,-28.938217163085938
0.0807294100522995,0.02297043986618519,9.796224594116211,-0.00032764881944403687,-0.0013985010498805918,-0.004975200515039691,3.6298775672912598,2019-08-07 14:22:33:367,-144.51258261316872,178.10933801924588,0,-13.344566345214844,24.14017105102539,-28.938217163085938
0.09030840545892715,0.0780496820807457,9.781855583190918,-0.0019259356825072562,-0.004062312325772837,-0.0017786268539318336,3.639875650405884,2019-08-07 14:22:33:377,-145.20947135196838,178.13908936533088,0,-13.344566345214844,24.14017105102539,-28.938217163085938
0.0352291613817215,0.11157617717981339,9.892014503479004,-0.0016595545549180318,-0.0016648821774698163,-0.003643294877093568,3.649871349334717,2019-08-07 14:22:33:387,-145.90026648141043,178.16431430077822,0,-13.344566345214844,24.14017105102539,-28.938217163085938
0.04720291122794151,0.13312892615795135,9.812987327575684,-0.0005940299795425521,0.00019978586194656375,-0.0020450079815210586,3.6598870754241943,2019-08-07 14:22:33:397,-146.5768614110239,178.18581685544257,0,-13.344566345214844,24.14017105102539,-28.938217163085938
0.028044912964105606,0.04931268468499184,9.769882202148438,-6.126766340918298e-05,-0.004328693453362062,-0.008171774566259036,3.6698763370513916,2019-08-07 14:22:33:407,-147.2396068410044,178.21635101660848,0,-13.344566345214844,24.14017105102539,-28.938217163085938
-0.0030868323519825935,0.08283918350934982,9.808197975158691,0.0020697814914054373,-0.001132119922291367,-0.003643294877093568,3.679877996444702,2019-08-07 14:22:33:417,-140.6945395570122,178.24118355105514,0,-13.344566345214844,24.14017105102539,-28.938217163085938
0.028044912964105606,0.09241817891597748,9.858488082885742,-0.004856128085988727,-0.00033297644199582136,-0.00950367968405651,3.689875841140747,2019-08-07 14:22:33:427,-141.47720200820987,178.26834395591754,0,-13.344566345214844,24.14017105102539,-28.938217163085938
0.02325541339814663,0.09002342820167542,9.791434288024902,-0.002192316810096481,-0.003263168943005164,-0.003643294877093568,3.6998772621154785,2019-08-07 14:22:33:437,-142.24310380976573,178.2936728686868,0,-13.344566345214844,24.14017105102539,-28.938217163085938
-0.010271081700921059,0.11397092789411545,9.820171356201172,-0.0016595545549180318,-0.0027304066878267143,-0.003643294877093568,3.709897041320801,2019-08-07 14:22:33:447,-135.79790411341375,178.31543442390935,0,-13.344566345214844,24.14017105102539,-28.938217163085938
0.01367641519755125,0.0780496820807457,9.793828964233398,-0.00032764881944403687,-0.00246402556023749,-0.003909676004682793,3.7198808193206787,2019-08-07 14:22:33:457,-136.67896453649053,178.34017749221192,0,-13.344566345214844,24.14017105102539,-28.938217163085938
-0.019850080832839012,0.1307341754436493,9.834540367126465,0.0007378757884407334,-0.0037959311981836125,-0.003909676004682793,3.7298831939697266,2019-08-07 14:22:33:467,-130.34556624750132,178.35772734598646,0,-15.29377269744873,23.39047622680664,-28.488401412963867
-0.01745533011853695,0.06607593595981598,9.798619270324707,0.00047149462834221814,-0.0021976444326482656,-0.005241581642628916,3.7398769855499268,2019-08-07 14:22:33:477,-124.13946305432617,178.38258097833722,0,-15.29377269744873,23.39047622680664,-28.488401412963867
0.018465915694832802,0.09241817891597748,9.824960708618164,-0.0061880337239348495,-0.0019312633050590406,-0.0023113892391474454,3.749875545501709,2019-08-07 14:22:33:487,-125.2534358132901,178.40762473045078,0,-15.29377269744873,23.39047622680664,-28.488401412963867
-0.027034329250454903,0.08283918350934982,9.805803298950195,-0.002192316810096481,-0.006193361606560959,-0.007639012311080588,3.7598884105682373,2019-08-07 14:22:33:497,-119.14804430867414,178.4310243661654,0,-15.29377269744873,23.39047622680664,-28.488401412963867
-0.0030868323519825935,0.09241817891597748,9.796224594116211,-0.0013931734273288073,0.0033963595067997765,-0.0020450079815210586,3.7698822021484375,2019-08-07 14:22:33:507,-113.16735037266604,178.45237534145977,0,-15.29377269744873,23.39047622680664,-28.488401412963867
0.061571408063173294,0.07565493136644363,9.836935043334961,-0.0005940299795425521,0.00019978586194656375,-0.007905393438669812,3.779878616333008,2019-08-07 14:22:33:517,-114.49694307579625,178.47484830804837,0,-15.29377269744873,23.39047622680664,-28.488401412963867
0.0352291613817215,0.10918142646551132,9.846513748168945,0.0012706381086377639,-0.002996787815415939,-0.00257777036673667,3.7898759841918945,2019-08-07 14:22:33:527,-115.80122209016707,178.4919322948045,0,-15.29377269744873,23.39047622680664,-28.488401412963867
0.05199240893125534,0.0780496820807457,9.796224594116211,-0.00272507906527493,-0.00033297644199582136,-0.003909676004682793,3.799966812133789,2019-08-07 14:22:33:537,-117.07892721766828,178.51450798887444,0,-15.29377269744873,23.39047622680664,-28.488401412963867
0.07593990862369537,0.07086542993783951,9.817776679992676,-0.0029914601928641544,0.0012653104860859794,0.0011515656795867992,3.8098490238189697,2019-08-07 14:22:33:547,-118.32918736392394,178.5376065861354,0,-15.29377269744873,23.39047622680664,-28.488401412963867
0.08312415331602097,0.1043919250369072,9.860882759094238,-0.0024586979376857053,-0.00033297644199582136,0.0016843279347652483,3.81984543800354,2019-08-07 14:22:33:557,-119.55275723712916,178.55610376874355,0,-15.29377269744873,23.39047622680664,-28.488401412963867
0.04720291122794151,0.06847068667411804,9.812987327575684,0.00047149462834221814,-0.0008657387296835611,0.00035242226430983473,3.8298423290252686,2019-08-07 14:22:33:567,-120.75570403573644,178.57672146952885,0,-15.29377269744873,23.39047622680664,-28.488401412963867
0.06636090576648712,0.09002342820167542,9.81538200378418,0.001803400363816213,-0.0021976444326482656,-0.0012458645987533845,3.839874267578125,2019-08-07 14:22:33:577,-121.9316047263972,178.5936615361309,0,-15.29377269744873,23.39047622680664,-28.488401412963867
0.07115040719509125,0.06607593595981598,9.848908424377441,0.0012706381086377639,-0.0005993576020943366,-0.004442438259861242,3.849895715713501,2019-08-07 14:22:33:587,-123.08435720114355,178.61338552669667,0,-15.29377269744873,23.39047622680664,-28.488401412963867
0.09988740086555481,0.1043919250369072,9.760302543640137,-0.0013931734273288073,0.0017980727412644285,-0.0015122457263426093,3.859877347946167,2019-08-07 14:22:33:597,-124.21195087277725,178.62964289990114,0,-14.843955993652344,23.540414810180664,-28.33846092224121
0.061571408063173294,0.05889168381690979,9.78664493560791,0.004999974154961233,0.0012653104860859794,0.00035242226430983473,3.869880199432373,2019-08-07 14:22:33:607,-125.32121324374208,178.6473462346809,0,-14.843955993652344,23.540414810180664,-28.33846092224121
0.028044912964105606,0.1043919250369072,9.789039611816406,-6.126766340918298e-05,-0.003529550070594388,-0.0004467211834764202,3.8798768520355225,2019-08-07 14:22:33:617,-126.40952484576921,178.66221393146904,0,-14.843955993652344,23.540414810180664,-28.33846092224121
0.06636090576648712,0.09241817891597748,9.798619270324707,0.00047149462834221814,-0.003529550070594388,0.0048809017259102685,3.8898720741271973,2019-08-07 14:22:33:627,-127.47159289195552,178.67789736080388,0,-14.843955993652344,23.540414810180664,-28.33846092224121
0.04720291122794151,0.10199718177318573,9.784250259399414,-0.0005940299795425521,0.0012653104860859794,-0.00257777036673667,3.8998847007751465,2019-08-07 14:22:33:637,-128.5173441154702,178.69272806925022,0,-14.843955993652344,23.540414810180664,-28.33846092224121
0.10228215157985687,0.07086542993783951,9.81538200378418,0.0007378757884407334,0.0017980727412644285,-0.0009794834711641602,3.9098854064941406,2019-08-07 14:22:33:647,-129.5360662261216,178.71018598563964,0,-14.843955993652344,23.540414810180664,-28.33846092224121
0.042413413524627686,0.12594467401504517,9.822566032409668,0.0015370192362269886,-0.0013985010498805918,-0.0012458645987533845,3.9198784828186035,2019-08-07 14:22:33:657,-130.53961220584935,178.72042773588657,0,-14.843955993652344,23.540414810180664,-28.33846092224121
0.10467690229415894,0.0972076803445816,9.810592651367188,0.004467211899782784,0.0031299783792105513,-0.0004467211834764202,3.9298770427703857,2019-08-07 14:22:33:667,-131.51835097962248,178.7321573432949,0,-14.843955993652344,23.540414810180664,-28.33846092224121
0.11665065586566925,0.06368118524551392,9.84411907196045,-0.0029914601928641544,-0.002996787815415939,-0.0017786268539318336,3.939887285232544,2019-08-07 14:22:33:677,-132.4727213308999,178.75178284214164,0,-14.843955993652344,23.540414810180664,-28.33846092224121
0.0807294100522995,0.05889168381690979,9.777066230773926,0.004200830512119234,-0.0021976444326482656,-0.0012458645987533845,3.949875593185425,2019-08-07 14:22:33:687,-133.41257274227027,178.76748889910212,0,-14.843955993652344,23.540414810180664,-28.33846092224121
0.08312415331602097,0.08044443279504776,9.832145690917969,-6.126766340918298e-05,-0.004062312325772837,-0.0017786268539318336,3.95987868309021,2019-08-07 14:22:33:697,-134.33235188797454,178.78279811575064,0,-14.843955993652344,23.540414810180664,-28.33846092224121
0.049597661942243576,0.07565493136644363,9.839329719543457,0.0007378757884407334,-0.0016648821774698163,0.00061880342440835,3.9698753356933594,2019-08-07 14:22:33:707,-135.2389941019091,178.7979171666634,0,-14.843955993652344,23.540414810180664,-28.33846092224121
0.04480816051363945,0.0780496820807457,9.805803298950195,-0.0016595545549180318,-0.004595074841025611,-0.0031105326219151193,3.9798736572265625,2019-08-07 14:22:33:717,-136.12639823644435,178.81376973635764,0,-15.29377269744873,22.490842819213867,-30.287668228149414
0.06636090576648712,0.04691793769598007,9.724381446838379,0.0020697814914054373,-0.0008657387296835611,0.0016843279347652483,3.989898443222046,2019-08-07 14:22:33:727,-136.99556314563856,178.8308005413138,0,-15.29377269744873,22.490842819213867,-30.287668228149414
0.07354515790939331,0.06128643453121185,9.798619270324707,0.00047149462834221814,0.00019978586194656375,-0.0015122457263426093,3.9998788833618164,2019-08-07 14:22:33:737,-137.84716314526784,178.84675315565553,0,-15.29377269744873,22.490842819213867,-30.287668228149414
0.09988740086555481,0.08283918350934982,9.78664493560791,0.0034016871293515603,-0.002996787815415939,-0.00257777036673667,4.009884595870972,2019-08-07 14:22:33:747,-138.67684084637986,178.8582075729402,0,-15.29377269744873,22.490842819213867,-30.287668228149414
0.049597661942243576,0.08044443279504776,9.827356338500977,-0.00032764881944403687,-0.0016648821774698163,-0.0009794834711641602,4.019879579544067,2019-08-07 14:22:33:757,-139.4965863996796,178.8718473169547,0,-15.29377269744873,22.490842819213867,-30.287668228149414
0.05917666107416153,0.05649693310260773,9.779460906982422,-0.00032764881944403687,-0.0013985010498805918,0.00035242226430983473,4.029876470565796,2019-08-07 14:22:33:767,-140.29893567483157,178.8879742913619,0,-15.29377269744873,22.490842819213867,-30.287668228149414
0.05917666107416153,0.06128643453121185,9.860882759094238,-0.0011267922997395827,-0.0027304066878267143,-0.0007131023435749355,4.0398850440979,2019-08-07 14:22:33:777,-141.08454579562974,178.90372614481697,0,-15.29377269744873,22.490842819213867,-30.287668228149414
0.06636090576648712,0.0972076803445816,9.824960708618164,0.0012706381086377639,0.001531691613675204,-0.007639012311080588,4.049876689910889,2019-08-07 14:22:33:787,-141.85597444374983,178.91360149355663,0,-15.29377269744873,22.490842819213867,-30.287668228149414
0.03283441439270973,0.07326018065214157,9.808197975158691,0.0028689248741731116,0.00019978586194656375,-0.004708819387450467,4.059885501861572,2019-08-07 14:22:33:797,-142.61513112316925,178.92515814109478,0,-15.29377269744873,22.490842819213867,-30.287668228149414
-0.019850080832839012,0.0972076803445816,9.791434288024902,0.003668068256940785,-0.0019312633050590406,-0.005241581642628916,4.069875717163086,2019-08-07 14:22:33:807,-136.16406826054677,178.93322129849722,0,-15.29377269744873,22.490842819213867,-30.287668228149414
0.018465915694832802,0.09002342820167542,9.846513748168945,-6.126766340918298e-05,0.0017980727412644285,-0.006573487280575038,4.079874753952026,2019-08-07 14:22:33:817,-137.03964739339452,178.94411483445637,0,-15.29377269744873,22.490842819213867,-30.287668228149414
0.05678191035985947,0.09960243105888367,9.877645492553711,0.004999974154961233,-0.003529550070594388,-0.004975200515039691,4.089884996414185,2019-08-07 14:22:33:827,-137.8902833240924,178.95086759691947,0,-15.29377269744873,22.490842819213867,-30.287668228149414
0.01607116498053074,0.06368118524551392,9.820171356201172,0.004999974154961233,-0.001132119922291367,-0.0009794834711641602,4.0998756885528564,2019-08-07 14:22:33:837,-138.72996722326903,178.96161452744306,0,-15.29377269744873,22.490842819213867,-30.287668228149414
0.05199240893125534,0.09002342820167542,9.834540367126465,0.001803400363816213,0.0017980727412644285,-0.003643294877093568,4.109874725341797,2019-08-07 14:22:33:847,-139.55031932461992,178.97088053694614,0,-14.094261169433594,23.990232467651367,-29.38803482055664
0.008886916562914848,0.08044443279504776,9.801013946533203,0.003668068256940785,0.001531691613675204,-0.006573487280575038,4.11987566947937,2019-08-07 14:22:33:857,-140.3591340212764,178.9799979201537,0,-14.094261169433594,23.990232467651367,-29.38803482055664
0.05678191035985947,0.08523393422365189,9.810592651367188,0.0012706381086377639,-0.0027304066878267143,-0.006307106152985815,4.129875898361206,2019-08-07 14:22:33:867,-141.14378591097758,178.98972907746472,0,-14.094261169433594,23.990232467651367,-29.38803482055664
0.08312415331602097,0.06368118524551392,9.824960708618164,-0.0011267922997395827,0.0028635972516213265,-0.007905393438669812,4.139875888824463,2019-08-07 14:22:33:877,-141.912823301105,179.00313995783893,0,-14.094261169433594,23.990232467651367,-29.38803482055664
0.03762391209602356,0.11636567860841751,9.820171356201172,0.0015370192362269886,0.0007325481658889489,-0.00897091742887806,4.1498754024505615,2019-08-07 14:22:33:887,-142.67058782784088,179.00863609333936,0,-14.094261169433594,23.990232467651367,-29.38803482055664
-0.005481582134962082,0.10678667575120926,9.762697219848633,0.002602543746583887,-0.001132119922291367,-0.008704536821437486,4.159888029098511,2019-08-07 14:22:33:897,-136.21718299613863,179.01446640745218,0,-14.094261169433594,23.990232467651367,-29.38803482055664
0.05678191035985947,0.09241817891597748,9.810592651367188,-0.00032764881944403687,-0.0019312633050590406,-0.0023113892391474454,4.169879198074341,2019-08-07 14:22:33:907,-137.08512361699266,179.0235664057593,0,-14.094261169433594,23.990232467651367,-29.38803482055664
0.03283441439270973,0.12833942472934723,9.86567211151123,-0.0008604111071317767,-0.003263168943005164,-0.008704536821437486,4.179876089096069,2019-08-07 14:22:33:917,-137.9377756870721,179.02867203249374,0,-14.094261169433594,23.990232467651367,-29.38803482055664
0.02325541339814663,0.07565493136644363,9.834540367126465,-0.0011267922997395827,-0.005394218223793286,-0.004975200515039691,4.1898767948150635,2019-08-07 14:22:33:927,-138.77328140961768,179.03991622899474,0,-14.094261169433594,23.990232467651367,-29.38803482055664
0.020860664546489716,0.08523393422365189,9.824960708618164,-0.0029914601928641544,-0.003529550070594388,-0.006307106152985815,4.1998748779296875,2019-08-07 14:22:33:937,-139.59340128351454,179.05085643496648,0,-14.094261169433594,23.990232467651367,-29.38803482055664
0.006492166314274073,0.05649693310260773,9.791434288024902,-0.0011267922997395827,-0.004595074841025611,-0.0068398684081642635,4.209886312484741,2019-08-07 14:22:33:947,-140.39819038526292,179.06386082067553,0,-14.094261169433594,23.990232467651367,-29.38803482055664
0.01607116498053074,0.10199718177318573,9.808197975158691,-0.00272507906527493,-0.003529550070594388,-0.0017786268539318336,4.219877243041992,2019-08-07 14:22:33:957,-141.1863689058564,179.07219619578092,0,-14.094261169433594,23.990232467651367,-29.38803482055664
0.01367641519755125,0.09002342820167542,9.870461463928223,-0.0032578413204533796,-6.659528596096748e-05,0.0008851845519975746,4.229886293411255,2019-08-07 14:22:33:967,-141.96101633227804,179.08213218094798,0,-15.29377269744873,23.090599060058594,-28.488401412963867
0.01607116498053074,0.1043919250369072,9.769882202148438,-0.0013931734273288073,-0.0037959311981836125,-0.0020450079815210586,4.239875793457031,2019-08-07 14:22:33:977,-142.71778183811526,179.08902725274385,0,-15.29377269744873,23.090599060058594,-28.488401412963867
0.01367641519755125,0.10678667575120926,9.841724395751953,-0.0016595545549180318,-0.0005993576020943366,-0.00018034003963255039,4.249873876571655,2019-08-07 14:22:33:987,-143.46149732277476,179.09574520865914,0,-15.29377269744873,23.090599060058594,-28.488401412963867
0.025650164112448692,0.10678667575120926,9.78664493560791,0.001803400363816213,-0.004595074841025611,-0.0020450079815210586,4.259896516799927,2019-08-07 14:22:33:997,-144.1866780427261,179.10031227848106,0,-15.29377269744873,23.090599060058594,-28.488401412963867
0.004097416531294584,0.09481292963027954,9.817776679992676,-0.0008604111071317767,-0.00246402556023749,-0.005774343897807364,4.2698814868927,2019-08-07 14:22:34:007,-144.901084770288,179.10772235310907,0,-15.29377269744873,23.090599060058594,-28.488401412963867
-0.019850080832839012,0.10918142646551132,9.81538200378418,0.004733593027372009,-0.001132119922291367,0.00035242226430983473,4.279875040054321,2019-08-07 14:22:34:017,-138.40474523348593,179.11016564423792,0,-15.29377269744873,23.090599060058594,-28.488401412963867
-0.022244829684495926,0.08044443279504776,9.796224594116211,-0.0013931734273288073,-0.005394218223793286,-0.0012458645987533845,4.289878845214844,2019-08-07 14:22:34:027,-132.03622241961656,179.11933509976572,0,-15.29377269744873,23.090599060058594,-28.488401412963867
-0.00787633191794157,0.1043919250369072,9.796224594116211,0.002602543746583887,-0.0019312633050590406,-0.003643294877093568,4.2998785972595215,2019-08-07 14:22:34:037,-125.79533493190594,179.12327630235777,0,-15.29377269744873,23.090599060058594,-28.488401412963867
-0.005481582134962082,0.08523393422365189,9.798619270324707,-0.0005940299795425521,-0.00246402556023749,-0.00018034003963255039,4.30987811088562,2019-08-07 14:22:34:047,-119.67868580610092,179.13117673637265,0,-15.29377269744873,23.090599060058594,-28.488401412963867
-0.000692082685418427,0.14510267972946167,9.93511962890625,0.0007378757884407334,-0.0008657387296835611,-0.006573487280575038,4.319875240325928,2019-08-07 14:22:34:057,-113.68470594314098,179.13140406724872,0,-15.29377269744873,23.090599060058594,-28.488401412963867
-0.02463958039879799,0.10199718177318573,9.769882202148438,0.003668068256940785,-0.0019312633050590406,-0.003643294877093568,4.329882860183716,2019-08-07 14:22:34:067,-107.8128165819207,179.13475192257644,0,-15.29377269744873,23.090599060058594,-28.488401412963867
-0.022244829684495926,0.10199718177318573,9.853697776794434,0.00047149462834221814,-0.004595074841025611,-0.0004467211834764202,4.339879035949707,2019-08-07 14:22:34:077,-102.05656802120166,179.13993111215422,0,-15.29377269744873,23.090599060058594,-28.488401412963867
-0.019850080832839012,0.09481292963027954,9.824960708618164,0.00020511348449834825,0.00019978586194656375,-0.003643294877093568,4.349876880645752,2019-08-07 14:22:34:087,-96.417863989332,179.1459593614776,0,-15.29377269744873,23.090599060058594,-28.488401412963867
-0.019850080832839012,0.09960243105888367,9.798619270324707,0.0012706381086377639,-6.659528596096748e-05,-0.00897091742887806,4.35985541343689,2019-08-07 14:22:34:097,-90.8917907937168,179.15068047589767,0,-15.44371223449707,22.64078140258789,-29.238094329833984
0.04001866281032562,0.09241817891597748,9.808197975158691,0.0010042569160299579,-0.003529550070594388,-0.002844151494325895,4.369873046875,2019-08-07 14:22:34:107,-92.6672941939963,179.15630486239326,0,-15.44371223449707,22.64078140258789,-29.238094329833984
0.03762391209602356,0.05889168381690979,9.848908424377441,-0.004056984703221053,-0.0005993576020943366,-0.0031105326219151193,4.379870653152466,2019-08-07 14:22:34:117,-94.4092343500552,179.16860427482652,0,-15.44371223449707,22.64078140258789,-29.238094329833984
-0.012665831483900547,0.08283918350934982,9.848908424377441,0.0010042569160299579,-0.002996787815415939,-0.007106249535753488,4.389888763427734,2019-08-07 14:22:34:127,-88.92083758574461,179.1750292087511,0,-15.44371223449707,22.64078140258789,-29.238094329833984
0.03762391209602356,0.08044443279504776,9.796224594116211,0.001803400363816213,-0.0005993576020943366,-0.007106249535753488,4.399877548217773,2019-08-07 14:22:34:137,-90.73768362898858,179.18110735915016,0,-15.44371223449707,22.64078140258789,-29.238094329833984
0.09030840545892715,0.06847068667411804,9.868066787719727,-0.0016595545549180318,-0.00033297644199582136,-0.00257777036673667,4.409884691238403,2019-08-07 14:22:34:147,-92.51225621126696,179.19046677913022,0,-15.44371223449707,22.64078140258789,-29.238094329833984
0.042413413524627686,0.08762867748737335,9.820171356201172,-6.126766340918298e-05,-0.004328693453362062,-0.00257777036673667,4.419878244400024,2019-08-07 14:22:34:157,-94.25463290893389,179.1964667059239,0,-15.44371223449707,22.64078140258789,-29.238094329833984
0.07354515790939331,0.12115518003702164,9.853697776794434,-0.00032764881944403687,0.0009989292934781736,-0.0023113892391474454,4.429874658584595,2019-08-07 14:22:34:167,-95.96154832245135,179.19863249675444,0,-15.44371223449707,22.64078140258789,-29.238094329833984
0.07833465933799744,0.09002342820167542,9.839329719543457,-0.00272507906527493,-0.0021976444326482656,-0.00604072502539659,4.43988037109375,2019-08-07 14:22:34:177,-97.63195979809551,179.20570676385134,0,-15.44371223449707,22.64078140258789,-29.238094329833984
0.09988740086555481,0.08523393422365189,9.834540367126465,-6.126766340918298e-05,-0.0021976444326482656,-0.0015122457263426093,4.449875116348267,2019-08-07 14:22:34:187,-99.26644884777147,179.2116958466363,0,-15.44371223449707,22.64078140258789,-29.238094329833984
0.1262296438217163,0.06368118524551392,9.810592651367188,-0.0011267922997395827,0.0004661670057904337,0.0022170901899436976,4.459881067276001,2019-08-07 14:22:34:197,-100.86663847620243,179.22065689153195,0,-15.44371223449707,22.64078140258789,-29.238094329833984
0.05917666107416153,0.07326018065214157,9.853697776794434,0.00047149462834221814,-0.0027304066878267143,0.00035242226430983473,4.469874620437622,2019-08-07 14:22:34:207,-102.44089182961663,179.22745969517686,0,-15.44371223449707,22.64078140258789,-29.238094329833984
0.09270315617322922,0.08523393422365189,9.839329719543457,0.00393444938453001,-0.0008657387296835611,0.0022170901899436976,4.479879140853882,2019-08-07 14:22:34:217,-103.98079151528789,179.23077398289468,0,-14.843955993652344,23.540414810180664,-28.938217163085938
0.08312415331602097,0.06368118524551392,9.798619270324707,0.0007378757884407334,-0.002996787815415939,-0.0009794834711641602,4.489888429641724,2019-08-07 14:22:34:227,-105.48977057252111,179.23829660640342,0,-14.843955993652344,23.540414810180664,-28.938217163085938
0.08312415331602097,0.06847068667411804,9.810592651367188,-0.0037906035756318283,0.00019978586194656375,-0.0009794834711641602,4.499874591827393,2019-08-07 14:22:34:237,-106.9703781914598,179.2476586336222,0,-14.843955993652344,23.540414810180664,-28.938217163085938
0.05678191035985947,0.12115518003702164,9.822566032409668,-0.002192316810096481,-0.0019312633050590406,0.0016843279347652483,4.509876728057861,2019-08-07 14:22:34:247,-108.42326180345884,179.24980327475654,0,-14.843955993652344,23.540414810180664,-28.938217163085938
