ACCELEROMETER X (m/s²),ACCELEROMETER Y (m/s²),ACCELEROMETER Z (m/s²),GYROSCOPE X (rad/s),GYROSCOPE Y (rad/s),GYROSCOPE Z (rad/s),Time since start in ms ,YYYY-MO-DD HH-MI-SS_SSS,Pitch (Deg),Roll (Deg),Heading (Deg),MagX,MagY,MagZ
0.2074882984161377,-0.0036519933491945267,9.800348281860352,0.0026816588764593053,-0.004554851225741058,0.005652341471408663,0.0,2019-07-26 15:25:29:124,-3.5757428456553844,-3.5995729870204323,0,-38.984127044677734,25.189743041992188,-43.482295989990234
0.18354080617427826,0.003532255766913295,9.795557975769043,0.0037471836468905284,-0.0013582774345960375,0.0019230054250851934,0.010125160217285156,2019-07-26 15:25:29:134,-7.081987095935004,0.06987488549056042,0,-38.984127044677734,25.189743041992188,-43.482295989990234
0.18593555688858032,0.020295504480600357,9.762031555175781,0.00294804000404853,0.0026374397393166566,0.010979964543341806,0.0200498104095459,2019-07-26 15:25:29:144,-10.51999371679881,3.6644521567828146,0,-38.984127044677734,25.189743041992188,-43.482295989990234
0.16917230188846588,-0.029994240030646324,9.809926986694336,-0.00024853360829539187,-0.0048212323533302825,0.0024557676802636425,0.030209779739379883,2019-07-26 15:25:29:154,-13.88708405278644,-0.005191431323897877,0,-38.984127044677734,25.189743041992188,-43.482295989990234
0.17635655403137207,0.0011375061003491282,9.850637435913086,0.0032144211316377544,0.0010391528437441464,0.004586816961051765,0.03999948501586914,2019-07-26 15:25:29:164,-17.189400380060043,3.593013135123071,0,-38.984127044677734,25.189743041992188,-43.482295989990234
0.16677755117416382,0.013111254200339317,9.831480026245117,-0.00371148844575641,-0.0026901830725421603,0.005119579216230213,0.04999184608459473,2019-07-26 15:25:29:174,-20.424665972881417,7.121707084938668,0,-38.984127044677734,25.189743041992188,-43.482295989990234
0.20988304913043976,-0.0012572435662150383,9.754847526550293,0.0016161343661024066,-0.005087613480919507,0.0003247186270405554,0.06015610694885254,2019-07-26 15:25:29:184,-23.588617589154996,3.3784982701816837,0,-38.984127044677734,25.189743041992188,-43.482295989990234
0.1548037976026535,-0.015625741332769394,9.843453407287598,0.0024152777488700805,-0.005087613480919507,0.002988529935442092,0.0700075626373291,2019-07-26 15:25:29:194,-26.696011143057614,-0.28858867196612215,0,-38.984127044677734,25.189743041992188,-43.482295989990234
0.19551454484462738,0.0011375061003491282,9.805137634277344,0.000816990983334733,0.0010391528437441464,5.833747100570152e-05,0.08012533187866211,2019-07-26 15:25:29:204,-29.73983473377043,3.316586020530364,0,-38.984127044677734,25.189743041992188,-43.482295989990234
0.18593555688858032,-0.03238898888230324,9.814716339111328,0.0026816588764593053,-0.0010918963070068127,0.0008574809147282953,0.08999848365783691,2019-07-26 15:25:29:214,-32.72272643903711,-0.3474507902101793,0,-38.984127044677734,25.189743041992188,-43.482295989990234
0.17396180331707,-0.02759948931634426,9.771611213684082,0.0013497532385131823,-0.0026901830725421603,0.0008574809147282953,0.10012340545654297,2019-07-26 15:25:29:224,-35.64634418278149,-3.9380325466877277,0,-39.58388137817383,24.589988708496094,-44.08205032348633
0.15719854831695557,0.015506003983318806,9.774005889892578,-0.0026459639353995116,-0.003755707842973384,0.0024557676802636425,0.1099998950958252,2019-07-26 15:25:29:234,-38.51290597236827,-0.2596224806572014,0,-39.58388137817383,24.589988708496094,-44.08205032348633
0.19790929555892944,0.020295504480600357,9.764426231384277,-0.0010476770398270016,-0.0034893267153841595,-0.002871855131595174,0.12015461921691895,2019-07-26 15:25:29:244,-41.31743559061176,3.3437855410429065,0,-39.58388137817383,24.589988708496094,-44.08205032348633
0.15959329903125763,0.008321755565702915,9.757242202758789,0.0016161343661024066,-0.002157420817363711,0.0005910997871390706,0.1300044059753418,2019-07-26 15:25:29:254,-44.07115231076825,6.875038676069221,0,-39.58388137817383,24.589988708496094,-44.08205032348633
0.15001431107521057,0.020295504480600357,9.800348281860352,0.0002842286956469933,-0.001624658562185262,-0.00020804367690182974,0.14002346992492676,2019-07-26 15:25:29:264,-46.77127607727932,10.335004935369376,0,-39.58388137817383,24.589988708496094,-44.08205032348633
0.19072504341602325,-0.037178490310907364,9.776400566101074,-0.006375299721648655,-0.004022088970562609,-0.003404617386773623,0.15001225471496582,2019-07-26 15:25:29:274,-49.411242182213314,6.536238303940981,0,-39.58388137817383,24.589988708496094,-44.08205032348633
0.17635655403137207,-0.02041524089872837,9.721321105957031,0.0010833721109239577,-0.005087613480919507,-0.00047442482074569963,0.16000652313232422,2019-07-26 15:25:29:284,-51.99937626943432,2.807312048755387,0,-39.58388137817383,24.589988708496094,-44.08205032348633
0.19551454484462738,-0.044362738728523254,9.821900367736816,1.7847537580308712e-05,-0.006153137991276405,-0.006334809790255094,0.17000889778137207,2019-07-26 15:25:29:294,-54.533125385211825,-0.8436684753939137,0,-39.58388137817383,24.589988708496094,-44.08205032348633
0.2003040462732315,-0.04196798801422119,9.752452850341797,0.0010833721109239577,0.0005063905560564065,-0.00846585933111754,0.1800098419189453,2019-07-26 15:25:29:304,-57.019214776270985,-4.422472256889673,0,-39.58388137817383,24.589988708496094,-44.08205032348633
0.13804055750370026,0.008321755565702915,9.742874145507812,0.0002842286956469933,-0.0034893267153841595,-0.004203760769541297,0.19000840187072754,2019-07-26 15:25:29:314,-59.4606368512635,-0.73516115219955,0,-39.58388137817383,24.589988708496094,-44.08205032348633
0.19072504341602325,-0.05394173786044121,9.814716339111328,0.0010833721109239577,-0.002157420817363711,-0.004203760769541297,0.20000433921813965,2019-07-26 15:25:29:324,-61.847947948840876,-4.314768098673833,0,-39.58388137817383,24.589988708496094,-44.08205032348633
0.2003040462732315,-0.0347837395966053,9.730899810791016,-0.002379582807810287,-0.005353994608508731,-0.0018063304912011133,0.21003389358520508,2019-07-26 15:25:29:334,-64.18438927114879,-7.823036522348023,0,-39.58388137817383,24.589988708496094,-44.08205032348633
0.21467255055904388,-0.010836242698132992,9.785979270935059,0.0016161343661024066,-0.004288470098151833,-0.005269285279898195,0.220001220703125,2019-07-26 15:25:29:344,-66.47316775393858,-11.266211385728731,0,-39.13406753540039,24.440048217773438,-43.33235549926758
0.22185680270195007,-0.025204740464687347,9.726110458374023,-0.003178726190577961,-0.0048212323533302825,-0.0020727116187903376,0.23000836372375488,2019-07-26 15:25:29:354,-68.71486104964593,-14.636131454995494,0,-39.13406753540039,24.440048217773438,-43.33235549926758
0.2577780485153198,-0.04915223643183708,9.785979270935059,1.7847537580308712e-05,-0.0018910396897744866,-0.0007408059808442149,0.24002885818481445,2019-07-26 15:25:29:364,-70.90932160039536,-17.93766330274024,0,-39.13406753540039,24.440048217773438,-43.33235549926758
0.25059378147125244,-0.02759948931634426,9.690189361572266,0.0013497532385131823,-0.00029275289172984846,-0.0010071871084334394,0.2500033378601074,2019-07-26 15:25:29:374,-73.0613437852517,-21.176402211961594,0,-39.13406753540039,24.440048217773438,-43.33235549926758
0.2577780485153198,-0.051546987146139145,9.797953605651855,0.0002842286956469933,-0.0029565642001313846,0.0003247186270405554,0.26001858711242676,2019-07-26 15:25:29:384,-75.16831289991275,-24.347005404286733,0,-39.13406753540039,24.440048217773438,-43.33235549926758
0.27454128861427307,-0.07549448311328888,9.80753231048584,1.7847537580308712e-05,-0.006153137991276405,-0.0026054740040059496,0.2700061798095703,2019-07-26 15:25:29:394,-77.22942682217615,-27.451254676884133,0,-39.13406753540039,24.440048217773438,-43.33235549926758
0.2601727843284607,0.008321755565702915,9.785979270935059,0.0018825154936916314,-0.0026901830725421603,-0.0015399493636118885,0.280010461807251,2019-07-26 15:25:29:404,-79.25286864709189,-23.3042615239928,0,-39.13406753540039,24.440048217773438,-43.33235549926758
0.2865150272846222,-0.015625741332769394,9.762031555175781,0.0002842286956469933,-0.0010918963070068127,0.0027221488078528673,0.2900056838989258,2019-07-26 15:25:29:414,-81.2335755687656,-26.43650158598085,0,-39.13406753540039,24.440048217773438,-43.33235549926758
0.2458042949438095,-0.02759948931634426,9.76682186126709,0.0032144211316377544,-0.007751424756811752,0.0024557676802636425,0.3000054359436035,2019-07-26 15:25:29:424,-83.17571826428828,-29.506338235531537,0,-39.13406753540039,24.440048217773438,-43.33235549926758
0.2529885470867157,-0.008441492915153503,9.747663497924805,0.0010833721109239577,-0.001624658562185262,0.00432043583346254,0.31000852584838867,2019-07-26 15:25:29:434,-85.08155722712915,-32.51582760617724,0,-39.13406753540039,24.440048217773438,-43.33235549926758
0.22904103994369507,-0.037178490310907364,9.802742958068848,0.0005506098557455085,-0.002157420817363711,0.0008574809147282953,0.3200192451477051,2019-07-26 15:25:29:444,-86.95194395384486,-35.46147450251425,0,-39.13406753540039,24.440048217773438,-43.33235549926758
0.2338305413722992,0.008321755565702915,9.850637435913086,0.0016161343661024066,0.00024000941221253666,0.006717865981765561,0.33000898361206055,2019-07-26 15:25:29:454,-88.78584351703074,-31.15411960045944,0,-39.13406753540039,24.440048217773438,-43.33235549926758
0.23862004280090332,-0.022809991613030434,9.77879524230957,0.0018825154936916314,-0.001624658562185262,0.003521292450694866,0.3400113582611084,2019-07-26 15:25:29:464,-90.5812573505937,-34.129421534554396,0,-39.13406753540039,24.440048217773438,-43.33235549926758
0.21706730127334595,-0.029994240030646324,9.795557975769043,1.7847537580308712e-05,-0.002157420817363711,0.006717865981765561,0.3500070571899414,2019-07-26 15:25:29:474,-92.34303226633212,-37.043334310097435,0,-40.03369903564453,25.33968162536621,-44.231990814208984
0.21467255055904388,0.008321755565702915,9.7500581741333,-0.0026459639353995116,-0.002157420817363711,0.00432043583346254,0.3599987030029297,2019-07-26 15:25:29:484,-94.06973504768972,-32.70196120816073,0,-40.03369903564453,25.33968162536621,-44.231990814208984
0.1811460554599762,0.010716505348682404,9.795557975769043,-0.0018468204225946753,-0.00588675686368718,0.0032549110630313164,0.3700075149536133,2019-07-26 15:25:29:494,-95.76384340031815,-28.448137733504197,0,-40.03369903564453,25.33968162536621,-44.231990814208984
0.15959329903125763,0.013111254200339317,9.802742958068848,-0.0005149147521392618,-0.0010918963070068127,0.0003247186270405554,0.38002467155456543,2019-07-26 15:25:29:504,-97.4292979815335,-24.28041803004512,0,-40.03369903564453,25.33968162536621,-44.231990814208984
0.18593555688858032,-0.010836242698132992,9.745268821716309,0.0002842286956469933,-0.007751424756811752,0.003521292450694866,0.3899998664855957,2019-07-26 15:25:29:514,-99.05450947720176,-27.393694668335073,0,-40.03369903564453,25.33968162536621,-44.231990814208984
0.21706730127334595,-0.03238898888230324,9.76682186126709,-0.0005149147521392618,-0.003755707842973384,0.006451484854176337,0.40000367164611816,2019-07-26 15:25:29:524,-100.64584591533637,-30.44173143984165,0,-40.03369903564453,25.33968162536621,-44.231990814208984
0.17396180331707,-0.06352073699235916,9.742874145507812,-0.0010476770398270016,-0.005087613480919507,0.0008574809147282953,0.4099743366241455,2019-07-26 15:25:29:534,-102.20962221255292,-33.42483933331747,0,-40.03369903564453,25.33968162536621,-44.231990814208984
0.19072504341602325,-0.044362738728523254,9.802742958068848,0.0024152777488700805,-0.0029565642001313846,0.0011238620423175197,0.4200022220611572,2019-07-26 15:25:29:544,-103.7414725749087,-36.35251664823676,0,-40.03369903564453,25.33968162536621,-44.231990814208984
0.15719854831695557,-0.03957323729991913,9.793163299560547,0.0016161343661024066,-0.005353994608508731,-0.00020804367690182974,0.430006742477417,2019-07-26 15:25:29:554,-105.24524299945537,-39.221743672506705,0,-40.03369903564453,25.33968162536621,-44.231990814208984
0.15001431107521057,-0.018020492047071457,9.831480026245117,0.0016161343661024066,-0.0005591340518283637,0.003521292450694866,0.44001078605651855,2019-07-26 15:25:29:564,-106.72254038480884,-42.03611623351375,0,-40.03369903564453,25.33968162536621,-44.231990814208984
0.19072504341602325,-0.010836242698132992,9.874585151672363,0.0032144211316377544,-0.003755707842973384,0.0003247186270405554,0.45003271102905273,2019-07-26 15:25:29:574,-108.16384581884901,-44.795945246637444,0,-40.03369903564453,25.33968162536621,-44.231990814208984
0.20269879698753357,-0.02041524089872837,9.73808479309082,0.0037471836468905284,-0.0034893267153841595,0.0024557676802636425,0.46000170707702637,2019-07-26 15:25:29:584,-109.57476686948601,-47.49972152530013,0,-40.03369903564453,25.33968162536621,-44.231990814208984
0.17635655403137207,-0.015625741332769394,9.826689720153809,0.0005506098557455085,-0.004554851225741058,0.002189386552674418,0.47000551223754883,2019-07-26 15:25:29:594,-110.96014983179155,-50.148214222727205,0,-38.68424987792969,24.589988708496094,-44.68180847167969
0.1811460554599762,0.025085002183914185,9.759636878967285,-0.0007812959122377771,-0.002423801944952936,-0.0026054740040059496,0.48002028465270996,2019-07-26 15:25:29:604,-112.31831726694412,-45.5477559113755,0,-38.68424987792969,24.589988708496094,-44.68180847167969
0.19551454484462738,-0.05394173786044121,9.776400566101074,0.00294804000404853,-0.004554851225741058,-0.0010071871084334394,0.48999977111816406,2019-07-26 15:25:29:614,-113.64648494630814,-48.23213014036128,0,-38.68424987792969,24.589988708496094,-44.68180847167969
0.19551454484462738,0.010716505348682404,9.802742958068848,0.0021488966212808557,-0.0013582774345960375,0.0013902431699067445,0.500009298324585,2019-07-26 15:25:29:624,-114.94993972925225,-43.66994802121644,0,-38.68424987792969,24.589988708496094,-44.68180847167969
0.18593555688858032,0.017900753766298294,9.843453407287598,0.0037471836468905284,-0.001624658562185262,-0.0018063304912011133,0.5100052356719971,2019-07-26 15:25:29:634,-116.22838613731655,-39.2007361402107,0,-38.68424987792969,24.589988708496094,-44.68180847167969
0.22425153851509094,-0.015625741332769394,9.793163299560547,0.004812708157247427,-0.002423801944952936,-0.0007408059808442149,0.5200042724609375,2019-07-26 15:25:29:644,-117.47622209463456,-42.01759509174824,0,-38.68424987792969,24.589988708496094,-44.68180847167969
0.22904103994369507,-0.02041524089872837,9.774005889892578,0.0032144211316377544,-0.0026901830725421603,0.0008574809147282953,0.530001163482666,2019-07-26 15:25:29:654,-118.69833946938158,-44.7766540192372,0,-38.68424987792969,24.589988708496094,-44.68180847167969
0.226646289229393,-0.006046743132174015,9.757242202758789,0.005079089284836651,-0.0034893267153841595,0.0011238620423175197,0.5400137901306152,2019-07-26 15:25:29:664,-119.8957978172695,-47.48326629661394,0,-38.68424987792969,24.589988708496094,-44.68180847167969
0.22425153851509094,-0.029994240030646324,9.826689720153809,0.0021488966212808557,-0.0026901830725421603,0.002988529935442092,0.5499982833862305,2019-07-26 15:25:29:674,-121.07022765798663,-50.13130800746508,0,-38.68424987792969,24.589988708496094,-44.68180847167969
0.219462051987648,-0.008441492915153503,9.757242202758789,-0.0021132015501838996,-0.006419519118865629,-0.0010071871084334394,0.5599994659423828,2019-07-26 15:25:29:684,-122.21944828521244,-52.726503756837104,0,-38.68424987792969,24.589988708496094,-44.68180847167969
0.22904103994369507,0.0059270053170621395,9.752452850341797,-0.0010476770398270016,-0.004288470098151833,-0.0055356664074874195,0.5700209140777588,2019-07-26 15:25:29:694,-123.34573875300325,-48.07208057522598,0,-38.68424987792969,24.589988708496094,-44.68180847167969
0.19551454484462738,-0.02759948931634426,9.793163299560547,-0.00024853360829539187,-0.0010918963070068127,0.001656624297495969,0.5800013542175293,2019-07-26 15:25:29:704,-124.45533761030094,-50.70727022823662,0,-38.68424987792969,24.589988708496094,-44.68180847167969
0.20509354770183563,-0.029994240030646324,9.785979270935059,0.0010833721109239577,-0.003755707842973384,-0.0007408059808442149,0.5900123119354248,2019-07-26 15:25:29:714,-125.54010725658507,-53.2902215569153,0,-38.68424987792969,24.589988708496094,-44.68180847167969
0.2577780485153198,-0.008441492915153503,9.793163299560547,0.004279945902068978,-0.0008255151794175883,0.0024557676802636425,0.6000051498413086,2019-07-26 15:25:29:724,-126.59868580967824,-55.82583083442282,0,-38.68424987792969,24.290109634399414,-44.981685638427734
0.19311979413032532,-0.029994240030646324,9.785979270935059,-0.0034451073181671855,-0.005087613480919507,-0.002339092876416725,0.6100080013275146,2019-07-26 15:25:29:734,-127.64124364354053,-58.3038669977714,0,-38.68424987792969,24.290109634399414,-44.981685638427734
0.19311979413032532,-0.0036519933491945267,9.764426231384277,-0.0013140581674162262,-2.63717336631639e-05,0.0019230054250851934,0.6200058460235596,2019-07-26 15:25:29:744,-128.6657431226542,-60.73662339106597,0,-38.68424987792969,24.290109634399414,-44.981685638427734
0.1811460554599762,0.013111254200339317,9.735690116882324,-0.0015804392950054507,-0.0074850436292225285,0.0003247186270405554,0.6300103664398193,2019-07-26 15:25:29:754,-129.666904625139,-55.92254633475343,0,-38.68424987792969,24.290109634399414,-44.981685638427734
0.20509354770183563,0.003532255766913295,9.776400566101074,0.000816990983334733,0.0010391528437441464,0.0005910997871390706,0.6400067806243896,2019-07-26 15:25:29:764,-130.65011382044628,-51.204968007124386,0,-38.68424987792969,24.290109634399414,-44.981685638427734
0.1811460554599762,0.003532255766913295,9.814716339111328,-0.0021132015501838996,-0.004554851225741058,-0.004470141897130521,0.6500272750854492,2019-07-26 15:25:29:774,-131.6134014828664,-46.580092063319405,0,-38.68424987792969,24.290109634399414,-44.981685638427734
0.15001431107521057,0.015506003983318806,9.764426231384277,-0.0015804392950054507,-0.0018910396897744866,-0.0010071871084334394,0.6600387096405029,2019-07-26 15:25:29:784,-132.56246670393838,-42.04942151641201,0,-38.68424987792969,24.290109634399414,-44.981685638427734
0.15959329903125763,0.017900753766298294,9.812321662902832,0.0016161343661024066,-0.0010918963070068127,0.003787673578284091,0.6700019836425781,2019-07-26 15:25:29:794,-133.49197032966887,-37.6114277179034,0,-38.68424987792969,24.290109634399414,-44.981685638427734
0.18593555688858032,-0.051546987146139145,9.800348281860352,-0.0005149147521392618,-0.004554851225741058,-0.00020804367690182974,0.6799845695495605,2019-07-26 15:25:29:804,-134.39783973979902,-40.45288341530289,0,-38.68424987792969,24.290109634399414,-44.981685638427734
0.21467255055904388,-0.02759948931634426,9.7500581741333,0.0005506098557455085,-0.005620375736097956,-0.00047442482074569963,0.6899981498718262,2019-07-26 15:25:29:814,-135.28149662947246,-43.240891598984376,0,-38.68424987792969,24.290109634399414,-44.981685638427734
0.1619880497455597,0.0059270053170621395,9.788373947143555,-0.0007812959122377771,-0.007218662501633303,-0.0031382362591843983,0.7000105381011963,2019-07-26 15:25:29:824,-136.15284635106175,-38.77632839571321,0,-38.68424987792969,24.290109634399414,-44.981685638427734
0.20269879698753357,0.0059270053170621395,9.79076862335205,-0.0015804392950054507,-0.002157420817363711,0.003521292450694866,0.7100081443786621,2019-07-26 15:25:29:834,-137.00485776313528,-34.40060832476537,0,-38.68424987792969,24.290109634399414,-44.981685638427734
0.19072504341602325,-0.037178490310907364,9.771611213684082,-0.0026459639353995116,-0.005620375736097956,-0.001273568236022664,0.7200117111206055,2019-07-26 15:25:29:844,-137.83924018722627,-37.30675002746912,0,-38.08449172973633,25.189743041992188,-44.68180847167969
0.1811460554599762,-0.02041524089872837,9.754847526550293,-0.0013140581674162262,-0.0032229453277206094,0.0011238620423175197,0.7299942970275879,2019-07-26 15:25:29:854,-138.65937182031533,-40.15748026651463,0,-38.08449172973633,25.189743041992188,-44.68180847167969
0.1548037976026535,0.0011375061003491282,9.843453407287598,-0.005309775211291758,-0.005620375736097956,-0.00047442482074569963,0.739987850189209,2019-07-26 15:25:29:864,-139.46501074435224,-35.75148357332141,0,-38.08449172973633,25.189743041992188,-44.68180847167969
0.2003040462732315,-0.006046743132174015,9.774005889892578,0.004546327029658202,-0.0008255151794175883,0.0027221488078528673,0.7500979900360107,2019-07-26 15:25:29:874,-140.25176131067363,-38.638325847349925,0,-38.08449172973633,25.189743041992188,-44.68180847167969
0.18593555688858032,-0.04196798801422119,9.754847526550293,-0.0013140581674162262,-0.002157420817363711,0.002988529935442092,0.7599968910217285,2019-07-26 15:25:29:884,-141.0236874771715,-41.4598989401722,0,-38.08449172973633,25.189743041992188,-44.68180847167969
0.19790929555892944,-0.05394173786044121,9.774005889892578,-0.0015804392950054507,-0.005620375736097956,-0.0031382362591843983,0.7700233459472656,2019-07-26 15:25:29:894,-141.77684960452856,-44.22348707258766,0,-38.08449172973633,25.189743041992188,-44.68180847167969
0.20509354770183563,-0.015625741332769394,9.809926986694336,0.004013564774479754,-0.0018910396897744866,-0.001273568236022664,0.7800216674804688,2019-07-26 15:25:29:904,-142.51629711002758,-46.939445294031195,0,-38.08449172973633,25.189743041992188,-44.68180847167969
0.226646289229393,-0.037178490310907364,9.800348281860352,1.7847537580308712e-05,-0.0048212323533302825,-0.0018063304912011133,0.7900044918060303,2019-07-26 15:25:29:914,-143.23677257945934,-49.59631928074725,0,-38.08449172973633,25.189743041992188,-44.68180847167969
0.2913045287132263,-0.008441492915153503,9.774005889892578,0.004279945902068978,-0.005087613480919507,-0.003404617386773623,0.8000478744506836,2019-07-26 15:25:29:924,-143.93502527883888,-52.20581681457485,0,-38.08449172973633,25.189743041992188,-44.68180847167969
0.2338305413722992,-0.05394173786044121,9.785979270935059,-0.0015804392950054507,-0.004288470098151833,-0.005002904152308971,0.810016393661499,2019-07-26 15:25:29:934,-144.62654857604514,-54.7544994683659,0,-38.08449172973633,25.189743041992188,-44.68180847167969
0.2458042949438095,-0.06352073699235916,9.785979270935059,-0.004510631828524084,-0.004554851225741058,-0.004203760769541297,0.8200197219848633,2019-07-26 15:25:29:944,-145.302682145748,-57.249437895137,0,-38.08449172973633,25.189743041992188,-44.68180847167969
0.2338305413722992,-0.029994240030646324,9.771611213684082,0.0002842286956469933,-0.003755707842973384,-0.003404617386773623,0.8300180435180664,2019-07-26 15:25:29:954,-145.96710398667278,-59.70109129484905,0,-38.08449172973633,25.189743041992188,-44.68180847167969
0.24819904565811157,-0.04675748944282532,9.76682186126709,1.7847537580308712e-05,-0.004288470098151833,-0.00020804367690182974,0.8400232791900635,2019-07-26 15:25:29:964,-146.61623839928,-62.101593603887366,0,-38.08449172973633,25.189743041992188,-44.68180847167969
0.2984887957572937,-0.03238898888230324,9.759636878967285,-0.0005149147521392618,-0.005087613480919507,-0.0018063304912011133,0.8500149250030518,2019-07-26 15:25:29:974,-147.24602356136322,-64.45546995064907,0,-38.68424987792969,26.08937644958496,-44.381927490234375
0.26256754994392395,-0.006046743132174015,9.72850513458252,0.0021488966212808557,-0.0013582774345960375,0.001656624297495969,0.8600723743438721,2019-07-26 15:25:29:984,-147.8694158480564,-66.76686184336106,0,-38.68424987792969,26.08937644958496,-44.381927490234375
0.27454128861427307,-0.0036519933491945267,9.812321662902832,-0.002379582807810287,-0.0005591340518283637,-0.0018063304912011133,0.8700125217437744,2019-07-26 15:25:29:994,-148.47966197398975,-69.02976997916421,0,-38.68424987792969,26.08937644958496,-44.381927490234375
0.3176467716693878,0.0059270053170621395,9.769216537475586,0.0002842286956469933,-0.001624658562185262,-0.0031382362591843983,0.8800210952758789,2019-07-26 15:25:30:004,-149.0719093040766,-64.0500295398773,0,-38.68424987792969,26.08937644958496,-44.381927490234375
0.2721465528011322,-0.02041524089872837,9.812321662902832,0.0010833721109239577,-0.0018910396897744866,-0.001273568236022664,0.890040397644043,2019-07-26 15:25:30:014,-149.65763321739968,-66.36725427887504,0,-38.68424987792969,26.08937644958496,-44.381927490234375
0.2577780485153198,-0.03238898888230324,9.740479469299316,0.0026816588764593053,-0.003755707842973384,0.005918722598997886,0.9000158309936523,2019-07-26 15:25:30:024,-150.2320577697981,-68.63760086380043,0,-38.68424987792969,26.08937644958496,-44.381927490234375
0.2793307900428772,-0.0036519933491945267,9.826689720153809,0.0002842286956469933,0.0005063905560564065,0.003787673578284091,0.9100215435028076,2019-07-26 15:25:30:034,-150.79513640089544,-70.86458266339041,0,-38.68424987792969,26.08937644958496,-44.381927490234375
0.21467255055904388,-0.029994240030646324,9.845848083496094,0.0002842286956469933,-0.004288470098151833,0.005652341471408663,0.9200177192687988,2019-07-26 15:25:30:044,-151.35184577378433,-73.04395965430145,0,-38.68424987792969,26.08937644958496,-44.381927490234375
0.226646289229393,0.032269250601530075,9.869795799255371,0.0010833721109239577,-0.002157420817363711,0.006717865981765561,0.9300141334533691,2019-07-26 15:25:30:054,-151.8972881519526,-67.98743510729524,0,-38.68424987792969,26.08937644958496,-44.381927490234375
0.19311979413032532,0.025085002183914185,9.793163299560547,-0.00371148844575641,-0.0032229453277206094,0.004586816961051765,0.9400234222412109,2019-07-26 15:25:30:064,-152.43493666375377,-63.02853570830473,0,-38.68424987792969,26.08937644958496,-44.381927490234375
0.2074882984161377,0.020295504480600357,9.76682186126709,-0.0005149147521392618,-0.005087613480919507,0.004586816961051765,0.9500176906585693,2019-07-26 15:25:30:074,-152.95904248325843,-58.1700572507972,0,-38.68424987792969,26.08937644958496,-44.381927490234375
0.19790929555892944,0.017900753766298294,9.742874145507812,-0.0018468204225946753,-0.002423801944952936,-0.0018063304912011133,0.9600260257720947,2019-07-26 15:25:30:084,-153.4752254854592,-53.4077236627553,0,-38.68424987792969,26.08937644958496,-44.381927490234375
0.19790929555892944,0.027479752898216248,9.869795799255371,0.004013564774479754,-0.0029565642001313846,0.005385960343819439,0.9700379371643066,2019-07-26 15:25:30:094,-153.98108405363905,-48.74501596601642,0,-38.68424987792969,24.88986587524414,-44.981685638427734
0.18354080617427826,-0.0347837395966053,9.769216537475586,0.0018825154936916314,-0.00029275289172984846,0.00725062823694401,0.9800205230712891,2019-07-26 15:25:30:104,-154.4797717282692,-51.36709076855086,0,-38.68424987792969,24.88986587524414,-44.981685638427734
0.1548037976026535,-0.044362738728523254,9.795557975769043,0.0018825154936916314,-0.003755707842973384,0.003787673578284091,0.9900150299072266,2019-07-26 15:25:30:114,-154.96996069305536,-53.93561574334517,0,-38.68424987792969,24.88986587524414,-44.981685638427734
0.17396180331707,-0.0012572435662150383,9.7500581741333,0.0018825154936916314,-0.00029275289172984846,0.0032549110630313164,1.00001859664917,2019-07-26 15:25:30:124,-155.4499536346786,-56.457813072673964,0,-38.68424987792969,24.88986587524414,-44.981685638427734
0.16438280045986176,-0.03957323729991913,9.788373947143555,1.7847537580308712e-05,-2.63717336631639e-05,0.002189386552674418,1.0100212097167969,2019-07-26 15:25:30:134,-155.9216974217761,-58.9240340593489,0,-38.68424987792969,24.88986587524414,-44.981685638427734
0.1619880497455597,-0.051546987146139145,9.726110458374023,-0.0005149147521392618,-2.63717336631639e-05,0.0005910997871390706,1.020021677017212,2019-07-26 15:25:30:144,-156.38416524286808,-61.33919110969497,0,-38.68424987792969,24.88986587524414,-44.981685638427734
0.15959329903125763,-0.02759948931634426,9.77879524230957,0.0018825154936916314,-0.0026901830725421603,0.0019230054250851934,1.0300164222717285,2019-07-26 15:25:30:154,-156.83627212153348,-63.71022955974398,0,-38.68424987792969,24.88986587524414,-44.981685638427734
0.17635655403137207,-0.0036519933491945267,9.769216537475586,0.00294804000404853,-0.00029275289172984846,0.0024557676802636425,1.040020227432251,2019-07-26 15:25:30:164,-157.27869810297835,-66.03725254512611,0,-38.68424987792969,24.88986587524414,-44.981685638427734
0.18593555688858032,0.015506003983318806,9.829085350036621,-0.0005149147521392618,0.0005063905560564065,0.0027221488078528673,1.0500156879425049,2019-07-26 15:25:30:174,-157.71173379519294,-61.11802625437956,0,-38.68424987792969,24.88986587524414,-44.981685638427734
0.1811460554599762,-0.008441492915153503,9.797953605651855,0.0037471836468905284,-0.0013582774345960375,0.0005910997871390706,1.0600366592407227,2019-07-26 15:25:30:184,-158.1355514007005,-63.496786909202655,0,-38.68424987792969,24.88986587524414,-44.981685638427734
0.15959329903125763,-0.058731235563755035,9.829085350036621,0.0005506098557455085,-0.0013582774345960375,0.002189386552674418,1.0700128078460693,2019-07-26 15:25:30:194,-158.5534751060505,-65.82031255043242,0,-38.68424987792969,24.88986587524414,-44.981685638427734
0.21467255055904388,-0.022809991613030434,9.812321662902832,0.00294804000404853,-0.0029565642001313846,0.0011238620423175197,1.0800213813781738,2019-07-26 15:25:30:204,-158.955677897449,-68.10289921710913,0,-38.68424987792969,24.88986587524414,-44.981685638427734
0.22425153851509094,-0.029994240030646324,9.759636878967285,0.0021488966212808557,-0.0026901830725421603,0.0005910997871390706,1.0900168418884277,2019-07-26 15:25:30:214,-159.34872890872722,-70.33852556236809,0,-38.68424987792969,24.88986587524414,-44.981685638427734
0.19790929555892944,-0.022809991613030434,9.795557975769043,0.0026816588764593053,-0.0018910396897744866,-0.004203760769541297,1.1000161170959473,2019-07-26 15:25:30:224,-159.73754368063194,-72.53059230910436,0,-38.38437271118164,25.489622116088867,-44.381927490234375
0.20509354770183563,0.008321755565702915,9.759636878967285,0.0002842286956469933,-0.005353994608508731,-0.0015399493636118885,1.110016107559204,2019-07-26 15:25:30:234,-160.11570928994078,-67.48111714510854,0,-38.38437271118164,25.489622116088867,-44.381927490234375
0.2601727843284607,-0.02041524089872837,9.800348281860352,0.0018825154936916314,-0.0010918963070068127,-0.0031382362591843983,1.120023250579834,2019-07-26 15:25:30:244,-160.48236774661723,-69.73016551798881,0,-38.38437271118164,25.489622116088867,-44.381927490234375
0.226646289229393,-0.022809991613030434,9.814716339111328,0.0021488966212808557,-0.003755707842973384,0.002189386552674418,1.1300125122070312,2019-07-26 15:25:30:254,-160.84415648343546,-71.93410434244245,0,-38.38437271118164,25.489622116088867,-44.381927490234375
0.2529885470867157,0.015506003983318806,9.785979270935059,0.0018825154936916314,-0.0029565642001313846,-0.004470141897130521,1.1400392055511475,2019-07-26 15:25:30:264,-161.19599103755763,-66.89829782281274,0,-38.38437271118164,25.489622116088867,-44.381927490234375
0.2601727843284607,-0.025204740464687347,9.81950569152832,0.0005506098557455085,-0.0048212323533302825,0.00432043583346254,1.1500155925750732,2019-07-26 15:25:30:274,-161.53901598061327,-69.15769896944836,0,-38.38437271118164,25.489622116088867,-44.381927490234375
0.25538328289985657,-0.04675748944282532,9.833874702453613,0.004279945902068978,-0.002157420817363711,5.833747100570152e-05,1.1600196361541748,2019-07-26 15:25:30:284,-161.87727132655195,-71.3715006592289,0,-38.38437271118164,25.489622116088867,-44.381927490234375
0.24340954422950745,-0.006046743132174015,9.781189918518066,-0.0007812959122377771,-0.0018910396897744866,0.003787673578284091,1.170013427734375,2019-07-26 15:25:30:294,-162.21015397524877,-73.54292381553621,0,-38.38437271118164,25.489622116088867,-44.381927490234375
0.2841202914714813,0.020295504480600357,9.762031555175781,0.000816990983334733,-0.0005591340518283637,-0.00047442482074569963,1.1800217628479004,2019-07-26 15:25:30:304,-162.53229464704256,-68.47490684427036,0,-38.38437271118164,25.489622116088867,-44.381927490234375
0.2841202914714813,-0.006046743132174015,9.79076862335205,0.0021488966212808557,-0.006419519118865629,-0.001273568236022664,1.1900219917297363,2019-07-26 15:25:30:314,-162.84479989418782,-70.7059076243151,0,-38.38437271118164,25.489622116088867,-44.381927490234375
0.3056730329990387,-0.0347837395966053,9.87697982788086,0.0021488966212808557,-0.0034893267153841595,-0.0010071871084334394,1.2000210285186768,2019-07-26 15:25:30:324,-163.1504923225005,-72.8889604062363,0,-38.38437271118164,25.489622116088867,-44.381927490234375
0.2913045287132263,-0.015625741332769394,9.814716339111328,0.0002842286956469933,-0.007218662501633303,-0.001273568236022664,1.210017204284668,2019-07-26 15:25:30:334,-163.4494295264891,-75.02951635178967,0,-38.38437271118164,25.489622116088867,-44.381927490234375
0.2673570513725281,-0.022809991613030434,9.72850513458252,0.0026816588764593053,-0.0026901830725421603,0.00725062823694401,1.2200443744659424,2019-07-26 15:25:30:344,-163.74744237330418,-77.12774909151183,0,-39.28400421142578,24.589988708496094,-44.68180847167969
0.2458042949438095,-0.018020492047071457,9.774005889892578,0.0013497532385131823,-0.003755707842973384,0.0008574809147282953,1.2300164699554443,2019-07-26 15:25:30:354,-164.04157828307257,-79.18383713881624,0,-39.28400421142578,24.589988708496094,-44.68180847167969
0.2793307900428772,-0.01323099248111248,9.814716339111328,-0.0026459639353995116,-0.002423801944952936,0.004586816961051765,1.2400195598602295,2019-07-26 15:25:30:364,-164.3267809162248,-81.19712945040902,0,-39.28400421142578,24.589988708496094,-44.68180847167969
0.27454128861427307,-0.006046743132174015,9.783584594726562,0.0032144211316377544,-0.005087613480919507,0.002988529935442092,1.250018835067749,2019-07-26 15:25:30:374,-164.60524123317575,-83.17428339078987,0,-39.28400421142578,24.589988708496094,-44.68180847167969
0.25059378147125244,-0.01323099248111248,9.795557975769043,-0.0005149147521392618,0.0015719150989225955,0.006717865981765561,1.2600183486938477,2019-07-26 15:25:30:384,-164.8847101272768,-85.10896081037758,0,-39.28400421142578,24.589988708496094,-44.68180847167969
0.2458042949438095,0.017900753766298294,9.797953605651855,-0.00024853360829539187,0.0015719150989225955,0.0008574809147282953,1.2700121402740479,2019-07-26 15:25:30:394,-165.1591560946138,-79.80873570241124,0,-39.28400421142578,24.589988708496094,-44.68180847167969
0.21227779984474182,-0.03238898888230324,9.788373947143555,-0.0026459639353995116,0.0015719150989225955,0.0008574809147282953,1.2800242900848389,2019-07-26 15:25:30:404,-165.43200940883258,-81.80728174395118,0,-39.28400421142578,24.589988708496094,-44.68180847167969
0.22904103994369507,-0.0347837395966053,9.824295043945312,-0.0015804392950054507,-0.0034893267153841595,0.005652341471408663,1.2900161743164062,2019-07-26 15:25:30:414,-165.69470082144704,-83.76619222157484,0,-39.28400421142578,24.589988708496094,-44.68180847167969
0.22904103994369507,-0.02041524089872837,9.745268821716309,0.0026816588764593053,-0.00029275289172984846,0.003521292450694866,1.3000423908233643,2019-07-26 15:25:30:424,-165.9537147336329,-85.68997751187423,0,-39.28400421142578,24.589988708496094,-44.68180847167969
0.2673570513725281,-0.010836242698132992,9.79076862335205,0.0013497532385131823,-0.005087613480919507,0.003521292450694866,1.3100147247314453,2019-07-26 15:25:30:434,-166.20050784920429,-87.57566547168445,0,-39.28400421142578,24.589988708496094,-44.68180847167969
0.18833030760288239,0.013111254200339317,9.802742958068848,1.7847537580308712e-05,-2.63717336631639e-05,0.0027221488078528673,1.3200173377990723,2019-07-26 15:25:30:444,-166.4544702572089,-82.22569485741951,0,-39.28400421142578,24.589988708496094,-44.68180847167969
0.17875130474567413,0.0011375061003491282,9.817111015319824,-0.0005149147521392618,0.0026374397393166566,0.006185103726587112,1.3300890922546387,2019-07-26 15:25:30:454,-166.70600971417454,-76.98102253868629,0,-39.28400421142578,24.589988708496094,-44.68180847167969
0.17875130474567413,-0.02759948931634426,9.781189918518066,0.0016161343661024066,-0.004288470098151833,0.005385960343819439,1.340010166168213,2019-07-26 15:25:30:464,-166.94856127147406,-79.03906897256036,0,-39.28400421142578,24.589988708496094,-44.68180847167969
0.14283005893230438,0.020295504480600357,9.77879524230957,-0.0005149147521392618,-0.004288470098151833,0.002988529935442092,1.3500189781188965,2019-07-26 15:25:30:474,-167.19044378667684,-73.86037651367364,0,-38.38437271118164,25.489622116088867,-44.381927490234375
0.14283005893230438,-0.015625741332769394,9.771611213684082,-0.0018468204225946753,-0.00588675686368718,0.006984247109354786,1.3600192070007324,2019-07-26 15:25:30:484,-167.42658095939228,-75.98029954539673,0,-38.38437271118164,25.489622116088867,-44.381927490234375
0.13804055750370026,-0.006046743132174015,9.800348281860352,0.0010833721109239577,-0.0013582774345960375,0.004853198088640989,1.3700249195098877,2019-07-26 15:25:30:494,-167.66114676969792,-78.0605951925145,0,-38.38437271118164,25.489622116088867,-44.381927490234375
0.12127730995416641,-0.0036519933491945267,9.79076862335205,-0.0018468204225946753,0.001305533971333371,-0.002339092876416725,1.3800468444824219,2019-07-26 15:25:30:504,-167.89446487669596,-80.09791659713335,0,-38.38437271118164,25.489622116088867,-44.381927490234375
0.13804055750370026,-0.03238898888230324,9.829085350036621,0.0021488966212808557,-0.0026901830725421603,0.003521292450694866,1.3900134563446045,2019-07-26 15:25:30:514,-168.1189778048834,-82.09338480993024,0,-38.38437271118164,25.489622116088867,-44.381927490234375
0.15719854831695557,-0.025204740464687347,9.821900367736816,-0.0021132015501838996,-0.0032229453277206094,0.003521292450694866,1.400017261505127,2019-07-26 15:25:30:524,-168.33644918031752,-84.04738948599642,0,-38.38437271118164,25.489622116088867,-44.381927490234375
0.13804055750370026,0.003532255766913295,9.788373947143555,-0.0021132015501838996,-0.0032229453277206094,5.833747100570152e-05,1.410017490386963,2019-07-26 15:25:30:534,-168.5517512708282,-78.76566862711488,0,-38.38437271118164,25.489622116088867,-44.381927490234375
0.20269879698753357,0.003532255766913295,9.891348838806152,-0.00371148844575641,0.00343658312208433,-0.00047442482074569963,1.4200239181518555,2019-07-26 15:25:30:544,-168.75916769522715,-73.58867913214016,0,-38.38437271118164,25.489622116088867,-44.381927490234375
0.16438280045986176,-0.02759948931634426,9.826689720153809,0.005079089284836651,-0.00588675686368718,-0.0018063304912011133,1.4300215244293213,2019-07-26 15:25:30:554,-168.96151241270445,-75.7165383295029,0,-38.38437271118164,25.489622116088867,-44.381927490234375
0.128461554646492,-0.02759948931634426,9.831480026245117,-0.0007812959122377771,-0.0032229453277206094,-0.0010071871084334394,1.4400207996368408,2019-07-26 15:25:30:564,-169.165500534558,-77.79855202721657,0,-38.38437271118164,25.489622116088867,-44.381927490234375
0.2074882984161377,0.0011375061003491282,9.800348281860352,-0.0010476770398270016,-0.0029565642001313846,-0.002871855131595174,1.4500133991241455,2019-07-26 15:25:30:574,-169.35627449131118,-72.64212615683489,0,-38.38437271118164,25.489622116088867,-44.381927490234375
0.19551454484462738,-0.02759948931634426,9.805137634277344,0.003480802519301304,-0.0048212323533302825,-0.0026054740040059496,1.4600417613983154,2019-07-26 15:25:30:584,-169.54358766711655,-74.78801812961483,0,-38.38437271118164,25.489622116088867,-44.381927490234375
0.2003040462732315,-0.02041524089872837,9.795557975769043,-0.0018468204225946753,-0.006153137991276405,5.833747100570152e-05,1.4700098037719727,2019-07-26 15:25:30:594,-169.72584303591543,-76.88883585734769,0,-40.18363952636719,24.589988708496094,-45.28156280517578
0.21706730127334595,-0.0036519933491945267,9.793163299560547,-0.00024853360829539187,-0.005087613480919507,0.003787673578284091,1.4800198078155518,2019-07-26 15:25:30:604,-169.90307135364642,-78.95049212304261,0,-40.18363952636719,24.589988708496094,-45.28156280517578
0.22904103994369507,-0.015625741332769394,9.788373947143555,0.0021488966212808557,-0.003755707842973384,-0.00047442482074569963,1.4900166988372803,2019-07-26 15:25:30:614,-170.07609303366232,-80.97085921891872,0,-40.18363952636719,24.589988708496094,-45.28156280517578
0.22185680270195007,-0.06352073699235916,9.805137634277344,0.0024152777488700805,-0.006153137991276405,-0.001273568236022664,1.5000193119049072,2019-07-26 15:25:30:624,-170.24519155581484,-82.94537506966266,0,-40.18363952636719,24.589988708496094,-45.28156280517578
0.24819904565811157,-0.025204740464687347,9.76682186126709,0.004546327029658202,-0.001624658562185262,-0.00020804367690182974,1.5100195407867432,2019-07-26 15:25:30:634,-170.41026118344638,-84.88606318361694,0,-40.18363952636719,24.589988708496094,-45.28156280517578
0.2003040462732315,-0.025204740464687347,9.771611213684082,-0.0034451073181671855,-0.001624658562185262,-0.0018063304912011133,1.5200176239013672,2019-07-26 15:25:30:644,-170.5776575505447,-86.78345211756266,0,-40.18363952636719,24.589988708496094,-45.28156280517578
0.219462051987648,-0.03238898888230324,9.824295043945312,0.0010833721109239577,-0.0005591340518283637,0.002988529935442092,1.5300235748291016,2019-07-26 15:25:30:654,-170.74019624338922,-88.6446138788408,0,-40.18363952636719,24.589988708496094,-45.28156280517578
0.21467255055904388,-0.010836242698132992,9.747663497924805,0.004812708157247427,-0.004554851225741058,0.0008574809147282953,1.540038824081421,2019-07-26 15:25:30:664,-170.89759848398194,-90.47315416496222,0,-40.18363952636719,24.589988708496094,-45.28156280517578
0.24101479351520538,-0.025204740464687347,9.802742958068848,0.0024152777488700805,-0.007218662501633303,0.0024557676802636425,1.5500173568725586,2019-07-26 15:25:30:674,-171.04743360813228,-92.2620979822733,0,-40.18363952636719,24.589988708496094,-45.28156280517578
0.18833030760288239,0.027479752898216248,9.831480026245117,0.0002842286956469933,0.0010391528437441464,0.002988529935442092,1.5600178241729736,2019-07-26 15:25:30:684,-171.20512014905532,-86.82021853915334,0,-40.18363952636719,24.589988708496094,-45.28156280517578
0.16917230188846588,0.003532255766913295,9.833874702453613,-0.0013140581674162262,-0.0029565642001313846,0.006185103726587112,1.5700170993804932,2019-07-26 15:25:30:694,-171.3596464999381,-81.48348798444493,0,-40.18363952636719,24.589988708496094,-45.28156280517578
0.21706730127334595,0.0011375061003491282,9.841058731079102,0.0013497532385131823,-0.004288470098151833,-0.004203760769541297,1.5800635814666748,2019-07-26 15:25:30:704,-171.50476268745953,-76.25471208600344,0,-40.18363952636719,24.589988708496094,-45.28156280517578
0.19551454484462738,0.025085002183914185,9.833874702453613,-0.0021132015501838996,-0.0029565642001313846,0.0013902431699067445,1.5900135040283203,2019-07-26 15:25:30:714,-171.65023584511258,-71.13136030955427,0,-40.18363952636719,24.589988708496094,-45.28156280517578
0.22904103994369507,-0.0036519933491945267,9.809926986694336,0.0005506098557455085,-0.0029565642001313846,-0.0010071871084334394,1.6000213623046875,2019-07-26 15:25:30:724,-171.788819872249,-73.30861591696824,0,-39.43394470214844,25.33968162536621,-43.632232666015625
0.20988304913043976,-0.015625741332769394,9.785979270935059,-0.0018468204225946753,-0.006419519118865629,0.0019230054250851934,1.6100132465362549,2019-07-26 15:25:30:734,-171.92486879550745,-75.43957771637277,0,-39.43394470214844,25.33968162536621,-43.632232666015625
0.19551454484462738,0.0059270053170621395,9.802742958068848,-0.005309775211291758,-0.0018910396897744866,-0.005269285279898195,1.6200430393218994,2019-07-26 15:25:30:744,-172.0624543193523,-70.32848869965868,0,-39.43394470214844,25.33968162536621,-43.632232666015625
0.23622529208660126,-0.025204740464687347,9.781189918518066,-0.005576156338880983,-0.0008255151794175883,-0.00047442482074569963,1.630018711090088,2019-07-26 15:25:30:754,-172.19307323278215,-72.51584268308005,0,-39.43394470214844,25.33968162536621,-43.632232666015625
0.19551454484462738,-0.006046743132174015,9.809926986694336,-0.0021132015501838996,-0.002423801944952936,-0.0010071871084334394,1.6400160789489746,2019-07-26 15:25:30:764,-172.32501577495728,-74.66363325086037,0,-39.43394470214844,25.33968162536621,-43.632232666015625
0.19072504341602325,-0.051546987146139145,9.754847526550293,0.0018825154936916314,-0.0026901830725421603,-0.00047442482074569963,1.6500182151794434,2019-07-26 15:25:30:774,-172.4546027191402,-76.7653626011804,0,-39.43394470214844,25.33968162536621,-43.632232666015625
0.21706730127334595,-0.03957323729991913,9.788373947143555,-0.002912345062988736,-0.008550568139579426,0.0008574809147282953,1.6600160598754883,2019-07-26 15:25:30:784,-172.57530286993068,-78.82378764796073,0,-39.43394470214844,25.33968162536621,-43.632232666015625
0.20988304913043976,-0.015625741332769394,9.783584594726562,0.0021488966212808557,-0.0034893267153841595,-0.001273568236022664,1.6700153350830078,2019-07-26 15:25:30:794,-172.6972586361457,-80.84668822552567,0,-39.43394470214844,25.33968162536621,-43.632232666015625
0.21706730127334595,-0.044362738728523254,9.821900367736816,-0.0005149147521392618,-0.0026901830725421603,0.004054054705873315,1.6800239086151123,2019-07-26 15:25:30:804,-172.81648063623751,-82.82428934862757,0,-39.43394470214844,25.33968162536621,-43.632232666015625
0.2338305413722992,-0.044362738728523254,9.793163299560547,-0.0013140581674162262,-0.002423801944952936,5.833747100570152e-05,1.6900177001953125,2019-07-26 15:25:30:814,-172.93143517398957,-84.76187524980091,0,-39.43394470214844,25.33968162536621,-43.632232666015625
0.21706730127334595,-0.06591548770666122,9.793163299560547,0.00294804000404853,-0.0032229453277206094,0.0024557676802636425,1.70003342628479,2019-07-26 15:25:30:824,-173.04559866951485,-86.66058289553817,0,-39.43394470214844,25.33968162536621,-43.632232666015625
0.19790929555892944,-0.04196798801422119,9.793163299560547,-0.0010476770398270016,-0.001624658562185262,0.003787673578284091,1.7100188732147217,2019-07-26 15:25:30:834,-173.16062121052533,-88.5218731050711,0,-39.43394470214844,25.33968162536621,-43.632232666015625
0.2458042949438095,-0.0012572435662150383,9.817111015319824,0.000816990983334733,-0.006419519118865629,0.002189386552674418,1.7200183868408203,2019-07-26 15:25:30:844,-173.26511856443523,-90.35174760652455,0,-38.234432220458984,24.739927291870117,-44.53186798095703
0.19072504341602325,-0.06831023842096329,9.805137634277344,-0.0007812959122377771,-0.003755707842973384,0.004853198088640989,1.7300183773040771,2019-07-26 15:25:30:854,-173.3754203560166,-92.13629074536787,0,-38.234432220458984,24.739927291870117,-44.53186798095703
0.24101479351520538,-0.018020492047071457,9.793163299560547,0.0005506098557455085,-0.001624658562185262,0.004853198088640989,1.7400236129760742,2019-07-26 15:25:30:864,-173.47880334635374,-93.89176565132162,0,-38.234432220458984,24.739927291870117,-44.53186798095703
0.19790929555892944,-0.018020492047071457,9.793163299560547,0.0018825154936916314,-0.002157420817363711,0.00432043583346254,1.7500207424163818,2019-07-26 15:25:30:874,-173.5848616686881,-95.6128784570633,0,-38.234432220458984,24.739927291870117,-44.53186798095703
0.15719854831695557,0.046637751162052155,9.829085350036621,-0.0042442507009348585,-0.0026901830725421603,-0.0018063304912011133,1.7600135803222656,2019-07-26 15:25:30:884,-173.69332968575443,-90.10367663567015,0,-38.234432220458984,24.739927291870117,-44.53186798095703
0.22904103994369507,0.032269250601530075,9.793163299560547,-0.0015804392950054507,-0.0013582774345960375,0.0003247186270405554,1.7700238227844238,2019-07-26 15:25:30:894,-173.7919040222908,-84.70449064869676,0,-38.234432220458984,24.739927291870117,-44.53186798095703
0.18833030760288239,-0.022809991613030434,9.845848083496094,-0.00024853360829539187,-0.0010918963070068127,-0.0020727116187903376,1.780019998550415,2019-07-26 15:25:30:904,-173.89353680228845,-86.60760658648316,0,-38.234432220458984,24.739927291870117,-44.53186798095703
0.21227779984474182,-0.01323099248111248,9.759636878967285,-0.005043394083702533,0.00024000941221253666,0.0024557676802636425,1.7900373935699463,2019-07-26 15:25:30:914,-173.99088066189668,-88.47106417028779,0,-38.234432220458984,24.739927291870117,-44.53186798095703
0.219462051987648,-0.008441492915153503,9.800348281860352,-0.0005149147521392618,-0.0082841870119902,0.0011238620423175197,1.8000154495239258,2019-07-26 15:25:30:924,-174.08076516293352,-90.30036736759001,0,-38.234432220458984,24.739927291870117,-44.53186798095703
0.18593555688858032,-0.008441492915153503,9.833874702453613,-0.0013140581674162262,-0.002157420817363711,0.0027221488078528673,1.810020923614502,2019-07-26 15:25:30:934,-174.1762738069924,-92.09263810970793,0,-38.234432220458984,24.739927291870117,-44.53186798095703
0.20509354770183563,-0.02759948931634426,9.809926986694336,-0.00024853360829539187,-0.0032229453277206094,0.001656624297495969,1.8200182914733887,2019-07-26 15:25:30:944,-174.26698526334968,-93.84742189442699,0,-38.234432220458984,24.739927291870117,-44.53186798095703
0.25538328289985657,-0.02759948931634426,9.821900367736816,-0.0013140581674162262,-0.0008255151794175883,-0.0015399493636118885,1.830017328262329,2019-07-26 15:25:30:954,-174.35139336504793,-95.56651567731893,0,-38.234432220458984,24.739927291870117,-44.53186798095703
0.22185680270195007,0.003532255766913295,9.824295043945312,0.0016161343661024066,-0.0032229453277206094,-0.0018063304912011133,1.840017557144165,2019-07-26 15:25:30:964,-174.43668257533477,-90.05650484761426,0,-38.234432220458984,24.739927291870117,-44.53186798095703
0.19790929555892944,-0.0036519933491945267,9.762031555175781,0.0026816588764593053,-0.002423801944952936,-0.002871855131595174,1.8500185012817383,2019-07-26 15:25:30:974,-174.5233594430059,-91.856451951597,0,-38.38437271118164,24.290109634399414,-45.28156280517578
0.23622529208660126,0.013111254200339317,9.762031555175781,0.0026816588764593053,-0.0010918963070068127,-0.003937379641952073,1.8600389957427979,2019-07-26 15:25:30:984,-174.60455401563976,-86.42237080932307,0,-38.38437271118164,24.290109634399414,-45.28156280517578
0.21467255055904388,-0.04675748944282532,9.747663497924805,0.0016161343661024066,-0.002423801944952936,0.0032549110630313164,1.870016098022461,2019-07-26 15:25:30:994,-174.68587269841183,-88.28933209885592,0,-38.38437271118164,24.290109634399414,-45.28156280517578
0.21227779984474182,0.017900753766298294,9.800348281860352,0.004546327029658202,-0.0032229453277206094,-0.00020804367690182974,1.8800182342529297,2019-07-26 15:25:31:004,-174.7655282635567,-82.92819181997675,0,-38.38437271118164,24.290109634399414,-45.28156280517578
0.2338305413722992,-0.044362738728523254,9.824295043945312,0.00294804000404853,0.0007727717161549218,0.0008574809147282953,1.8900237083435059,2019-07-26 15:25:31:014,-174.84338276662297,-84.86610973116356,0,-38.38437271118164,24.290109634399414,-45.28156280517578
0.20509354770183563,-0.025204740464687347,9.865006446838379,-0.0010476770398270016,-0.004554851225741058,-0.0010071871084334394,1.900019645690918,2019-07-26 15:25:31:024,-174.9201384465377,-86.76527173911182,0,-38.38437271118164,24.290109634399414,-45.28156280517578
0.17396180331707,-0.03238898888230324,9.680610656738281,0.004812708157247427,-0.004288470098151833,-0.005802047535076645,1.9100334644317627,2019-07-26 15:25:31:034,-174.99873434739573,-88.62883842475543,0,-38.38437271118164,24.290109634399414,-45.28156280517578
0.24340954422950745,-0.0036519933491945267,9.81950569152832,0.0024152777488700805,-0.002157420817363711,-0.0015399493636118885,1.920020341873169,2019-07-26 15:25:31:044,-175.0691502970251,-90.45718987188414,0,-38.38437271118164,24.290109634399414,-45.28156280517578
0.2793307900428772,-0.008441492915153503,9.809926986694336,0.006144613795193549,-0.001624658562185262,0.004054054705873315,1.9300203323364258,2019-07-26 15:25:31:054,-175.1342347198474,-92.25051019739125,0,-38.38437271118164,24.290109634399414,-45.28156280517578
0.21227779984474182,-0.06352073699235916,9.745268821716309,0.0010833721109239577,-0.0010918963070068127,0.0003247186270405554,1.9400174617767334,2019-07-26 15:25:31:064,-175.20597996932958,-93.99863903236434,0,-38.38437271118164,24.290109634399414,-45.28156280517578
0.23143579065799713,-0.01323099248111248,9.781189918518066,0.00294804000404853,-0.0029565642001313846,-0.0007408059808442149,1.9500436782836914,2019-07-26 15:25:31:074,-175.27308710241132,-95.71877583547504,0,-38.38437271118164,24.290109634399414,-45.28156280517578
0.19311979413032532,-0.029994240030646324,9.809926986694336,-0.002379582807810287,-0.004022088970562609,0.0005910997871390706,1.9600141048431396,2019-07-26 15:25:31:084,-175.34281787735088,-97.39956446630698,0,-38.38437271118164,24.290109634399414,-45.28156280517578
0.2074882984161377,-0.018020492047071457,9.841058731079102,-0.002379582807810287,-0.0005591340518283637,0.002988529935442092,1.9700207710266113,2019-07-26 15:25:31:094,-175.41149052026583,-99.0481378084448,0,-39.88376235961914,23.690353393554688,-43.18241882324219
0.22185680270195007,-0.022809991613030434,9.706953048706055,0.0016161343661024066,-0.006153137991276405,0.003521292450694866,1.9800217151641846,2019-07-26 15:25:31:104,-175.47361954485237,-100.66538985765774,0,-39.88376235961914,23.690353393554688,-43.18241882324219
0.2338305413722992,-0.058731235563755035,9.73808479309082,-0.00024853360829539187,-0.0013582774345960375,0.002988529935442092,1.990018367767334,2019-07-26 15:25:31:114,-175.53587434088377,-102.24503152323074,0,-39.88376235961914,23.690353393554688,-43.18241882324219
0.23622529208660126,-0.03238898888230324,9.742874145507812,0.000816990983334733,-0.0008255151794175883,0.005385960343819439,2.000018358230591,2019-07-26 15:25:31:124,-175.5969149530255,-103.79678019000117,0,-39.88376235961914,23.690353393554688,-43.18241882324219
0.17875130474567413,-0.010836242698132992,9.821900367736816,0.0024152777488700805,-0.004288470098151833,0.002189386552674418,2.0100202560424805,2019-07-26 15:25:31:134,-175.66171571469548,-105.32093676092069,0,-39.88376235961914,23.690353393554688,-43.18241882324219
0.14522480964660645,-0.029994240030646324,9.785979270935059,-0.0005149147521392618,-0.0029565642001313846,0.0005910997871390706,2.02003812789917,2019-07-26 15:25:31:144,-175.7298140848203,-106.81071613975773,0,-39.88376235961914,23.690353393554688,-43.18241882324219
0.16917230188846588,-0.0036519933491945267,9.829085350036621,0.0016161343661024066,0.0026374397393166566,-0.00020804367690182974,2.0300204753875732,2019-07-26 15:25:31:154,-175.79697524539333,-108.27498190778823,0,-39.88376235961914,23.690353393554688,-43.18241882324219
0.16917230188846588,-0.029994240030646324,9.774005889892578,0.005345470412425876,-0.0005591340518283637,0.0032549110630313164,2.04001784324646,2019-07-26 15:25:31:164,-175.86088989689387,-109.70896640611701,0,-39.88376235961914,23.690353393554688,-43.18241882324219
0.17156705260276794,-0.03957323729991913,9.754847526550293,0.000816990983334733,0.00024000941221253666,0.005385960343819439,2.0500173568725586,2019-07-26 15:25:31:174,-175.9236547133318,-111.110597096944,0,-39.88376235961914,23.690353393554688,-43.18241882324219
0.16677755117416382,-0.018020492047071457,9.800348281860352,0.005878232667604326,0.002371058611727432,0.006717865981765561,2.0600180625915527,2019-07-26 15:25:31:184,-175.98701430822146,-112.48957894577833,0,-39.88376235961914,23.690353393554688,-43.18241882324219
0.17396180331707,-0.010836242698132992,9.812321662902832,-0.00024853360829539187,-0.002157420817363711,0.001656624297495969,2.070020914077759,2019-07-26 15:25:31:194,-176.04574857736438,-113.838382283804,0,-39.88376235961914,23.690353393554688,-43.18241882324219
0.16677755117416382,0.025085002183914185,9.747663497924805,-0.002912345062988736,-0.002157420817363711,0.004853198088640989,2.0800092220306396,2019-07-26 15:25:31:204,-176.10401951477476,-107.96293020788413,0,-39.88376235961914,23.690353393554688,-43.18241882324219
0.15240906178951263,-0.02759948931634426,9.821900367736816,0.0013497532385131823,0.0010391528437441464,0.003787673578284091,2.0900216102600098,2019-07-26 15:25:31:214,-176.1647432776915,-109.40121041880161,0,-39.88376235961914,23.690353393554688,-43.18241882324219
0.1476195603609085,0.008321755565702915,9.769216537475586,0.004812708157247427,-0.0010918963070068127,0.005385960343819439,2.100017547607422,2019-07-26 15:25:31:224,-176.2235213103602,-103.61686357182828,0,-37.78461456298828,25.489622116088867,-43.482295989990234
0.15719854831695557,-0.02759948931634426,9.800348281860352,0.00294804000404853,-0.0005591340518283637,0.004054054705873315,2.110044479370117,2019-07-26 15:25:31:234,-176.28035706318278,-105.14295898936665,0,-37.78461456298828,25.489622116088867,-43.482295989990234
0.20988304913043976,-0.0012572435662150383,9.865006446838379,0.0005506098557455085,-0.0048212323533302825,-0.00020804367690182974,2.1200168132781982,2019-07-26 15:25:31:244,-176.32767403427408,-106.64026207996234,0,-37.78461456298828,25.489622116088867,-43.482295989990234
0.17875130474567413,-0.0012572435662150383,9.84824275970459,0.0032144211316377544,-0.0005591340518283637,0.0019230054250851934,2.130018711090088,2019-07-26 15:25:31:254,-176.38000979353686,-108.10911578443981,0,-37.78461456298828,25.489622116088867,-43.482295989990234
0.20269879698753357,-0.01323099248111248,9.788373947143555,0.005345470412425876,-0.005353994608508731,0.0024557676802636425,2.1400275230407715,2019-07-26 15:25:31:264,-176.42567432439458,-109.54838864928699,0,-37.78461456298828,25.489622116088867,-43.482295989990234
0.20988304913043976,0.027479752898216248,9.754847526550293,0.004812708157247427,-0.004022088970562609,0.0032549110630313164,2.1500136852264404,2019-07-26 15:25:31:274,-176.47025411353377,-103.76334754243994,0,-37.78461456298828,25.489622116088867,-43.482295989990234
0.19072504341602325,-0.010836242698132992,9.850637435913086,0.0018825154936916314,-0.004022088970562609,5.833747100570152e-05,2.160022258758545,2019-07-26 15:25:31:284,-176.5164046005154,-105.28787795809197,0,-37.78461456298828,25.489622116088867,-43.482295989990234
0.23622529208660126,-0.02041524089872837,9.752452850341797,1.7847537580308712e-05,-0.005353994608508731,0.003521292450694866,2.170013904571533,2019-07-26 15:25:31:294,-176.55532165628117,-106.77973161964158,0,-37.78461456298828,25.489622116088867,-43.482295989990234
0.2074882984161377,-0.018020492047071457,9.785979270935059,0.0037471836468905284,-0.0010918963070068127,0.0011238620423175197,2.1800389289855957,2019-07-26 15:25:31:304,-176.59930782952225,-108.2441361353515,0,-37.78461456298828,25.489622116088867,-43.482295989990234
0.2338305413722992,-0.025204740464687347,9.833874702453613,-0.00024853360829539187,-0.003755707842973384,0.002988529935442092,2.190016269683838,2019-07-26 15:25:31:314,-176.63797510121412,-109.67617714180071,0,-37.78461456298828,25.489622116088867,-43.482295989990234
0.22425153851509094,0.03466400131583214,9.831480026245117,0.0021488966212808557,-0.0048212323533302825,0.004054054705873315,2.2000181674957275,2019-07-26 15:25:31:324,-176.67637469388148,-103.88790070263248,0,-37.78461456298828,25.489622116088867,-43.482295989990234
0.226646289229393,0.020295504480600357,9.814716339111328,0.0024152777488700805,-0.0010918963070068127,0.0024557676802636425,2.2100181579589844,2019-07-26 15:25:31:334,-176.715776754357,-98.21386845736245,0,-37.78461456298828,25.489622116088867,-43.482295989990234
0.19072504341602325,0.015506003983318806,9.752452850341797,-0.0026459639353995116,0.0007727717161549218,0.001656624297495969,2.2200217247009277,2019-07-26 15:25:31:344,-176.75948790151105,-92.64992681087074,0,-38.68424987792969,25.489622116088867,-43.482295989990234
0.2601727843284607,-0.0012572435662150383,9.68779468536377,-0.00024853360829539187,-0.0029565642001313846,-0.0031382362591843983,2.230020046234131,2019-07-26 15:25:31:354,-176.79187131258925,-94.39664003441466,0,-38.68424987792969,25.489622116088867,-43.482295989990234
0.2529885470867157,0.020295504480600357,9.735690116882324,-0.0010476770398270016,-0.002423801944952936,0.0013902431699067445,2.240020275115967,2019-07-26 15:25:31:364,-176.82490219534452,-88.91050778027838,0,-38.68424987792969,25.489622116088867,-43.482295989990234
0.19551454484462738,0.008321755565702915,9.802742958068848,-0.0007812959122377771,-0.0032229453277206094,5.833747100570152e-05,2.2500500679016113,2019-07-26 15:25:31:374,-176.86373695989656,-83.53283041279856,0,-38.68424987792969,25.489622116088867,-43.482295989990234
0.2074882984161377,-0.015625741332769394,9.745268821716309,1.7847537580308712e-05,-0.003755707842973384,0.0013902431699067445,2.2600502967834473,2019-07-26 15:25:31:384,-176.89995913509688,-85.46034644580857,0,-38.68424987792969,25.489622116088867,-43.482295989990234
0.24101479351520538,-0.015625741332769394,9.826689720153809,-0.0010476770398270016,-0.0005591340518283637,-0.0018063304912011133,2.270012378692627,2019-07-26 15:25:31:394,-176.93354746776754,-87.34873132187025,0,-38.68424987792969,25.489622116088867,-43.482295989990234
0.22185680270195007,-0.015625741332769394,9.829085350036621,-0.0021132015501838996,-0.005087613480919507,0.0013902431699067445,2.280048370361328,2019-07-26 15:25:31:404,-176.96614895238227,-89.19874415272774,0,-38.68424987792969,25.489622116088867,-43.482295989990234
0.2338305413722992,-0.044362738728523254,9.809926986694336,-0.0015804392950054507,-0.0008255151794175883,-0.0031382362591843983,2.290011405944824,2019-07-26 15:25:31:414,-176.99905515722187,-91.00870307776407,0,-38.68424987792969,25.489622116088867,-43.482295989990234
0.23862004280090332,0.017900753766298294,9.783584594726562,-0.0018468204225946753,-0.004554851225741058,-0.0018063304912011133,2.3000264167785645,2019-07-26 15:25:31:424,-177.02856951659618,-85.58958712012893,0,-38.68424987792969,25.489622116088867,-43.482295989990234
0.2458042949438095,0.0059270053170621395,9.735690116882324,0.00294804000404853,-0.0018910396897744866,0.003521292450694866,2.3100147247314453,2019-07-26 15:25:31:434,-177.05801190343388,-80.28014638634485,0,-38.68424987792969,25.489622116088867,-43.482295989990234
0.22904103994369507,-0.015625741332769394,9.826689720153809,0.0010833721109239577,-0.0034893267153841595,-0.0007408059808442149,2.320023775100708,2019-07-26 15:25:31:444,-177.0881864096876,-82.27333016473425,0,-38.68424987792969,25.489622116088867,-43.482295989990234
0.21467255055904388,-0.0012572435662150383,9.77879524230957,0.0018825154936916314,-0.002423801944952936,-0.005269285279898195,2.3300211429595947,2019-07-26 15:25:31:454,-177.1199099904418,-84.22877298462691,0,-38.68424987792969,25.489622116088867,-43.482295989990234
0.24340954422950745,-0.008441492915153503,9.771611213684082,0.0021488966212808557,-0.0005591340518283637,-0.002339092876416725,2.340039014816284,2019-07-26 15:25:31:464,-177.14865857237888,-86.14441635134361,0,-38.68424987792969,25.489622116088867,-43.482295989990234
0.20509354770183563,-0.0036519933491945267,9.800348281860352,-0.0007812959122377771,-0.0008255151794175883,-0.00020804367690182974,2.3500139713287354,2019-07-26 15:25:31:474,-177.1812457663938,-88.02066341339489,0,-39.43394470214844,24.440048217773438,-44.83174514770508
0.20509354770183563,-0.029994240030646324,9.7500581741333,-0.0010476770398270016,-2.63717336631639e-05,-0.0010071871084334394,2.3600220680236816,2019-07-26 15:25:31:484,-177.213505124986,-89.85613621458909,0,-39.43394470214844,24.440048217773438,-44.83174514770508
0.20509354770183563,0.013111254200339317,9.826689720153809,-0.003977869573345634,-0.006419519118865629,-0.0015399493636118885,2.3700106143951416,2019-07-26 15:25:31:494,-177.241721584858,-84.45831141639525,0,-39.43394470214844,24.440048217773438,-44.83174514770508
0.219462051987648,-0.018020492047071457,9.77879524230957,0.000816990983334733,-0.005620375736097956,0.0005910997871390706,2.3800208568573,2019-07-26 15:25:31:504,-177.26801502453876,-86.36749269137549,0,-39.43394470214844,24.440048217773438,-44.83174514770508
0.21467255055904388,-0.015625741332769394,9.833874702453613,0.005878232667604326,-0.004288470098151833,0.0019230054250851934,2.3900163173675537,2019-07-26 15:25:31:514,-177.2952365910325,-88.24162113381514,0,-39.43394470214844,24.440048217773438,-44.83174514770508
0.22185680270195007,-0.03238898888230324,9.79076862335205,0.004013564774479754,-0.005620375736097956,0.0011238620423175197,2.400024890899658,2019-07-26 15:25:31:524,-177.3202115515891,-90.07525344767487,0,-39.43394470214844,24.440048217773438,-44.83174514770508
0.24340954422950745,-0.04675748944282532,9.79076862335205,0.0032144211316377544,-0.0034893267153841595,0.0011238620423175197,2.4100139141082764,2019-07-26 15:25:31:534,-177.34336733294944,-91.87007881640945,0,-39.43394470214844,24.440048217773438,-44.83174514770508
0.20509354770183563,-0.04675748944282532,9.817111015319824,0.0037471836468905284,-0.0008255151794175883,0.003787673578284091,2.4200446605682373,2019-07-26 15:25:31:544,-177.37209869505563,-93.62932995770838,0,-39.43394470214844,24.440048217773438,-44.83174514770508
0.22185680270195007,-0.04915223643183708,9.785979270935059,-0.0010476770398270016,0.0007727717161549218,0.004054054705873315,2.430018424987793,2019-07-26 15:25:31:554,-177.39911502281288,-95.3504010676188,0,-39.43394470214844,24.440048217773438,-44.83174514770508
0.24101479351520538,-0.058731235563755035,9.795557975769043,-0.0018468204225946753,-0.003755707842973384,0.00432043583346254,2.4400203227996826,2019-07-26 15:25:31:564,-177.42083450608845,-97.03548537752694,0,-39.43394470214844,24.440048217773438,-44.83174514770508
0.20988304913043976,-0.08267873525619507,9.762031555175781,0.00294804000404853,-0.004022088970562609,-0.0018063304912011133,2.4500203132629395,2019-07-26 15:25:31:574,-177.44552610441002,-98.68672598165395,0,-39.43394470214844,24.440048217773438,-44.83174514770508
0.22425153851509094,0.003532255766913295,9.797953605651855,0.006677376050372,-0.002423801944952936,-0.003404617386773623,2.4600155353546143,2019-07-26 15:25:31:584,-177.4690326038359,-93.11715212167437,0,-39.43394470214844,24.440048217773438,-44.83174514770508
0.1811460554599762,0.0011375061003491282,9.83626937866211,0.0002842286956469933,-0.005087613480919507,0.0019230054250851934,2.470015048980713,2019-07-26 15:25:31:594,-177.49569445280554,-87.65510118383214,0,-39.43394470214844,25.63956069946289,-43.93211364746094
0.20988304913043976,-0.010836242698132992,9.776400566101074,0.003480802519301304,-0.001624658562185262,0.00432043583346254,2.4800190925598145,2019-07-26 15:25:31:604,-177.52027082913477,-89.50268427460375,0,-39.43394470214844,25.63956069946289,-43.93211364746094
0.19551454484462738,-0.02041524089872837,9.759636878967285,0.0026816588764593053,-0.0013582774345960375,0.002988529935442092,2.490020275115967,2019-07-26 15:25:31:614,-177.54614962520128,-91.31173948843623,0,-39.43394470214844,25.63956069946289,-43.93211364746094
0.18354080617427826,-0.015625741332769394,9.764426231384277,0.003480802519301304,-0.0029565642001313846,0.0019230054250851934,2.50004243850708,2019-07-26 15:25:31:624,-177.57202573819063,-93.08562972083304,0,-39.43394470214844,25.63956069946289,-43.93211364746094
0.18354080617427826,0.025085002183914185,9.838664054870605,0.000816990983334733,-0.0010918963070068127,5.833747100570152e-05,2.5100150108337402,2019-07-26 15:25:31:634,-177.59859916916898,-87.62729626768656,0,-39.43394470214844,25.63956069946289,-43.93211364746094
0.17875130474567413,-0.006046743132174015,9.821900367736816,-0.0005149147521392618,-0.0018910396897744866,0.0024557676802636425,2.520021915435791,2019-07-26 15:25:31:644,-177.62471212427366,-89.47375554874131,0,-39.43394470214844,25.63956069946289,-43.93211364746094
0.18833030760288239,-0.006046743132174015,9.785979270935059,1.7847537580308712e-05,-0.0029565642001313846,-0.002339092876416725,2.530019760131836,2019-07-26 15:25:31:654,-177.64850781035756,-91.28358239739758,0,-39.43394470214844,25.63956069946289,-43.93211364746094
0.15959329903125763,0.015506003983318806,9.735690116882324,0.0002842286956469933,-0.0029565642001313846,-0.0010071871084334394,2.540022373199463,2019-07-26 15:25:31:664,-177.67509425701095,-85.8598954799041,0,-39.43394470214844,25.63956069946289,-43.93211364746094
0.21467255055904388,-0.02041524089872837,9.795557975769043,0.005079089284836651,-0.006153137991276405,-0.0026054740040059496,2.5500190258026123,2019-07-26 15:25:31:674,-177.69302948993837,-87.74316028089783,0,-39.43394470214844,25.63956069946289,-43.93211364746094
0.21706730127334595,-0.008441492915153503,9.809926986694336,0.0021488966212808557,0.0010391528437441464,0.002189386552674418,2.56001877784729,2019-07-26 15:25:31:684,-177.71440047544695,-89.58851758184079,0,-39.43394470214844,25.63956069946289,-43.93211364746094
0.16677755117416382,-0.03238898888230324,9.838664054870605,-0.0010476770398270016,-0.0029565642001313846,-0.0020727116187903376,2.570016860961914,2019-07-26 15:25:31:694,-177.73902984792542,-91.39238672079982,0,-39.43394470214844,25.63956069946289,-43.93211364746094
0.1811460554599762,-0.044362738728523254,9.781189918518066,-0.0005149147521392618,-0.0018910396897744866,0.0027221488078528673,2.5800390243530273,2019-07-26 15:25:31:704,-177.76196533578954,-93.15905193934191,0,-39.43394470214844,25.63956069946289,-43.93211364746094
0.18354080617427826,-0.0012572435662150383,9.81950569152832,-0.0018468204225946753,-0.0008255151794175883,-0.0007408059808442149,2.590017318725586,2019-07-26 15:25:31:714,-177.78484717865985,-94.8946894465766,0,-39.43394470214844,25.63956069946289,-43.93211364746094
0.2003040462732315,-0.03957323729991913,9.72850513458252,-0.002379582807810287,-0.0008255151794175883,0.0024557676802636425,2.6000144481658936,2019-07-26 15:25:31:724,-177.80509646556544,-96.59079862322828,0,-38.53430938720703,24.14017105102539,-42.732601165771484
0.20269879698753357,-0.015625741332769394,9.797953605651855,0.0024152777488700805,-0.0029565642001313846,0.0032549110630313164,2.6100189685821533,2019-07-26 15:25:31:734,-177.8236305066877,-98.25851193844916,0,-38.53430938720703,24.14017105102539,-42.732601165771484
0.2003040462732315,-0.006046743132174015,9.76682186126709,-0.0013140581674162262,-0.005353994608508731,-0.00020804367690182974,2.62003231048584,2019-07-26 15:25:31:744,-177.84064977065552,-99.89189342496555,0,-38.53430938720703,24.14017105102539,-42.732601165771484
0.22425153851509094,-0.04196798801422119,9.781189918518066,0.0010833721109239577,-0.004288470098151833,-0.001273568236022664,2.6301229000091553,2019-07-26 15:25:31:754,-177.85513939767216,-101.48975264841334,0,-38.53430938720703,24.14017105102539,-42.732601165771484
0.19790929555892944,-0.01323099248111248,9.77879524230957,0.000816990983334733,0.001305533971333371,-0.0020727116187903376,2.6400039196014404,2019-07-26 15:25:31:764,-177.87557236181755,-103.05886042071725,0,-38.53430938720703,24.14017105102539,-42.732601165771484
0.19072504341602325,0.017900753766298294,9.80753231048584,0.0021488966212808557,-0.0032229453277206094,-0.0010071871084334394,2.650023937225342,2019-07-26 15:25:31:774,-177.8939660387021,-97.40098375832645,0,-38.53430938720703,24.14017105102539,-42.732601165771484
0.226646289229393,-0.029994240030646324,9.831480026245117,0.0032144211316377544,-0.002423801944952936,0.0019230054250851934,2.6600186824798584,2019-07-26 15:25:31:784,-177.90831422016052,-99.05127203734007,0,-38.53430938720703,24.14017105102539,-42.732601165771484
0.21467255055904388,-0.0012572435662150383,9.73808479309082,-0.0013140581674162262,-0.001624658562185262,0.002988529935442092,2.670037269592285,2019-07-26 15:25:31:794,-177.92397679348716,-100.66935943889739,0,-38.53430938720703,24.14017105102539,-42.732601165771484
0.21467255055904388,-0.02041524089872837,9.826689720153809,0.0037471836468905284,-0.0005591340518283637,5.833747100570152e-05,2.6800129413604736,2019-07-26 15:25:31:804,-177.94015453074354,-102.25569049950266,0,-38.53430938720703,24.14017105102539,-42.732601165771484
0.2673570513725281,-0.025204740464687347,9.812321662902832,0.0016161343661024066,-0.008816949267168651,0.003787673578284091,2.6900134086608887,2019-07-26 15:25:31:814,-177.94518538044673,-103.80854070213806,0,-38.53430938720703,24.14017105102539,-42.732601165771484
0.24340954422950745,0.0011375061003491282,9.776400566101074,-0.002379582807810287,-0.0013582774345960375,0.002189386552674418,2.7000222206115723,2019-07-26 15:25:31:824,-177.95699360071723,-98.13116590803803,0,-38.53430938720703,24.14017105102539,-42.732601165771484
0.25538328289985657,-0.03238898888230324,9.742874145507812,0.0018825154936916314,-0.002157420817363711,0.0032549110630313164,2.7100205421447754,2019-07-26 15:25:31:834,-177.96661231965592,-99.76579000069349,0,-38.53430938720703,24.14017105102539,-42.732601165771484
0.2673570513725281,-0.010836242698132992,9.759636878967285,-0.0013140581674162262,-0.005087613480919507,-0.001273568236022664,2.7200417518615723,2019-07-26 15:25:31:844,-177.97303378048707,-101.36846247046827,0,-39.43394470214844,25.33968162536621,-44.53186798095703
0.23862004280090332,-0.025204740464687347,9.735690116882324,1.7847537580308712e-05,-2.63717336631639e-05,0.003787673578284091,2.73001766204834,2019-07-26 15:25:31:854,-177.98547776647757,-102.93813656259174,0,-39.43394470214844,25.33968162536621,-44.53186798095703
0.28890979290008545,0.0011375061003491282,9.764426231384277,0.0016161343661024066,0.0005063905560564065,0.0008574809147282953,2.7400200366973877,2019-07-26 15:25:31:864,-177.9921571606549,-97.28041499742652,0,-39.43394470214844,25.33968162536621,-44.53186798095703
0.22425153851509094,-0.015625741332769394,9.833874702453613,-0.00024853360829539187,-0.006153137991276405,0.004586816961051765,2.750019073486328,2019-07-26 15:25:31:874,-178.00273245706373,-98.93284633457301,0,-39.43394470214844,25.33968162536621,-44.53186798095703
0.2936992943286896,-0.03238898888230324,9.805137634277344,-0.0010476770398270016,0.0018382962265118203,0.0003247186270405554,2.760042667388916,2019-07-26 15:25:31:884,-178.00939839238828,-100.54981449915373,0,-39.43394470214844,25.33968162536621,-44.53186798095703
0.23622529208660126,-0.029994240030646324,9.826689720153809,0.00294804000404853,-0.0082841870119902,-0.00047442482074569963,2.7700133323669434,2019-07-26 15:25:31:894,-178.01703097504276,-102.13697097903756,0,-39.43394470214844,25.33968162536621,-44.53186798095703
0.25059378147125244,-0.015625741332769394,9.809926986694336,-0.003178726190577961,-0.0018910396897744866,0.0008574809147282953,2.7800185680389404,2019-07-26 15:25:31:904,-178.02636202814693,-103.69062050453428,0,-39.43394470214844,25.33968162536621,-44.53186798095703
0.2936992943286896,-0.022809991613030434,9.757242202758789,-0.0018468204225946753,-0.005353994608508731,0.0019230054250851934,2.7900242805480957,2019-07-26 15:25:31:914,-178.02834442166798,-105.2130916557766,0,-39.43394470214844,25.33968162536621,-44.53186798095703
0.23143579065799713,0.020295504480600357,9.886558532714844,0.003480802519301304,-0.003755707842973384,0.0027221488078528673,2.8000175952911377,2019-07-26 15:25:31:924,-178.0388501228931,-99.51313535785884,0,-39.43394470214844,25.33968162536621,-44.53186798095703
0.21227779984474182,-0.03238898888230324,9.781189918518066,-0.0007812959122377771,-0.004554851225741058,0.002988529935442092,2.810044527053833,2019-07-26 15:25:31:934,-178.05064318136112,-101.11863825355445,0,-39.43394470214844,25.33968162536621,-44.53186798095703
0.19790929555892944,-0.015625741332769394,9.809926986694336,0.0037471836468905284,-0.0018910396897744866,0.0024557676802636425,2.8204081058502197,2019-07-26 15:25:31:944,-178.06541488344268,-102.69662075537836,0,-39.43394470214844,25.33968162536621,-44.53186798095703
0.24819904565811157,-0.0012572435662150383,9.838664054870605,0.0016161343661024066,-0.002157420817363711,0.00778339049212246,2.8300232887268066,2019-07-26 15:25:31:954,-178.07404003920422,-104.24341444503578,0,-39.43394470214844,25.33968162536621,-44.53186798095703
0.2338305413722992,-0.022809991613030434,9.824295043945312,0.0032144211316377544,-0.006419519118865629,0.004586816961051765,2.840017557144165,2019-07-26 15:25:31:964,-178.08168767369264,-105.75768943930454,0,-39.43394470214844,25.33968162536621,-44.53186798095703
0.22425153851509094,-0.037178490310907364,9.771611213684082,1.7847537580308712e-05,-0.0029565642001313846,-0.002339092876416725,2.8500211238861084,2019-07-26 15:25:31:974,-178.09209988756774,-107.23818577972179,0,-39.58388137817383,25.489622116088867,-44.68180847167969
0.2338305413722992,0.0059270053170621395,9.821900367736816,1.7847537580308712e-05,-2.63717336631639e-05,0.005119579216230213,2.860060930252075,2019-07-26 15:25:31:984,-178.10296729776368,-101.49412362567881,0,-39.58388137817383,25.489622116088867,-44.68180847167969
0.20269879698753357,-0.058731235563755035,9.853032112121582,0.0032144211316377544,-0.003755707842973384,0.001656624297495969,2.870030641555786,2019-07-26 15:25:31:994,-178.11523480536172,-103.059210170248,0,-39.58388137817383,25.489622116088867,-44.68180847167969
0.226646289229393,0.010716505348682404,9.80753231048584,0.0013497532385131823,-0.004022088970562609,0.0011238620423175197,2.8800199031829834,2019-07-26 15:25:32:004,-178.12419741583767,-97.4000351574325,0,-39.58388137817383,25.489622116088867,-44.68180847167969
0.19790929555892944,0.039453502744436264,9.838664054870605,0.0002842286956469933,-0.002423801944952936,-0.0010071871084334394,2.8900160789489746,2019-07-26 15:25:32:014,-178.13730551059487,-91.85678913772655,0,-39.58388137817383,25.489622116088867,-44.68180847167969
0.2074882984161377,0.008321755565702915,9.771611213684082,0.0018825154936916314,0.0005063905560564065,0.0032549110630313164,2.900069236755371,2019-07-26 15:25:32:024,-178.15051677931405,-86.42169189476805,0,-39.58388137817383,25.489622116088867,-44.68180847167969
0.2074882984161377,-0.022809991613030434,9.774005889892578,0.0010833721109239577,-0.0026901830725421603,0.003787673578284091,2.910012722015381,2019-07-26 15:25:32:034,-178.16168193498055,-88.29118866642052,0,-39.58388137817383,25.489622116088867,-44.68180847167969
0.19311979413032532,-0.029994240030646324,9.81950569152832,-0.0026459639353995116,-0.004554851225741058,0.0032549110630313164,2.920020580291748,2019-07-26 15:25:32:044,-178.1733549763028,-90.1203777668118,0,-39.58388137817383,25.489622116088867,-44.68180847167969
0.21467255055904388,-0.022809991613030434,9.809926986694336,-0.0026459639353995116,-0.00029275289172984846,-0.0015399493636118885,2.9300222396850586,2019-07-26 15:25:32:054,-178.1846511758539,-91.91381978757344,0,-39.58388137817383,25.489622116088867,-44.68180847167969
0.219462051987648,-0.029994240030646324,9.802742958068848,0.0010833721109239577,-0.0013582774345960375,0.0005910997871390706,2.940016984939575,2019-07-26 15:25:32:064,-178.19454561422188,-93.67264514510086,0,-39.58388137817383,25.489622116088867,-44.68180847167969
0.19311979413032532,-0.02041524089872837,9.805137634277344,0.0056118515400151005,-0.002157420817363711,0.003521292450694866,2.9500632286071777,2019-07-26 15:25:32:074,-178.20687093219988,-95.39997195762348,0,-39.58388137817383,25.489622116088867,-44.68180847167969
0.21467255055904388,0.0011375061003491282,9.771611213684082,-0.0018468204225946753,-0.007751424756811752,0.0024557676802636425,2.9600090980529785,2019-07-26 15:25:32:084,-178.21323408546556,-89.89107453977923,0,-39.58388137817383,25.489622116088867,-44.68180847167969
0.21467255055904388,-0.0012572435662150383,9.841058731079102,-0.0013140581674162262,-0.006153137991276405,5.833747100570152e-05,2.9700191020965576,2019-07-26 15:25:32:094,-178.22051796535163,-91.69236807262898,0,-38.53430938720703,26.539194107055664,-44.53186798095703
0.21227779984474182,-0.02041524089872837,9.752452850341797,0.0026816588764593053,-0.008550568139579426,0.002988529935442092,2.980025053024292,2019-07-26 15:25:32:104,-178.22636486129636,-93.45762856276147,0,-38.53430938720703,26.539194107055664,-44.53186798095703
0.19072504341602325,-0.03957323729991913,9.747663497924805,0.0010833721109239577,-0.0026901830725421603,0.0027221488078528673,2.990016222000122,2019-07-26 15:25:32:114,-178.23790997441506,-95.1844316421532,0,-38.53430938720703,26.539194107055664,-44.53186798095703
0.18354080617427826,-0.0012572435662150383,9.757242202758789,0.0013497532385131823,-0.0029565642001313846,-0.001273568236022664,3.0000596046447754,2019-07-26 15:25:32:124,-178.2499315042678,-96.88135652790731,0,-38.53430938720703,26.539194107055664,-44.53186798095703
0.2074882984161377,-0.0036519933491945267,9.805137634277344,0.0032144211316377544,-0.0018910396897744866,0.0027221488078528673,3.0100300312042236,2019-07-26 15:25:32:134,-178.25962888873306,-98.54510214834697,0,-38.53430938720703,26.539194107055664,-44.53186798095703
0.13804055750370026,-0.029994240030646324,9.793163299560547,0.0037471836468905284,-2.63717336631639e-05,0.007517009364533235,3.0200159549713135,2019-07-26 15:25:32:144,-178.2782702206847,-100.17279151339373,0,-38.53430938720703,26.539194107055664,-44.53186798095703
0.17396180331707,-0.006046743132174015,9.809926986694336,0.0018825154936916314,-0.0074850436292225285,-0.0007408059808442149,3.030022621154785,2019-07-26 15:25:32:154,-178.28818050466478,-101.76968708656689,0,-38.53430938720703,26.539194107055664,-44.53186798095703
0.18354080617427826,-0.025204740464687347,9.77879524230957,-0.0013140581674162262,-0.002423801944952936,-0.002339092876416725,3.0400514602661133,2019-07-26 15:25:32:164,-178.29954653911352,-103.33059979641806,0,-38.53430938720703,26.539194107055664,-44.53186798095703
0.15240906178951263,-0.015625741332769394,9.781189918518066,-0.002912345062988736,-0.0029565642001313846,-0.002339092876416725,3.0500104427337646,2019-07-26 15:25:32:174,-178.31404826768286,-104.86052859758145,0,-38.53430938720703,26.539194107055664,-44.53186798095703
0.1811460554599762,-0.04196798801422119,9.793163299560547,1.7847537580308712e-05,-0.0048212323533302825,0.0011238620423175197,3.0600218772888184,2019-07-26 15:25:32:184,-178.32386328374122,-106.35841733902043,0,-38.53430938720703,26.539194107055664,-44.53186798095703
0.22185680270195007,0.017900753766298294,9.809926986694336,1.7847537580308712e-05,-0.004288470098151833,-0.002339092876416725,3.0700252056121826,2019-07-26 15:25:32:194,-178.32906616277486,-100.63335003455035,0,-38.53430938720703,26.539194107055664,-44.53186798095703
0.18833030760288239,-0.0611259862780571,9.752452850341797,-0.0010476770398270016,-0.00029275289172984846,0.0027221488078528673,3.080017328262329,2019-07-26 15:25:32:204,-178.3401944816772,-102.21291300376994,0,-38.53430938720703,26.539194107055664,-44.53186798095703
0.219462051987648,-0.006046743132174015,9.833874702453613,0.0018825154936916314,-0.0048212323533302825,-0.0026054740040059496,3.0900561809539795,2019-07-26 15:25:32:214,-178.34510386656646,-103.76901126942167,0,-38.53430938720703,26.539194107055664,-44.53186798095703
0.18833030760288239,0.020295504480600357,9.783584594726562,0.000816990983334733,-0.0026901830725421603,-0.0018063304912011133,3.100013494491577,2019-07-26 15:25:32:224,-178.3546419847695,-98.09646496019037,0,-38.984127044677734,25.189743041992188,-44.981685638427734
0.2003040462732315,-0.010836242698132992,9.831480026245117,-0.0021132015501838996,-0.006952281374044079,-0.002871855131595174,3.110015630722046,2019-07-26 15:25:32:234,-178.36030125451802,-99.73208582176325,0,-38.984127044677734,25.189743041992188,-44.981685638427734
0.21467255055904388,0.020295504480600357,9.781189918518066,0.0002842286956469933,-0.004288470098151833,-0.002339092876416725,3.1200239658355713,2019-07-26 15:25:32:244,-178.36553932032402,-94.13998154938443,0,-38.984127044677734,25.189743041992188,-44.981685638427734
0.19790929555892944,-0.022809991613030434,9.862611770629883,-0.0010476770398270016,-0.003755707842973384,-0.0055356664074874195,3.1300175189971924,2019-07-26 15:25:32:254,-178.3731295000614,-95.85394378940785,0,-38.984127044677734,25.189743041992188,-44.981685638427734
0.226646289229393,-0.03238898888230324,9.79076862335205,0.006144613795193549,-0.0005591340518283637,-0.00047442482074569963,3.1400530338287354,2019-07-26 15:25:32:264,-178.37882980388073,-97.53653655243998,0,-38.984127044677734,25.189743041992188,-44.981685638427734
0.20269879698753357,-0.02041524089872837,9.800348281860352,0.003480802519301304,0.00024000941221253666,5.833747100570152e-05,3.1500205993652344,2019-07-26 15:25:32:274,-178.38769015342945,-99.18536687891975,0,-38.984127044677734,25.189743041992188,-44.981685638427734
0.27454128861427307,-0.01323099248111248,9.795557975769043,-0.004510631828524084,-0.004288470098151833,-0.0018063304912011133,3.1600265502929688,2019-07-26 15:25:32:284,-178.38541863784496,-100.79757751778193,0,-38.984127044677734,25.189743041992188,-44.981685638427734
0.24101479351520538,0.008321755565702915,9.805137634277344,-0.002912345062988736,-0.002423801944952936,-0.003670998514362848,3.1700174808502197,2019-07-26 15:25:32:294,-178.3881890763644,-95.18096472687739,0,-38.984127044677734,25.189743041992188,-44.981685638427734
0.2601727843284607,-0.015625741332769394,9.845848083496094,0.00294804000404853,-0.005353994608508731,0.0011238620423175197,3.1800599098205566,2019-07-26 15:25:32:304,-178.38713294093148,-96.8771891653539,0,-38.984127044677734,25.189743041992188,-44.981685638427734
0.23622529208660126,-0.06831023842096329,9.771611213684082,-0.0015804392950054507,-0.0005591340518283637,-0.0007408059808442149,3.190014600753784,2019-07-26 15:25:32:314,-178.3913810365808,-98.53075138594176,0,-38.984127044677734,25.189743041992188,-44.981685638427734
0.26256754994392395,-0.05633648484945297,9.829085350036621,0.0018825154936916314,-0.0048212323533302825,0.00432043583346254,3.2000207901000977,2019-07-26 15:25:32:324,-178.39024068779074,-100.15462617289491,0,-38.984127044677734,25.189743041992188,-44.981685638427734
0.25538328289985657,-0.0036519933491945267,9.76682186126709,0.0002842286956469933,-0.005087613480919507,5.833747100570152e-05,3.2100250720977783,2019-07-26 15:25:32:334,-178.38962133812402,-101.75126483302057,0,-38.984127044677734,25.189743041992188,-44.981685638427734
0.23862004280090332,-0.04675748944282532,9.76682186126709,0.004279945902068978,-0.0013582774345960375,0.002988529935442092,3.220020294189453,2019-07-26 15:25:32:344,-178.39307550959666,-103.31315568026135,0,-38.38437271118164,24.290109634399414,-43.78217315673828
0.2338305413722992,-0.015625741332769394,9.759636878967285,0.000816990983334733,-0.0013582774345960375,0.004054054705873315,3.230062484741211,2019-07-26 15:25:32:354,-178.39699844089517,-104.84551856606821,0,-38.38437271118164,24.290109634399414,-43.78217315673828
0.23862004280090332,0.0059270053170621395,9.845848083496094,-0.005309775211291758,-0.003755707842973384,5.833747100570152e-05,3.240010976791382,2019-07-26 15:25:32:364,-178.39919399216862,-99.14633193831392,0,-38.38437271118164,24.290109634399414,-43.78217315673828
0.23862004280090332,-0.02759948931634426,9.76682186126709,0.004546327029658202,-0.001624658562185262,0.0008574809147282953,3.2500033378601074,2019-07-26 15:25:32:374,-178.40230747037913,-100.76271793888745,0,-38.38437271118164,24.290109634399414,-43.78217315673828
0.26975178718566895,-0.044362738728523254,9.802742958068848,0.0016161343661024066,-0.0026901830725421603,-0.00020804367690182974,3.260026693344116,2019-07-26 15:25:32:384,-178.40122192044,-102.34318730142996,0,-38.38437271118164,24.290109634399414,-43.78217315673828
0.219462051987648,-0.02759948931634426,9.77879524230957,0.00294804000404853,-2.63717336631639e-05,0.0024557676802636425,3.2700202465057373,2019-07-26 15:25:32:394,-178.40746962094093,-103.89474360649088,0,-38.38437271118164,24.290109634399414,-43.78217315673828
0.23622529208660126,0.0059270053170621395,9.802742958068848,0.0026816588764593053,-0.005087613480919507,0.002189386552674418,3.280059337615967,2019-07-26 15:25:32:404,-178.40884358403437,-98.21905321999067,0,-38.38437271118164,24.290109634399414,-43.78217315673828
0.17635655403137207,0.017900753766298294,9.83626937866211,0.0010833721109239577,-0.005620375736097956,0.0003247186270405554,3.2900197505950928,2019-07-26 15:25:32:414,-178.41698021011092,-92.65736347712175,0,-38.38437271118164,24.290109634399414,-43.78217315673828
0.22425153851509094,-0.0611259862780571,9.809926986694336,0.000816990983334733,-0.0026901830725421603,-0.002339092876416725,3.3000216484069824,2019-07-26 15:25:32:424,-178.42093911244592,-94.3975348876373,0,-38.38437271118164,24.290109634399414,-43.78217315673828
0.16438280045986176,0.0011375061003491282,9.788373947143555,-0.0034451073181671855,-0.002157420817363711,0.003521292450694866,3.310016393661499,2019-07-26 15:25:32:434,-178.4320672492508,-88.90778395005577,0,-38.38437271118164,24.290109634399414,-43.78217315673828
0.19311979413032532,-0.037178490310907364,9.802742958068848,0.0002842286956469933,0.0010391528437441464,0.0019230054250851934,3.320059061050415,2019-07-26 15:25:32:444,-178.44143958643454,-90.72544249639732,0,-38.38437271118164,24.290109634399414,-43.78217315673828
0.2003040462732315,0.010716505348682404,9.867401123046875,0.0024152777488700805,-0.0013582774345960375,0.0003247186270405554,3.330012083053589,2019-07-26 15:25:32:454,-178.44859330188322,-85.31352797340446,0,-38.38437271118164,24.290109634399414,-43.78217315673828
0.16677755117416382,-0.022809991613030434,9.793163299560547,0.0032144211316377544,-0.0013582774345960375,0.0027221488078528673,3.3400068283081055,2019-07-26 15:25:32:464,-178.45934611174673,-87.20639232542717,0,-38.38437271118164,24.290109634399414,-43.78217315673828
0.1476195603609085,-0.03238898888230324,9.814716339111328,0.0013497532385131823,-0.0013582774345960375,5.833747100570152e-05,3.350031852722168,2019-07-26 15:25:32:474,-178.47216061205953,-89.05924270275017,0,-39.43394470214844,24.14017105102539,-44.231990814208984
0.19790929555892944,-0.006046743132174015,9.747663497924805,0.0018825154936916314,-0.0032229453277206094,-0.00020804367690182974,3.360015630722046,2019-07-26 15:25:32:484,-178.47764803597755,-90.87840232107726,0,-39.43394470214844,24.14017105102539,-44.231990814208984
0.20269879698753357,-0.02041524089872837,9.76682186126709,-0.004777012956113309,-0.005353994608508731,-0.0007408059808442149,3.3700485229492188,2019-07-26 15:25:32:494,-178.48130022174746,-92.65574790256805,0,-39.43394470214844,24.14017105102539,-44.231990814208984
0.19551454484462738,0.013111254200339317,9.809926986694336,0.0026816588764593053,-0.0029565642001313846,-0.001273568236022664,3.3800132274627686,2019-07-26 15:25:32:504,-178.48718458006533,-87.2056649264906,0,-39.43394470214844,24.14017105102539,-44.231990814208984
0.18833030760288239,-0.018020492047071457,9.857821464538574,-0.0005149147521392618,-0.003755707842973384,-0.0015399493636118885,3.390019655227661,2019-07-26 15:25:32:514,-178.4934410455761,-89.05916754097257,0,-39.43394470214844,24.14017105102539,-44.231990814208984
0.21706730127334595,-0.0347837395966053,9.742874145507812,0.0018825154936916314,-0.004022088970562609,-0.001273568236022664,3.400019407272339,2019-07-26 15:25:32:524,-178.49578756963766,-90.87495009509135,0,-39.43394470214844,24.14017105102539,-44.231990814208984
0.19311979413032532,-0.02041524089872837,9.812321662902832,-0.004777012956113309,-0.001624658562185262,-0.0015399493636118885,3.410017251968384,2019-07-26 15:25:32:534,-178.50240951016752,-92.65238522867237,0,-39.43394470214844,24.14017105102539,-44.231990814208984
0.17635655403137207,0.017900753766298294,9.800348281860352,1.7847537580308712e-05,-0.002423801944952936,0.0019230054250851934,3.4200875759124756,2019-07-26 15:25:32:544,-178.51037234535366,-87.2014406772709,0,-39.43394470214844,24.14017105102539,-44.231990814208984
0.19790929555892944,-0.029994240030646324,9.812321662902832,0.003480802519301304,-0.00029275289172984846,0.003787673578284091,3.430020809173584,2019-07-26 15:25:32:554,-178.51689224255767,-89.05585046397684,0,-39.43394470214844,24.14017105102539,-44.231990814208984
0.2074882984161377,-0.03238898888230324,9.805137634277344,-0.00024853360829539187,-0.004554851225741058,0.0024557676802636425,3.440021276473999,2019-07-26 15:25:32:564,-178.5197514260346,-90.8708086453543,0,-39.43394470214844,24.14017105102539,-44.231990814208984
0.21706730127334595,0.0059270053170621395,9.802742958068848,0.0021488966212808557,-0.00029275289172984846,-0.002339092876416725,3.4500205516815186,2019-07-26 15:25:32:574,-178.52382156265008,-85.4552918392065,0,-39.43394470214844,24.14017105102539,-44.231990814208984
0.22904103994369507,-0.0036519933491945267,9.781189918518066,0.0010833721109239577,-0.003755707842973384,0.0027221488078528673,3.460061550140381,2019-07-26 15:25:32:584,-178.52439925388416,-87.34636895900626,0,-39.43394470214844,24.14017105102539,-44.231990814208984
0.23862004280090332,-0.015625741332769394,9.7500581741333,-0.0013140581674162262,0.0018382962265118203,0.0005910997871390706,3.470015287399292,2019-07-26 15:25:32:594,-178.5268994920789,-89.19687067362358,0,-38.984127044677734,24.88986587524414,-44.68180847167969
0.20509354770183563,0.020295504480600357,9.76682186126709,0.004546327029658202,-0.0005591340518283637,0.002189386552674418,3.48001766204834,2019-07-26 15:25:32:604,-178.53198792269453,-83.81786783765925,0,-38.984127044677734,24.88986587524414,-44.68180847167969
0.24101479351520538,-0.05394173786044121,9.745268821716309,0.0016161343661024066,-0.0032229453277206094,-0.0010071871084334394,3.4900262355804443,2019-07-26 15:25:32:614,-178.5312025357004,-85.73607594119909,0,-38.984127044677734,24.88986587524414,-44.68180847167969
0.219462051987648,-0.022809991613030434,9.865006446838379,-0.0018468204225946753,-0.006153137991276405,0.0032549110630313164,3.5000171661376953,2019-07-26 15:25:32:624,-178.53163821130892,-87.61766878003483,0,-38.984127044677734,24.88986587524414,-44.68180847167969
0.20988304913043976,-0.025204740464687347,9.714137077331543,-0.0005149147521392618,-2.63717336631639e-05,-0.00047442482074569963,3.5100579261779785,2019-07-26 15:25:32:634,-178.53623584865696,-89.46205186416113,0,-38.984127044677734,24.88986587524414,-44.68180847167969
0.23862004280090332,-0.02041524089872837,9.730899810791016,0.004279945902068978,0.001305533971333371,5.833747100570152e-05,3.5200107097625732,2019-07-26 15:25:32:644,-178.53814634172548,-91.27279855833424,0,-38.984127044677734,24.88986587524414,-44.68180847167969
0.20269879698753357,-0.04675748944282532,9.77879524230957,-0.005309775211291758,0.0007727717161549218,0.004054054705873315,3.530025005340576,2019-07-26 15:25:32:654,-178.54406834774434,-93.03887771875253,0,-38.984127044677734,24.88986587524414,-44.68180847167969
0.20509354770183563,-0.022809991613030434,9.80753231048584,0.0021488966212808557,-0.005353994608508731,0.001656624297495969,3.540022611618042,2019-07-26 15:25:32:664,-178.54622172825745,-94.776641355289,0,-38.984127044677734,24.88986587524414,-44.68180847167969
0.26975178718566895,-0.015625741332769394,9.785979270935059,0.0016161343661024066,-0.004554851225741058,0.001656624297495969,3.5500242710113525,2019-07-26 15:25:32:674,-178.5411600114873,-96.48018639931676,0,-38.984127044677734,24.88986587524414,-44.68180847167969
0.22425153851509094,-0.02041524089872837,9.764426231384277,0.00294804000404853,-0.0029565642001313846,0.0011238620423175197,3.5600664615631104,2019-07-26 15:25:32:684,-178.54235702594934,-98.1498491248347,0,-38.984127044677734,24.88986587524414,-44.68180847167969
0.22185680270195007,-0.0347837395966053,9.838664054870605,0.0016161343661024066,-0.0013582774345960375,0.0027221488078528673,3.5700278282165527,2019-07-26 15:25:32:694,-178.5449147334328,-99.78370482591913,0,-38.984127044677734,24.88986587524414,-44.68180847167969
0.20988304913043976,-0.025204740464687347,9.793163299560547,-0.0005149147521392618,-2.63717336631639e-05,0.0008574809147282953,3.5800251960754395,2019-07-26 15:25:32:704,-178.54944660223228,-101.38479243622452,0,-38.984127044677734,24.88986587524414,-44.68180847167969
0.22904103994369507,-0.01323099248111248,9.821900367736816,-0.002379582807810287,-0.002157420817363711,0.005119579216230213,3.590022563934326,2019-07-26 15:25:32:714,-178.55052935311733,-102.95421715516494,0,-38.984127044677734,24.88986587524414,-44.68180847167969
0.219462051987648,-0.006046743132174015,9.72850513458252,0.0032144211316377544,-0.0010918963070068127,0.001656624297495969,3.6000213623046875,2019-07-26 15:25:32:724,-178.55305980347143,-104.49622524561593,0,-38.984127044677734,25.789499282836914,-44.68180847167969
0.20988304913043976,-0.0012572435662150383,9.80753231048584,0.000816990983334733,-0.0026901830725421603,0.0013902431699067445,3.610050916671753,2019-07-26 15:25:32:734,-178.5559645408219,-106.00661393901598,0,-38.984127044677734,25.789499282836914,-44.68180847167969
0.18354080617427826,0.025085002183914185,9.726110458374023,-0.0018468204225946753,-0.00588675686368718,0.0032549110630313164,3.6200268268585205,2019-07-26 15:25:32:744,-178.55992587351466,-100.28840264154155,0,-38.984127044677734,25.789499282836914,-44.68180847167969
0.19551454484462738,-0.02759948931634426,9.829085350036621,0.0002842286956469933,-0.005087613480919507,0.0008574809147282953,3.6300129890441895,2019-07-26 15:25:32:754,-178.56308372898604,-101.87957630726478,0,-38.984127044677734,25.789499282836914,-44.68180847167969
0.18833030760288239,0.015506003983318806,9.833874702453613,-0.0013140581674162262,-0.006419519118865629,0.0024557676802636425,3.640017509460449,2019-07-26 15:25:32:764,-178.56627292005,-96.24305347813134,0,-38.984127044677734,25.789499282836914,-44.68180847167969
0.21467255055904388,0.0011375061003491282,9.774005889892578,0.000816990983334733,-0.004288470098151833,0.0019230054250851934,3.650062322616577,2019-07-26 15:25:32:774,-178.56736429207558,-90.71878656616087,0,-38.984127044677734,25.789499282836914,-44.68180847167969
0.22185680270195007,-0.0036519933491945267,9.79076862335205,-0.003178726190577961,-0.002157420817363711,0.002988529935442092,3.6600570678710938,2019-07-26 15:25:32:784,-178.5688444853037,-92.50219949151546,0,-38.984127044677734,25.789499282836914,-44.68180847167969
0.21227779984474182,-0.015625741332769394,9.821900367736816,-0.0007812959122377771,-0.001624658562185262,0.00432043583346254,3.6700336933135986,2019-07-26 15:25:32:794,-178.5717950079815,-94.249894785615,0,-38.984127044677734,25.789499282836914,-44.68180847167969
0.18593555688858032,0.025085002183914185,9.865006446838379,1.7847537580308712e-05,-0.003755707842973384,-0.003404617386773623,3.6800127029418945,2019-07-26 15:25:32:804,-178.5766590592843,-88.76782074876002,0,-38.984127044677734,25.789499282836914,-44.68180847167969
0.20509354770183563,-0.010836242698132992,9.843453407287598,0.0013497532385131823,-0.0010918963070068127,0.004586816961051765,3.690023422241211,2019-07-26 15:25:32:814,-178.5806398204793,-90.5919615411572,0,-38.984127044677734,25.789499282836914,-44.68180847167969
0.2003040462732315,-0.029994240030646324,9.788373947143555,0.0026816588764593053,-0.005353994608508731,0.0008574809147282953,3.7000603675842285,2019-07-26 15:25:32:824,-178.58256352558942,-92.37812223513494,0,-38.984127044677734,25.789499282836914,-44.68180847167969
0.18354080617427826,-0.0036519933491945267,9.754847526550293,-0.0061089185940594315,-0.005087613480919507,0.0005910997871390706,3.710014581680298,2019-07-26 15:25:32:834,-178.5865103950369,-94.12671634145453,0,-38.984127044677734,25.789499282836914,-44.68180847167969
0.17396180331707,0.020295504480600357,9.783584594726562,-0.00024853360829539187,-0.005087613480919507,0.0005910997871390706,3.720020294189453,2019-07-26 15:25:32:844,-178.59154850241248,-88.64641951865141,0,-38.984127044677734,25.789499282836914,-44.68180847167969
0.21227779984474182,0.003532255766913295,9.805137634277344,-0.00024853360829539187,-0.006419519118865629,0.0024557676802636425,3.7300240993499756,2019-07-26 15:25:32:854,-178.5913068127613,-83.27376433470076,0,-38.984127044677734,25.789499282836914,-44.68180847167969
0.21706730127334595,-0.01323099248111248,9.762031555175781,0.0010833721109239577,-0.0005591340518283637,0.0008574809147282953,3.740018129348755,2019-07-26 15:25:32:864,-178.59369067474518,-85.20734387836488,0,-38.984127044677734,25.789499282836914,-44.68180847167969
0.19551454484462738,-0.037178490310907364,9.817111015319824,-0.0013140581674162262,-0.0048212323533302825,-0.002871855131595174,3.7500617504119873,2019-07-26 15:25:32:874,-178.59627925342932,-87.09811625145024,0,-38.984127044677734,25.789499282836914,-44.68180847167969
0.19072504341602325,0.0011375061003491282,9.814716339111328,-0.0005149147521392618,-0.003755707842973384,0.001656624297495969,3.7600080966949463,2019-07-26 15:25:32:884,-178.59999088945736,-81.75599916308282,0,-38.984127044677734,25.789499282836914,-44.68180847167969
0.21467255055904388,-0.008441492915153503,9.80753231048584,0.0018825154936916314,-0.007218662501633303,-0.0010071871084334394,3.7700212001800537,2019-07-26 15:25:32:894,-178.5988540781324,-83.7209512879726,0,-38.984127044677734,25.789499282836914,-44.68180847167969
0.20509354770183563,-0.010836242698132992,9.83626937866211,0.0018825154936916314,0.001305533971333371,-0.001273568236022664,3.7800207138061523,2019-07-26 15:25:32:904,-178.60372028398245,-85.64632682971424,0,-38.984127044677734,25.789499282836914,-44.68180847167969
0.226646289229393,-0.022809991613030434,9.821900367736816,0.0024152777488700805,-0.0018910396897744866,-0.0015399493636118885,3.790018320083618,2019-07-26 15:25:32:914,-178.604146313137,-87.53209491955396,0,-38.984127044677734,25.789499282836914,-44.68180847167969
0.21227779984474182,-0.02041524089872837,9.759636878967285,-0.0005149147521392618,-0.0018910396897744866,-0.001273568236022664,3.8000619411468506,2019-07-26 15:25:32:924,-178.60607653517823,-89.3787656094923,0,-38.984127044677734,25.789499282836914,-44.68180847167969
0.17875130474567413,-0.029994240030646324,9.769216537475586,-0.0007812959122377771,-0.005620375736097956,0.0011238620423175197,3.8100175857543945,2019-07-26 15:25:32:934,-178.60984822755685,-91.1872352747446,0,-38.984127044677734,25.789499282836914,-44.68180847167969
0.18833030760288239,-0.008441492915153503,9.80753231048584,0.00294804000404853,0.00024000941221253666,-0.001273568236022664,3.82002329826355,2019-07-26 15:25:32:944,-178.61578422837152,-92.96416052848954,0,-38.984127044677734,25.789499282836914,-44.68180847167969
0.16917230188846588,0.010716505348682404,9.867401123046875,0.0002842286956469933,0.0018382962265118203,-0.0007408059808442149,3.8300132751464844,2019-07-26 15:25:32:954,-178.62485541007044,-87.50628127478765,0,-38.984127044677734,25.789499282836914,-44.68180847167969
0.21227779984474182,0.017900753766298294,9.769216537475586,-0.002379582807810287,-0.0005591340518283637,-0.00020804367690182974,3.8400251865386963,2019-07-26 15:25:32:964,-178.6271480003351,-82.15691765657589,0,-38.984127044677734,25.789499282836914,-44.68180847167969
0.19790929555892944,-0.0347837395966053,9.797953605651855,-0.002912345062988736,-0.0074850436292225285,-0.0010071871084334394,3.8500170707702637,2019-07-26 15:25:32:974,-178.62726235721814,-84.10807725209597,0,-38.38437271118164,24.88986587524414,-43.78217315673828
0.19551454484462738,-0.006046743132174015,9.730899810791016,-0.00024853360829539187,-0.0048212323533302825,-0.0026054740040059496,3.8600523471832275,2019-07-26 15:25:32:984,-178.62897965257,-86.02506359610429,0,-38.38437271118164,24.88986587524414,-43.78217315673828
0.226646289229393,-0.022809991613030434,9.800348281860352,0.0010833721109239577,-0.0013582774345960375,-0.0031382362591843983,3.870023488998413,2019-07-26 15:25:32:994,-178.62914346690206,-87.90250180425086,0,-38.38437271118164,24.88986587524414,-43.78217315673828
0.22425153851509094,0.0059270053170621395,9.802742958068848,-0.0013140581674162262,-0.00588675686368718,-0.004203760769541297,3.880018711090088,2019-07-26 15:25:33:004,-178.62704691085125,-82.5444071305113,0,-38.38437271118164,24.88986587524414,-43.78217315673828
0.21706730127334595,-0.02759948931634426,9.843453407287598,0.0016161343661024066,0.0005063905560564065,0.0005910997871390706,3.8900177478790283,2019-07-26 15:25:33:014,-178.6295247092577,-84.49121339975736,0,-38.38437271118164,24.88986587524414,-43.78217315673828
0.23143579065799713,-0.05394173786044121,9.776400566101074,0.0018825154936916314,-0.0032229453277206094,-0.0031382362591843983,3.900068521499634,2019-07-26 15:25:33:024,-178.62799326336992,-86.39612895098364,0,-38.38437271118164,24.88986587524414,-43.78217315673828
0.22425153851509094,-0.025204740464687347,9.81950569152832,-0.0005149147521392618,-0.0013582774345960375,-0.003404617386773623,3.9100112915039062,2019-07-26 15:25:33:034,-178.62850995880245,-88.26497756912914,0,-38.38437271118164,24.88986587524414,-43.78217315673828
0.2673570513725281,-0.006046743132174015,9.77879524230957,0.0026816588764593053,-0.004288470098151833,-0.0031382362591843983,3.920020818710327,2019-07-26 15:25:33:044,-178.6222074047867,-90.10047662035805,0,-38.38437271118164,24.88986587524414,-43.78217315673828
0.23862004280090332,-0.0012572435662150383,9.805137634277344,0.0016161343661024066,-0.001624658562185262,0.0027221488078528673,3.9300177097320557,2019-07-26 15:25:33:054,-178.62096953973122,-91.89922733040758,0,-38.38437271118164,24.88986587524414,-43.78217315673828
0.21227779984474182,-0.0036519933491945267,9.805137634277344,-0.003178726190577961,-0.005087613480919507,-0.0018063304912011133,3.940028429031372,2019-07-26 15:25:33:064,-178.62088560195716,-93.65902921573068,0,-38.38437271118164,24.88986587524414,-43.78217315673828
0.2601727843284607,-0.006046743132174015,9.812321662902832,0.0010833721109239577,-0.003755707842973384,0.001656624297495969,3.9500572681427,2019-07-26 15:25:33:074,-178.615976256862,-95.38575253899583,0,-38.38437271118164,24.88986587524414,-43.78217315673828
0.226646289229393,-0.010836242698132992,9.83626937866211,0.0010833721109239577,-0.0018910396897744866,0.003787673578284091,3.960016965866089,2019-07-26 15:25:33:084,-178.61619979921886,-97.07738093757051,0,-38.38437271118164,24.88986587524414,-43.78217315673828
0.21706730127334595,-0.018020492047071457,9.797953605651855,-0.002379582807810287,-0.0018910396897744866,-0.0007408059808442149,3.9700169563293457,2019-07-26 15:25:33:094,-178.61743112428627,-98.73238961080625,0,-38.38437271118164,24.88986587524414,-43.78217315673828
0.2003040462732315,0.010716505348682404,9.771611213684082,0.0002842286956469933,-0.00029275289172984846,-0.0018063304912011133,3.9800174236297607,2019-07-26 15:25:33:104,-178.6214317732412,-93.15915814277389,0,-38.38437271118164,24.88986587524414,-43.78217315673828
0.226646289229393,-0.02041524089872837,9.81950569152832,0.0018825154936916314,-0.0013582774345960375,0.005652341471408663,3.990017890930176,2019-07-26 15:25:33:114,-178.62179598295353,-94.89464964710733,0,-38.38437271118164,24.88986587524414,-43.78217315673828
0.19790929555892944,-0.010836242698132992,9.833874702453613,-0.002379582807810287,-0.0032229453277206094,0.003521292450694866,4.00006365776062,2019-07-26 15:25:33:124,-178.62448336394397,-96.59415168821269,0,-38.38437271118164,24.88986587524414,-43.78217315673828
0.19790929555892944,0.02987450174987316,9.73808479309082,-0.0013140581674162262,-0.001624658562185262,0.003787673578284091,4.010034561157227,2019-07-26 15:25:33:134,-178.62779861173192,-91.06504838887871,0,-38.38437271118164,24.88986587524414,-43.78217315673828
0.19311979413032532,-0.008441492915153503,9.781189918518066,0.0002842286956469933,-0.002157420817363711,0.0011238620423175197,4.0200207233428955,2019-07-26 15:25:33:144,-178.63141091106644,-92.8429178311805,0,-38.38437271118164,24.88986587524414,-43.78217315673828
0.19072504341602325,-0.0036519933491945267,9.723715782165527,-0.0007812959122377771,0.0005063905560564065,0.0005910997871390706,4.03002142906189,2019-07-26 15:25:33:154,-178.6365934628292,-94.58519036874172,0,-38.38437271118164,24.88986587524414,-43.78217315673828
0.17396180331707,0.003532255766913295,9.833874702453613,0.0018825154936916314,-0.002157420817363711,-0.0007408059808442149,4.040059566497803,2019-07-26 15:25:33:164,-178.64237638692407,-89.09495922696517,0,-38.38437271118164,24.88986587524414,-43.78217315673828
0.18354080617427826,-0.02041524089872837,9.802742958068848,-0.0026459639353995116,-0.0026901830725421603,0.0032549110630313164,4.050011396408081,2019-07-26 15:25:33:174,-178.64657265696138,-90.9091950079142,0,-38.38437271118164,24.88986587524414,-43.78217315673828
0.18354080617427826,0.0059270053170621395,9.781189918518066,0.0005506098557455085,-0.0029565642001313846,-0.0007408059808442149,4.060020685195923,2019-07-26 15:25:33:184,-178.6504793497697,-85.49201494001488,0,-38.38437271118164,24.88986587524414,-43.78217315673828
0.2003040462732315,-0.037178490310907364,9.833874702453613,0.0032144211316377544,-0.0032229453277206094,0.0003247186270405554,4.070040702819824,2019-07-26 15:25:33:194,-178.65231878354427,-87.37965085608785,0,-38.38437271118164,24.88986587524414,-43.78217315673828
0.21227779984474182,-0.029994240030646324,9.79076862335205,0.0037471836468905284,-0.003755707842973384,-0.003670998514362848,4.080009698867798,2019-07-26 15:25:33:204,-178.652328932133,-89.23064482691512,0,-38.38437271118164,24.88986587524414,-43.78217315673828
0.17875130474567413,-0.029994240030646324,9.81950569152832,0.0013497532385131823,-0.0032229453277206094,-0.00020804367690182974,4.090057611465454,2019-07-26 15:25:33:214,-178.6566064071077,-91.04329319258258,0,-38.38437271118164,24.88986587524414,-43.78217315673828
0.19790929555892944,-0.0347837395966053,9.769216537475586,-0.0026459639353995116,-0.004554851225741058,0.0008574809147282953,4.100011825561523,2019-07-26 15:25:33:224,-178.6577171344561,-92.81686835870549,0,-39.13406753540039,25.63956069946289,-42.732601165771484
0.17156705260276794,-0.02041524089872837,9.759636878967285,-0.0015804392950054507,-0.0005591340518283637,0.001656624297495969,4.110016584396362,2019-07-26 15:25:33:234,-178.66410643256106,-94.55724612816336,0,-39.13406753540039,25.63956069946289,-42.732601165771484
0.226646289229393,-0.006046743132174015,9.77879524230957,0.0032144211316377544,-0.001624658562185262,-0.001273568236022664,4.120022535324097,2019-07-26 15:25:33:244,-178.6633570167229,-96.2671985930147,0,-39.13406753540039,25.63956069946289,-42.732601165771484
0.23862004280090332,-0.029994240030646324,9.747663497924805,0.0032144211316377544,-0.007751424756811752,-0.002871855131595174,4.130016803741455,2019-07-26 15:25:33:254,-178.65769386869667,-97.94013242873923,0,-39.13406753540039,25.63956069946289,-42.732601165771484
0.2074882984161377,-0.010836242698132992,9.800348281860352,0.0026816588764593053,-0.002157420817363711,0.0003247186270405554,4.140068531036377,2019-07-26 15:25:33:264,-178.65906518193808,-99.58157627872905,0,-39.13406753540039,25.63956069946289,-42.732601165771484
0.23143579065799713,-0.0012572435662150383,9.805137634277344,-0.0034451073181671855,-0.0018910396897744866,0.00432043583346254,4.150014877319336,2019-07-26 15:25:33:274,-178.6577851355591,-101.18787377631794,0,-39.13406753540039,25.63956069946289,-42.732601165771484
0.17875130474567413,-0.029994240030646324,9.80753231048584,0.0037471836468905284,-0.002423801944952936,-0.003937379641952073,4.160022258758545,2019-07-26 15:25:33:284,-178.66238441239142,-102.76271736556417,0,-39.13406753540039,25.63956069946289,-42.732601165771484
0.24819904565811157,-0.03238898888230324,9.860217094421387,1.7847537580308712e-05,-0.0026901830725421603,0.0008574809147282953,4.170016527175903,2019-07-26 15:25:33:294,-178.65878843023899,-104.30370892671114,0,-39.13406753540039,25.63956069946289,-42.732601165771484
0.22904103994369507,-0.008441492915153503,9.740479469299316,-0.0021132015501838996,-0.001624658562185262,-0.0018063304912011133,4.180034399032593,2019-07-26 15:25:33:304,-178.65775829248412,-105.81545297129526,0,-39.13406753540039,25.63956069946289,-42.732601165771484
0.219462051987648,-0.008441492915153503,9.771611213684082,0.0024152777488700805,-2.63717336631639e-05,-0.003670998514362848,4.190014362335205,2019-07-26 15:25:33:314,-178.65885638793335,-107.29950743716935,0,-39.13406753540039,25.63956069946289,-42.732601165771484
0.2458042949438095,0.010716505348682404,9.793163299560547,0.0032144211316377544,-0.0029565642001313846,0.004054054705873315,4.200017213821411,2019-07-26 15:25:33:324,-178.655262716541,-101.5565766531779,0,-39.13406753540039,25.63956069946289,-42.732601165771484
0.19311979413032532,-0.0036519933491945267,9.841058731079102,-0.003977869573345634,-0.0034893267153841595,0.002189386552674418,4.210021018981934,2019-07-26 15:25:33:334,-178.6577130358931,-103.12278545533898,0,-39.13406753540039,25.63956069946289,-42.732601165771484
0.15719854831695557,-0.029994240030646324,9.730899810791016,-0.0005149147521392618,-0.006153137991276405,0.0024557676802636425,4.22001838684082,2019-07-26 15:25:33:344,-178.66259453700172,-104.65650857299791,0,-39.13406753540039,25.63956069946289,-42.732601165771484
0.19072504341602325,0.0059270053170621395,9.781189918518066,0.004279945902068978,-0.005087613480919507,-0.003404617386773623,4.230041265487671,2019-07-26 15:25:33:354,-178.66413785573815,-98.96648146189311,0,-39.13406753540039,25.63956069946289,-42.732601165771484
0.17875130474567413,-0.025204740464687347,9.783584594726562,0.0032144211316377544,-0.0013582774345960375,0.005119579216230213,4.24001407623291,2019-07-26 15:25:33:364,-178.66916034193642,-100.58599968555977,0,-39.13406753540039,25.63956069946289,-42.732601165771484
0.19551454484462738,0.010716505348682404,9.814716339111328,-0.0010476770398270016,-0.002157420817363711,5.833747100570152e-05,4.25002121925354,2019-07-26 15:25:33:374,-178.67174063123676,-94.9749422057348,0,-39.13406753540039,25.63956069946289,-42.732601165771484
0.19072504341602325,0.010716505348682404,9.824295043945312,0.004013564774479754,-0.001624658562185262,0.002988529935442092,4.260017395019531,2019-07-26 15:25:33:384,-178.67515035843456,-89.47894609434171,0,-39.13406753540039,25.63956069946289,-42.732601165771484
0.19311979413032532,0.0370587520301342,9.829085350036621,0.0002842286956469933,-0.0029565642001313846,0.0032549110630313164,4.27001953125,2019-07-26 15:25:33:394,-178.6774750787169,-84.09384724331818,0,-39.13406753540039,25.63956069946289,-42.732601165771484
0.2338305413722992,0.02987450174987316,9.771611213684082,-0.0007812959122377771,-0.003755707842973384,0.00432043583346254,4.2800397872924805,2019-07-26 15:25:33:404,-178.67439643537847,-78.81503408129728,0,-39.13406753540039,25.63956069946289,-42.732601165771484
0.20509354770183563,-0.0036519933491945267,9.771611213684082,0.0002842286956469933,0.0010391528437441464,0.0011238620423175197,4.290014982223511,2019-07-26 15:25:33:414,-178.67744277909182,-80.83846432905267,0,-39.13406753540039,25.63956069946289,-42.732601165771484
0.226646289229393,0.0011375061003491282,9.829085350036621,-0.0007812959122377771,0.003702964249673555,0.005119579216230213,4.300018072128296,2019-07-26 15:25:33:424,-178.6795550913483,-75.62138882551163,0,-39.13406753540039,25.63956069946289,-42.732601165771484
0.18593555688858032,0.0011375061003491282,9.797953605651855,-0.003178726190577961,-0.004022088970562609,0.0011238620423175197,4.310015439987183,2019-07-26 15:25:33:434,-178.68196278059926,-70.50730970492114,0,-39.13406753540039,25.63956069946289,-42.732601165771484
0.19551454484462738,-0.018020492047071457,9.800348281860352,-0.0007812959122377771,0.00024000941221253666,0.0011238620423175197,4.320042610168457,2019-07-26 15:25:33:444,-178.68560095317417,-72.69461656048286,0,-39.13406753540039,25.63956069946289,-42.732601165771484
0.20269879698753357,-0.025204740464687347,9.869795799255371,0.0013497532385131823,-0.0029565642001313846,-0.0010071871084334394,4.330015420913696,2019-07-26 15:25:33:454,-178.68670265528507,-74.83855370676147,0,-39.13406753540039,25.63956069946289,-42.732601165771484
0.18833030760288239,-0.025204740464687347,9.788373947143555,-0.0007812959122377771,-0.004022088970562609,-0.00020804367690182974,4.340013742446899,2019-07-26 15:25:33:464,-178.68866565447001,-76.9383933212938,0,-39.13406753540039,25.63956069946289,-42.732601165771484
0.20509354770183563,-0.008441492915153503,9.769216537475586,-0.0007812959122377771,-0.002423801944952936,0.0032549110630313164,4.350020408630371,2019-07-26 15:25:33:474,-178.68947681652205,-78.99819629063417,0,-38.53430938720703,25.939437866210938,-44.53186798095703
0.21706730127334595,-0.04675748944282532,9.776400566101074,-0.0021132015501838996,-0.005087613480919507,0.0024557676802636425,4.360015869140625,2019-07-26 15:25:33:484,-178.68739308452325,-81.01156582686009,0,-38.53430938720703,25.939437866210938,-44.53186798095703
0.21706730127334595,-0.051546987146139145,9.685400009155273,0.0016161343661024066,-0.00029275289172984846,0.002189386552674418,4.370039701461792,2019-07-26 15:25:33:494,-178.68780271202803,-82.98614547263817,0,-38.53430938720703,25.939437866210938,-44.53186798095703
0.21706730127334595,-0.006046743132174015,9.785979270935059,1.7847537580308712e-05,-0.0048212323533302825,0.0032549110630313164,4.380013942718506,2019-07-26 15:25:33:504,-178.68593260298158,-84.92572449916263,0,-38.53430938720703,25.939437866210938,-44.53186798095703
0.20269879698753357,-0.0347837395966053,9.829085350036621,0.0018825154936916314,0.0005063905560564065,0.0005910997871390706,4.3900158405303955,2019-07-26 15:25:33:514,-178.6888702240832,-86.82421202378136,0,-38.53430938720703,25.939437866210938,-44.53186798095703
0.22425153851509094,-0.02759948931634426,9.745268821716309,-0.0013140581674162262,-0.006685900246454855,0.0013902431699067445,4.400027275085449,2019-07-26 15:25:33:524,-178.68497002093218,-88.68374376904981,0,-38.53430938720703,25.939437866210938,-44.53186798095703
0.25059378147125244,-0.03238898888230324,9.81950569152832,-0.0010476770398270016,0.0018382962265118203,0.0008574809147282953,4.410017728805542,2019-07-26 15:25:33:534,-178.6830644166058,-90.50570147307614,0,-38.53430938720703,25.939437866210938,-44.53186798095703
0.22425153851509094,-0.018020492047071457,9.797953605651855,0.0026816588764593053,-0.0005591340518283637,0.001656624297495969,4.42003607749939,2019-07-26 15:25:33:544,-178.68286593195464,-92.29498837749661,0,-38.53430938720703,25.939437866210938,-44.53186798095703
0.18354080617427826,-0.006046743132174015,9.764426231384277,0.0021488966212808557,-0.0074850436292225285,0.0011238620423175197,4.430017471313477,2019-07-26 15:25:33:554,-178.68347648301693,-94.04958334497015,0,-38.53430938720703,25.939437866210938,-44.53186798095703
0.18833030760288239,-0.018020492047071457,9.76682186126709,0.00294804000404853,0.003702964249673555,0.0019230054250851934,4.440017938613892,2019-07-26 15:25:33:564,-178.68979269692346,-95.76813278121034,0,-38.53430938720703,25.939437866210938,-44.53186798095703
0.19551454484462738,-0.0036519933491945267,9.793163299560547,-0.0026459639353995116,-0.0010918963070068127,0.0011238620423175197,4.450013637542725,2019-07-26 15:25:33:574,-178.69250953982902,-97.45085773318175,0,-38.53430938720703,25.939437866210938,-44.53186798095703
0.18833030760288239,-0.025204740464687347,9.874585151672363,0.0018825154936916314,-0.005353994608508731,0.0032549110630313164,4.460033893585205,2019-07-26 15:25:33:584,-178.6937944884949,-99.09997482236851,0,-38.53430938720703,25.939437866210938,-44.53186798095703
0.2074882984161377,-0.0036519933491945267,9.860217094421387,-0.00024853360829539187,-0.0010918963070068127,0.0027221488078528673,4.4700140953063965,2019-07-26 15:25:33:594,-178.695196799798,-100.71741163066376,0,-38.53430938720703,25.939437866210938,-44.53186798095703
0.1811460554599762,-0.0036519933491945267,9.723715782165527,0.0018825154936916314,-0.0005591340518283637,0.004586816961051765,4.480013847351074,2019-07-26 15:25:33:604,-178.69963377796213,-102.30369002346494,0,-38.53430938720703,25.939437866210938,-44.53186798095703
