ACCELEROMETER X (m/s²),ACCELEROMETER Y (m/s²),ACCELEROMETER Z (m/s²),GYROSCOPE X (rad/s),GYROSCOPE Y (rad/s),GYROSCOPE Z (rad/s),Time since start in ms ,YYYY-MO-DD HH-MI-SS_SSS,Pitch (Deg),Roll (Deg),Heading (Deg),MagX,MagY,MagZ
0.16694039106369019,-0.10155654698610306,9.748329162597656,0.004467211899782784,-0.009389935657780304,-0.00604072502539659,0.0,2019-08-07 14:04:33:351,-3.580378083641336,-3.588062464993269,0,-22.041025161743164,40.33357620239258,-40.33357620239258
0.23399338126182556,-0.06803005188703537,9.872856140136719,-0.00672079649926195,-0.011254603030756228,0.0014179468071760237,0.010006427764892578,2019-08-07 14:04:33:361,-7.075293123178875,-7.104629133610624,0,-22.041025161743164,40.33357620239258,-40.33357620239258
0.23638813197612762,0.013391440734267235,9.853697776794434,0.00020511348449834825,-0.006992504989328633,-0.0017786268539318336,0.020007848739624023,2019-08-07 14:04:33:371,-10.502375419196456,-3.36420906744535,0,-22.041025161743164,40.33357620239258,-40.33357620239258
0.27949362993240356,-0.022529805079102516,9.81538200378418,0.00020511348449834825,-0.00859079175486398,0.003016233572711371,0.030169010162353516,2019-08-07 14:04:33:381,-13.85480524836884,-6.894411632481008,0,-22.041025161743164,40.33357620239258,-40.33357620239258
0.2435723841190338,-0.04887205362319946,9.85609245300293,0.0015370192362269886,-0.006992504989328633,0.00035242226430983473,0.0400090217590332,2019-08-07 14:04:33:391,-17.145532571107196,-10.35169057861817,0,-22.041025161743164,40.33357620239258,-40.33357620239258
0.3369676172733307,-0.0009770578471943736,9.798619270324707,-0.006454414851524075,-0.006992504989328633,0.00035242226430983473,0.049986839294433594,2019-08-07 14:04:33:401,-20.359312640453833,-13.740926397505891,0,-22.041025161743164,40.33357620239258,-40.33357620239258
0.27949362993240356,0.001417691819369793,9.892014503479004,-0.00032764881944403687,-0.002996787815415939,0.0038153772155533703,0.05996370315551758,2019-08-07 14:04:33:411,-23.518078962081976,-9.866088549784305,0,-22.041025161743164,40.33357620239258,-40.33357620239258
0.32499387860298157,0.001417691819369793,9.860882759094238,0.0020697814914054373,-0.005394218223793286,0.00061880342440835,0.06998014450073242,2019-08-07 14:04:33:421,-26.606930263618885,-6.07009561649451,0,-22.041025161743164,40.33357620239258,-40.33357620239258
0.9260760545730591,0.1834186613559723,9.652539253234863,-0.007253558754440398,0.006326551910281247,0.009143000287486512,0.07997870445251465,2019-08-07 14:04:33:431,-29.568738470088157,-2.366393626930779,0,-22.041025161743164,40.33357620239258,-40.33357620239258
0.5429161190986633,0.01818094030022621,9.623802185058594,0.01885179330974956,0.0004661670057904337,-0.013499397118043528,0.0899801254272461,2019-08-07 14:04:33:441,-32.5130483819005,1.2681826653138426,0,-22.041025161743164,40.33357620239258,-40.33357620239258
0.7153380513191223,-0.4775322377681732,9.662117958068848,0.03030618231623487,-0.023774517587895734,-0.0158968277864952,0.10001087188720703,2019-08-07 14:04:33:451,-35.36471327448223,-2.317661484330474,0,-22.041025161743164,40.33357620239258,-40.33357620239258
0.008886916562914848,0.06128643453121185,9.78664493560791,-0.0056552714687564,-0.00912355401004243,0.009409380894927086,0.11000204086303711,2019-08-07 14:04:33:461,-38.25126010348974,1.3246884502361804,0,-22.041025161743164,40.33357620239258,-40.33357620239258
-0.08450832217931747,-0.13987253606319427,9.8848295211792,0.01405693301314352,-0.009389935657780304,-0.006573487280575038,0.12000656127929688,2019-08-07 14:04:33:471,-33.89075661355352,-2.293487957124218,0,-22.041025161743164,40.33357620239258,-40.33357620239258
0.6123638153076172,-0.18058328330516815,10.162620544433594,-0.04188310586118824,-0.027770235021882753,0.017667196370341698,0.13016390800476074,2019-08-07 14:04:33:481,-36.728137720952134,-5.803370807683201,0,-22.041025161743164,40.33357620239258,-40.33357620239258
-0.1946668028831482,0.05410218611359596,9.961462020874023,0.015921601426416743,-0.004328693453362062,0.003016233572711371,0.1400001049041748,2019-08-07 14:04:33:491,-32.41357484669479,-2.102320487094402,0,-22.041025161743164,40.33357620239258,-40.33357620239258
0.24836188554763794,-0.05366155132651329,9.810592651367188,-0.014712230847087336,-0.00965631626522088,0.004348139470731819,0.14998793601989746,2019-08-07 14:04:33:501,-35.33088449462745,-5.645755415787665,0,-22.041025161743164,40.33357620239258,-40.33357620239258
-0.03900807723402977,-0.1901622861623764,10.040488243103027,0.006331879792907356,-0.007791648372096307,0.005680045108677942,0.16001296043395996,2019-08-07 14:04:33:511,-31.02433280533257,-9.11470402013526,0,-22.041025161743164,40.33357620239258,-40.33357620239258
0.37049412727355957,-0.022529805079102516,9.899198532104492,-0.007519939882029623,-0.013918414306648471,0.008343856384570188,0.1699991226196289,2019-08-07 14:04:33:521,-33.9531739862069,-12.525585336494114,0,-22.041025161743164,40.33357620239258,-40.33357620239258
0.061571408063173294,-0.005766557063907385,9.868066787719727,0.0028689248741731116,0.0031299783792105513,0.0022170901899436976,0.17999863624572754,2019-08-07 14:04:33:531,-36.86871809788978,-15.876014815450086,0,-22.041025161743164,40.33357620239258,-40.33357620239258
0.3225991129875183,-0.1255040466785431,9.971040725708008,0.0020697814914054373,-0.012320127541113125,0.0011515656795867992,0.19000697135925293,2019-08-07 14:04:33:541,-39.68735866257559,-19.14523495524178,0,-22.041025161743164,40.33357620239258,-40.33357620239258
0.2244143933057785,-0.041687801480293274,9.784250259399414,0.00047149462834221814,-0.010721840775577777,0.0022170901899436976,0.19999933242797852,2019-08-07 14:04:33:551,-42.46131734531922,-22.357712419047736,0,-22.041025161743164,40.33357620239258,-40.33357620239258
0.3369676172733307,0.025365188717842102,9.829751014709473,0.0007378757884407334,0.0004661670057904337,-0.003909676004682793,0.20998644828796387,2019-08-07 14:04:33:561,-45.17308536609047,-18.313928925327755,0,-22.041025161743164,40.33357620239258,-40.33357620239258
0.3417571187019348,-0.0919775441288948,9.86567211151123,0.00047149462834221814,-0.00566059935138251,-0.0009794834711641602,0.2199993133544922,2019-08-07 14:04:33:571,-47.82676131269309,-21.537232383055294,0,-22.041025161743164,40.33357620239258,-40.33357620239258
0.32020437717437744,-0.06084579974412918,9.769882202148438,0.0015370192362269886,-0.005926980478971734,0.0014179468071760237,0.22999882698059082,2019-08-07 14:04:33:581,-50.42935472423636,-24.700214178010473,0,-21.89108657836914,39.88376235961914,-40.18363952636719
0.29865163564682007,-0.08000379800796509,9.779460906982422,0.00020511348449834825,-0.010455460168137204,-0.0033769137495043436,0.2400069236755371,2019-08-07 14:04:33:591,-52.979908295399966,-27.79695086335392,0,-21.89108657836914,39.88376235961914,-40.18363952636719
0.33217811584472656,-0.03929305449128151,9.834540367126465,0.0015370192362269886,-0.0027304066878267143,-0.005241581642628916,0.24999737739562988,2019-08-07 14:04:33:601,-55.48008795910263,-30.837295674262574,0,-21.89108657836914,39.88376235961914,-40.18363952636719
0.2818883955478668,-0.0656353011727333,9.829751014709473,-0.0013931734273288073,-0.004595074841025611,-0.003909676004682793,0.2599976062774658,2019-08-07 14:04:33:611,-57.93505352197588,-33.812116073797895,0,-21.89108657836914,39.88376235961914,-40.18363952636719
0.2770988941192627,-0.022529805079102516,9.77467155456543,0.0034016871293515603,-0.009389935657780304,-0.0023113892391474454,0.26999998092651367,2019-08-07 14:04:33:621,-60.33860228369171,-36.73514301311947,0,-21.89108657836914,39.88376235961914,-40.18363952636719
0.3034411370754242,-0.005766557063907385,9.841724395751953,0.00020511348449834825,-0.0048614559686148365,-0.007639012311080588,0.28000402450561523,2019-08-07 14:04:33:631,-62.693779625937616,-39.599883944650095,0,-21.89108657836914,39.88376235961914,-40.18363952636719
0.2842831313610077,-0.015345555730164051,9.817776679992676,0.0015370192362269886,-0.00805802949968553,-0.006573487280575038,0.2900078296661377,2019-08-07 14:04:33:641,-65.002205924062,-42.40695852047933,0,-21.89108657836914,39.88376235961914,-40.18363952636719
0.3178096413612366,-0.03210880234837532,9.822566032409668,-0.00272507906527493,-0.009389935657780304,-0.007106249535753488,0.29999852180480957,2019-08-07 14:04:33:651,-67.25983104731385,-45.153544797411186,0,-21.89108657836914,39.88376235961914,-40.18363952636719
0.2914673686027527,-0.02492455393075943,9.78664493560791,0.0015370192362269886,-0.0027304066878267143,-0.003909676004682793,0.30999088287353516,2019-08-07 14:04:33:661,-69.47898472788627,-47.84841787348448,0,-21.89108657836914,39.88376235961914,-40.18363952636719
0.3417571187019348,-0.020135056227445602,9.817776679992676,0.00047149462834221814,-0.010988222423315652,-0.008704536821437486,0.31999874114990234,2019-08-07 14:04:33:671,-71.64335705488362,-50.4893643385682,0,-21.89108657836914,39.88376235961914,-40.18363952636719
2.195293426513672,0.29597190022468567,8.919745445251465,0.07212802298878368,-0.006193361606560959,-0.04013751195756059,0.3299999237060547,2019-08-07 14:04:33:681,-73.53047964587755,-45.95809105597741,0,-21.89108657836914,39.88376235961914,-40.18363952636719
-0.6185374855995178,0.2025766670703888,9.484906196594238,0.04069504889295788,0.010322268824119614,-0.020425307475660667,0.34000468254089355,2019-08-07 14:04:33:691,-68.5402914755008,-41.48626083158584,0,-21.89108657836914,39.88376235961914,-40.18363952636719
0.5501003265380859,0.09241817891597748,9.858488082885742,-0.007786321009618847,-0.00246402556023749,-0.00018034003963255039,0.35000038146972656,2019-08-07 14:04:33:701,-70.70422722801239,-37.06290753247459,0,-21.89108657836914,39.88376235961914,-40.18363952636719
0.27470412850379944,-0.08479329943656921,9.824960708618164,0.004733593027372009,-0.0005993576020943366,-0.013765778765781403,0.3599987030029297,2019-08-07 14:04:33:711,-72.85777495342336,-39.91441738220344,0,-21.89108657836914,39.88376235961914,-40.18363952636719
0.3561256229877472,-0.02492455393075943,9.525617599487305,0.03030618231623487,0.006859314685608345,-0.01935978296530377,0.3699991703033447,2019-08-07 14:04:33:721,-74.96164976699372,-42.73014833530138,0,-21.89108657836914,39.88376235961914,-40.18363952636719
0.6602588295936584,0.027759937569499016,9.729170799255371,-0.009384607255005544,-0.009922697912958753,-0.0015122457263426093,0.3800075054168701,2019-08-07 14:04:33:731,-76.97919337650104,-38.273541128352434,0,-21.89108657836914,39.88376235961914,-40.18363952636719
0.49502110481262207,0.00620719138532877,9.731565475463867,0.005799117537728906,-0.004062312325772837,-0.006307106152985815,0.390000581741333,2019-08-07 14:04:33:741,-78.97909035928791,-33.91205515974541,0,-21.89108657836914,39.88376235961914,-40.18363952636719
0.42557334899902344,-0.0009770578471943736,9.664512634277344,0.011659502344691848,-0.002996787815415939,-0.007106249535753488,0.39999914169311523,2019-08-07 14:04:33:751,-80.94739869685682,-36.84024405930608,0,-21.89108657836914,39.88376235961914,-40.18363952636719
0.35852035880088806,-0.05366155132651329,9.784250259399414,-0.0029914601928641544,-0.0021976444326482656,-0.01296663486286508,0.4099996089935303,2019-08-07 14:04:33:761,-82.88524614305054,-39.69547470757705,0,-21.89108657836914,39.88376235961914,-40.18363952636719
0.5165738463401794,-0.05845104902982712,9.781855583190918,-0.0005940299795425521,-0.004595074841025611,-0.007905393438669812,0.4199991226196289,2019-08-07 14:04:33:771,-84.76450227330291,-42.49438439576636,0,-21.89108657836914,39.88376235961914,-40.18363952636719
0.3417571187019348,0.020575689151883125,9.71719741821289,0.0020697814914054373,-0.00246402556023749,-0.011101966449591856,0.4300060272216797,2019-08-07 14:04:33:781,-86.6275420917948,-38.04808610623867,0,-21.89108657836914,39.88376235961914,-40.18363952636719
0.39923110604286194,0.0038124416023492813,9.712408065795898,-0.004589746958399502,-0.007258886116917857,-0.0041760571322720175,0.4400007724761963,2019-08-07 14:04:33:791,-88.44384087549807,-33.684998411432744,0,-21.89108657836914,39.88376235961914,-40.18363952636719
0.3561256229877472,-0.027319304645061493,9.762697219848633,-0.00032764881944403687,-0.004328693453362062,-0.0020450079815210586,0.4499976634979248,2019-08-07 14:04:33:801,-90.23075184606972,-36.60790787784261,0,-21.89108657836914,39.88376235961914,-40.18363952636719
0.3369676172733307,-0.010556057095527649,9.8034086227417,0.004467211899782784,-0.008324410627274756,-0.005507962770218141,0.4600028991699219,2019-08-07 14:04:33:811,-91.98208773928243,-39.477025475148224,0,-21.89108657836914,39.88376235961914,-40.18363952636719
0.32738861441612244,-0.036898303776979446,9.748329162597656,-0.00032764881944403687,-0.0048614559686148365,-0.006573487280575038,0.4699971675872803,2019-08-07 14:04:33:821,-93.70124779238162,-42.28296372373323,0,-21.89108657836914,39.88376235961914,-40.18363952636719
0.3489413857460022,-0.03210880234837532,9.791434288024902,0.001803400363816213,-0.0048614559686148365,-0.005774343897807364,0.4799997806549072,2019-08-07 14:04:33:831,-95.38367223043753,-45.03455956222173,0,-21.741147994995117,40.63345718383789,-41.53308868408203
0.32020437717437744,-0.03450355306267738,9.779460906982422,-0.0056552714687564,-0.0027304066878267143,0.00035242226430983473,0.4900050163269043,2019-08-07 14:04:33:841,-97.03695807745956,-47.7266483185298,0,-21.741147994995117,40.63345718383789,-41.53308868408203
0.3225991129875183,-0.05845104902982712,9.738750457763672,-0.0029914601928641544,-0.005926980478971734,-0.0033769137495043436,0.5000016689300537,2019-08-07 14:04:33:851,-98.65494710580049,-50.36355862037636,0,-21.741147994995117,40.63345718383789,-41.53308868408203
0.3369676172733307,-0.012950805947184563,9.726776123046875,-0.002192316810096481,-0.0016648821774698163,-0.0012458645987533845,0.509998083114624,2019-08-07 14:04:33:861,-100.24123124294314,-52.953531167471326,0,-21.741147994995117,40.63345718383789,-41.53308868408203
0.29865163564682007,-0.03450355306267738,9.858488082885742,0.005799117537728906,-0.003263168943005164,-0.0015122457263426093,0.5199971199035645,2019-08-07 14:04:33:871,-101.79987093919785,-55.493705873176495,0,-21.741147994995117,40.63345718383789,-41.53308868408203
0.33217811584472656,-0.03210880234837532,9.808197975158691,0.00020511348449834825,-0.0115209846784941,-0.00604072502539659,0.5300021171569824,2019-08-07 14:04:33:881,-103.31860692228337,-57.98019564825024,0,-21.741147994995117,40.63345718383789,-41.53308868408203
0.32499387860298157,-0.03929305449128151,9.832145690917969,0.00047149462834221814,-0.0019312633050590406,-0.0041760571322720175,0.5400047302246094,2019-08-07 14:04:33:891,-104.81328654167145,-60.41627705081978,0,-21.741147994995117,40.63345718383789,-41.53308868408203
0.34415188431739807,-0.05126680061221123,9.777066230773926,-0.00032764881944403687,-0.002996787815415939,-0.0009794834711641602,0.5500016212463379,2019-08-07 14:04:33:901,-106.27501915910202,-62.80175895095346,0,-21.741147994995117,40.63345718383789,-41.53308868408203
2.509005546569824,0.4061304032802582,9.022720336914062,0.05374772154408663,-0.013918414306648471,-0.02415464222161251,0.5600020885467529,2019-08-07 14:04:33:911,-107.43090336635666,-58.02744957845471,0,-21.741147994995117,40.63345718383789,-41.53308868408203
-0.616142749786377,0.19060291349887848,9.314879417419434,0.06653401982955862,0.02230942112608067,-0.02308911771125561,0.5700020790100098,2019-08-07 14:04:33:921,-101.77049956297692,-53.32770399361171,0,-21.741147994995117,40.63345718383789,-41.53308868408203
1.711553931236267,-0.027319304645061493,9.475327491760254,-0.03069509954273811,-0.022442610389503657,0.01020852479784341,0.5800037384033203,2019-08-07 14:04:33:931,-103.11770432789382,-55.84060789754504,0,-21.741147994995117,40.63345718383789,-41.53308868408203
0.3609151244163513,-0.07042480260133743,9.872856140136719,0.006598260920496581,0.003929121761978225,-0.0009794834711641602,0.5900006294250488,2019-08-07 14:04:33:941,-104.61568395931002,-58.31932562539291,0,-21.741147994995117,40.63345718383789,-41.53308868408203
0.5692583322525024,-0.01774030551314354,9.453774452209473,0.02444579854956923,0.006060170782692022,-0.015630446138757324,0.599994421005249,2019-08-07 14:04:33:951,-106.05785293710585,-60.76450652948048,0,-21.741147994995117,40.63345718383789,-41.53308868408203
0.6387060880661011,0.05410218611359596,9.659723281860352,-0.0061880337239348495,-0.005926980478971734,0.008876618639748637,0.609999418258667,2019-08-07 14:04:33:961,-107.45770779934425,-55.95215806791736,0,-21.89108657836914,40.483516693115234,-41.38315200805664
0.6315218210220337,-0.04408255219459534,9.743539810180664,0.003668068256940785,0.0004661670057904337,-0.00018034003963255039,0.6199982166290283,2019-08-07 14:04:33:971,-108.83464725852109,-58.429989860922134,0,-21.89108657836914,40.483516693115234,-41.38315200805664
0.48304736614227295,-0.00816130731254816,9.621407508850098,0.011393121737251273,0.00019978586194656375,-0.004442438259861242,0.6300065517425537,2019-08-07 14:04:33:981,-110.20058361059917,-60.86682060169327,0,-21.89108657836914,40.483516693115234,-41.38315200805664
0.3752836287021637,-0.08718805015087128,9.714802742004395,0.00020511348449834825,0.00019978586194656375,-0.005774343897807364,0.6399991512298584,2019-08-07 14:04:33:991,-111.55243922123283,-63.2393152308789,0,-21.89108657836914,40.483516693115234,-41.38315200805664
0.5620741248130798,-0.00337180751375854,9.693249702453613,-0.004323365830810277,-0.003263168943005164,-0.0004467211834764202,0.6499989032745361,2019-08-07 14:04:34:001,-112.85318532058422,-65.57170281444752,0,-21.89108657836914,40.483516693115234,-41.38315200805664
0.35852035880088806,0.008601941168308258,9.74593448638916,0.0034016871293515603,0.0009989292934781736,-0.00257777036673667,0.6599972248077393,2019-08-07 14:04:34:011,-114.15454701239581,-60.66318988618832,0,-21.89108657836914,40.483516693115234,-41.38315200805664
0.4207838773727417,-0.022529805079102516,9.772276878356934,0.0020697814914054373,-0.004062312325772837,-0.0015122457263426093,0.6700003147125244,2019-08-07 14:04:34:021,-115.41986293521694,-63.0484467443661,0,-21.89108657836914,40.483516693115234,-41.38315200805664
0.39683637022972107,-0.027319304645061493,9.767487525939941,0.002336162618994662,-0.00965631626522088,0.0008851845519975746,0.6800055503845215,2019-08-07 14:04:34:031,-116.65950982298445,-65.38558517284878,0,-21.89108657836914,40.483516693115234,-41.38315200805664
0.32499387860298157,-0.027319304645061493,9.769882202148438,-0.0016595545549180318,-0.0021976444326482656,-0.004708819387450467,0.6900010108947754,2019-08-07 14:04:34:041,-117.88698152795479,-67.67373776480778,0,-21.89108657836914,40.483516693115234,-41.38315200805664
0.3561256229877472,-0.08479329943656921,9.834540367126465,0.0015370192362269886,-0.004328693453362062,-0.0031105326219151193,0.6999731063842773,2019-08-07 14:04:34:051,-119.08534067295899,-69.91124380859877,0,-21.89108657836914,40.483516693115234,-41.38315200805664
0.32020437717437744,-0.04408255219459534,9.719592094421387,0.003668068256940785,-0.00859079175486398,0.0011515656795867992,0.7099909782409668,2019-08-07 14:04:34:061,-120.26106387434325,-72.10988504169951,0,-21.89108657836914,40.483516693115234,-41.38315200805664
0.34415188431739807,-0.03210880234837532,9.801013946533203,0.00393444938453001,-0.004062312325772837,0.00035242226430983473,0.7199985980987549,2019-08-07 14:04:34:071,-121.41333882863151,-74.26614412658614,0,-21.89108657836914,40.483516693115234,-41.38315200805664
0.3297833800315857,-0.00816130731254816,9.796224594116211,0.002336162618994662,-0.0037959311981836125,-0.0041760571322720175,0.7299880981445312,2019-08-07 14:04:34:081,-122.54438095711585,-76.38117694830211,0,-21.591209411621094,39.88376235961914,-40.483516693115234
0.35133612155914307,-0.05366155132651329,9.765092849731445,0.007397404303264255,-0.006459742734150184,-0.0009794834711641602,0.7399883270263672,2019-08-07 14:04:34:091,-123.64865524993414,-78.45141011641195,0,-21.591209411621094,39.88376235961914,-40.483516693115234
0.3561256229877472,-0.03210880234837532,9.836935043334961,0.006065498665318131,-0.008324410627274756,0.00061880342440835,0.749988317489624,2019-08-07 14:04:34:101,-124.72954064119658,-80.48204730298724,0,-21.591209411621094,39.88376235961914,-40.483516693115234
0.33217811584472656,-0.05126680061221123,9.784250259399414,-0.00032764881944403687,-0.006459742734150184,0.0022170901899436976,0.7600317001342773,2019-08-07 14:04:34:111,-125.79241772856757,-82.46621735448016,0,-21.591209411621094,39.88376235961914,-40.483516693115234
0.27949362993240356,-0.03450355306267738,9.779460906982422,0.002602543746583887,-0.005127837096204061,-0.003643294877093568,0.7699844837188721,2019-08-07 14:04:34:121,-126.84096273410583,-84.41430446964728,0,-21.591209411621094,39.88376235961914,-40.483516693115234
0.29865163564682007,-0.00816130731254816,9.789039611816406,-0.0032578413204533796,-0.006992504989328633,-0.0020450079815210586,0.7799782752990723,2019-08-07 14:04:34:131,-127.86526999157107,-86.32323487121468,0,-21.591209411621094,39.88376235961914,-40.483516693115234
1.5774480104446411,0.09960243105888367,8.881429672241211,0.08651260491889912,0.007392076940786795,-0.04093665586047691,0.7900002002716064,2019-08-07 14:04:34:141,-128.71069658563442,-81.05830393104355,0,-21.591209411621094,39.88376235961914,-40.483516693115234
-0.6353007555007935,0.20976091921329498,9.19753646850586,0.07132887492467815,0.029768092698578958,-0.029482266853991603,0.8000102043151855,2019-08-07 14:04:34:151,-122.63224034133523,-75.90335844432626,0,-21.591209411621094,39.88376235961914,-40.483516693115234
1.804949164390564,-0.05845104902982712,9.470538139343262,-0.03842015172267697,-0.013918414306648471,0.00674556961903484,0.8099849224090576,2019-08-07 14:04:34:161,-123.55599306917846,-77.95670058620853,0,-21.591209411621094,39.88376235961914,-40.483516693115234
0.4878368675708771,-0.04408255219459534,9.860882759094238,0.011925883992429723,0.00019978586194656375,-0.010569204194413408,0.8200116157531738,2019-08-07 14:04:34:171,-124.6283412166028,-79.9991580963555,0,-21.591209411621094,39.88376235961914,-40.483516693115234
0.5668635964393616,0.01578618958592415,9.401090621948242,0.02817513329552107,0.010855031079298064,-0.013499397118043528,0.830031156539917,2019-08-07 14:04:34:181,-125.67286893741915,-74.81695035234867,0,-21.591209411621094,39.88376235961914,-40.483516693115234
0.6554693579673767,0.034944187849760056,9.748329162597656,-0.007253558754440398,-0.004595074841025611,-0.0033769137495043436,0.8399839401245117,2019-08-07 14:04:34:191,-126.67990902723233,-69.72066538241786,0,-21.591209411621094,39.88376235961914,-40.483516693115234
0.6578640937805176,0.04691793769598007,9.724381446838379,0.005799117537728906,-0.0021976444326482656,-0.00257777036673667,0.8499972820281982,2019-08-07 14:04:34:201,-127.66767083524269,-64.73504135601,0,-21.591209411621094,39.88376235961914,-40.483516693115234
0.5022053718566895,0.001417691819369793,9.599854469299316,0.012725026855048746,-0.0027304066878267143,-0.011101966449591856,0.8600142002105713,2019-08-07 14:04:34:211,-128.6528890428855,-59.847666929398386,0,-21.14139175415039,40.93333435058594,-39.43394470214844
0.37767836451530457,-0.07760904729366302,9.724381446838379,0.003135306001762336,0.0004661670057904337,-0.00950367968405651,0.8700029850006104,2019-08-07 14:04:34:221,-129.6356096737754,-62.24332687453939,0,-21.14139175415039,40.93333435058594,-39.43394470214844
0.5381265878677368,-0.00816130731254816,9.69564437866211,0.00047149462834221814,-0.0027304066878267143,-0.0017786268539318336,0.8799781799316406,2019-08-07 14:04:34:231,-130.57783286832665,-64.59775984988099,0,-21.14139175415039,40.93333435058594,-39.43394470214844
0.3896521031856537,-0.041687801480293274,9.731565475463867,0.0020697814914054373,-0.006193361606560959,-0.003643294877093568,0.8900008201599121,2019-08-07 14:04:34:241,-131.5169327833334,-66.90206065321419,0,-21.14139175415039,40.93333435058594,-39.43394470214844
0.40402060747146606,-0.08479329943656921,9.810592651367188,0.00047149462834221814,-0.006459742734150184,-0.004442438259861242,0.9000265598297119,2019-08-07 14:04:34:251,-132.4357931187963,-69.15438092279825,0,-21.14139175415039,40.93333435058594,-39.43394470214844
0.37767836451530457,-0.036898303776979446,9.741145133972168,-0.0013931734273288073,-0.007791648372096307,-0.004442438259861242,0.9099981784820557,2019-08-07 14:04:34:261,-133.33830810135044,-71.36617268778724,0,-21.14139175415039,40.93333435058594,-39.43394470214844
0.3680993616580963,-0.012950805947184563,9.8034086227417,0.004733593027372009,-0.006992504989328633,-0.004708819387450467,0.9199998378753662,2019-08-07 14:04:34:271,-134.22460825681688,-73.53999376869835,0,-21.14139175415039,40.93333435058594,-39.43394470214844
0.34654662013053894,-0.06324055045843124,9.846513748168945,0.00047149462834221814,-0.0037959311981836125,-0.004442438259861242,0.9300382137298584,2019-08-07 14:04:34:281,-135.09766280910503,-75.66209995806675,0,-21.14139175415039,40.93333435058594,-39.43394470214844
0.3489413857460022,-0.03450355306267738,9.767487525939941,0.001803400363816213,0.00019978586194656375,-0.0068398684081642635,0.9399881362915039,2019-08-07 14:04:34:291,-135.95490098562018,-77.74581757623032,0,-21.14139175415039,40.93333435058594,-39.43394470214844
0.30583587288856506,-0.05366155132651329,9.772276878356934,0.00393444938453001,-0.005926980478971734,-0.00604072502539659,0.9499926567077637,2019-08-07 14:04:34:301,-136.79662228146952,-79.78681902000521,0,-21.14139175415039,40.93333435058594,-39.43394470214844
0.32499387860298157,-0.04887205362319946,9.81538200378418,0.0020697814914054373,-0.0027304066878267143,-0.0023113892391474454,0.9600071907043457,2019-08-07 14:04:34:311,-137.62122631090205,-81.78654089375904,0,-21.14139175415039,40.93333435058594,-39.43394470214844
0.34415188431739807,-0.005766557063907385,9.73396110534668,0.00020511348449834825,-0.005394218223793286,-0.0009794834711641602,0.9699945449829102,2019-08-07 14:04:34:321,-138.42527888669184,-83.7502462422083,0,-21.14139175415039,40.93333435058594,-39.43394470214844
0.35133612155914307,-0.015345555730164051,9.834540367126465,-6.126766340918298e-05,-0.0008657387296835611,-0.0068398684081642635,0.9799892902374268,2019-08-07 14:04:34:331,-139.21536735116413,-85.67341887891428,0,-22.490842819213867,40.78339385986328,-39.58388137817383
0.3417571187019348,-0.07042480260133743,9.78664493560791,0.003135306001762336,-0.00566059935138251,-0.0041760571322720175,0.990004301071167,2019-08-07 14:04:34:341,-139.98787682045685,-87.5534677353734,0,-22.490842819213867,40.78339385986328,-39.58388137817383
0.3225991129875183,-0.029714053496718407,9.781855583190918,0.0012706381086377639,-0.003263168943005164,-0.0031105326219151193,1.0000202655792236,2019-08-07 14:04:34:351,-140.7485062496572,-89.39963207803913,0,-22.490842819213867,40.78339385986328,-39.58388137817383
0.33217811584472656,-0.03929305449128151,9.853697776794434,0.004200830512119234,-0.004595074841025611,-0.007372630663342713,1.009995937347412,2019-08-07 14:04:34:361,-141.49234692360298,-91.20942297761641,0,-22.490842819213867,40.78339385986328,-39.58388137817383
2.597611427307129,0.46839389204978943,9.20711612701416,0.037764855969327764,-0.008857173402601856,-0.0169623522968521,1.0199732780456543,2019-08-07 14:04:34:371,-141.94243004101708,-85.86463736878274,0,-22.490842819213867,40.78339385986328,-39.58388137817383
-0.510773777961731,0.18820816278457642,9.082589149475098,0.08571345685479358,0.03136638050441161,-0.035342652701251843,1.030000925064087,2019-08-07 14:04:34:381,-135.585616884188,-80.61934777768042,0,-22.490842819213867,40.78339385986328,-39.58388137817383
1.8312914371490479,-0.08239854872226715,9.432222366333008,-0.03735462929291468,-0.01205374693367255,0.009143000287486512,1.0399925708770752,2019-08-07 14:04:34:391,-136.24739337410472,-82.57599347071428,0,-22.490842819213867,40.78339385986328,-39.58388137817383
0.5381265878677368,-0.03210880234837532,9.877645492553711,0.007930166558442704,0.0052610273999243486,-0.009237299076615935,1.050011157989502,2019-08-07 14:04:34:401,-137.06303810297462,-84.52520969411854,0,-22.490842819213867,40.78339385986328,-39.58388137817383
0.6147586107254028,0.027759937569499016,9.338827133178711,0.03163808743403234,0.006859314685608345,-0.014564921628400425,1.0599901676177979,2019-08-07 14:04:34:411,-137.85029581672805,-79.25583921209251,0,-22.490842819213867,40.78339385986328,-39.58388137817383
0.6530745625495911,-0.01774030551314354,9.724381446838379,-0.005388890341167176,-0.010988222423315652,-0.00018034003963255039,1.0699965953826904,2019-08-07 14:04:34:421,-138.6102735148313,-81.2656041230956,0,-22.490842819213867,40.78339385986328,-39.58388137817383
0.6913905739784241,0.01818094030022621,9.700433731079102,0.002602543746583887,0.00019978586194656375,-0.004975200515039691,1.0799980163574219,2019-08-07 14:04:34:431,-139.3566439143548,-76.0439012913048,0,-22.490842819213867,40.78339385986328,-39.58388137817383
0.5548898577690125,-0.02492455393075943,9.619012832641602,0.015388839171238292,-0.003263168943005164,-0.008704536821437486,1.089991569519043,2019-08-07 14:04:34:441,-140.10164895444177,-78.12868924496121,0,-22.490842819213867,40.78339385986328,-39.58388137817383
0.4016258716583252,-0.11592504382133484,9.683670997619629,-0.00032764881944403687,-0.005127837096204061,-0.00604072502539659,1.1000089645385742,2019-08-07 14:04:34:451,-140.8492325853775,-80.15221385021975,0,-22.490842819213867,40.78339385986328,-39.58388137817383
0.4662840962409973,-0.022529805079102516,9.71719741821289,0.0071310231756750294,0.001531691613675204,-0.0009794834711641602,1.1102509498596191,2019-08-07 14:04:34:461,-141.57818365872086,-82.15061366791683,0,-21.741147994995117,40.93333435058594,-40.03369903564453
0.3154148757457733,0.013391440734267235,9.77467155456543,0.004733593027372009,-0.007258886116917857,-0.005241581642628916,1.1199851036071777,2019-08-07 14:04:34:471,-142.3056882310286,-76.9117585610376,0,-21.741147994995117,40.93333435058594,-40.03369903564453
0.4088101089000702,-0.08718805015087128,9.77467155456543,0.003135306001762336,-0.004062312325772837,-0.002844151494325895,1.1300435066223145,2019-08-07 14:04:34:481,-143.00938197765652,-78.96507308237173,0,-21.741147994995117,40.93333435058594,-40.03369903564453
0.3944416046142578,-0.00816130731254816,9.769882202148438,0.003135306001762336,-0.00805802949968553,0.001950709062354473,1.140045404434204,2019-08-07 14:04:34:491,-143.69842971680507,-80.9865751802686,0,-21.741147994995117,40.93333435058594,-40.03369903564453
0.35852035880088806,-0.05605630204081535,9.784250259399414,0.001803400363816213,-0.00566059935138251,-0.0012458645987533845,1.150062084197998,2019-08-07 14:04:34:501,-144.3793068542614,-82.96129282077669,0,-21.741147994995117,40.93333435058594,-40.03369903564453
0.3680993616580963,-0.05605630204081535,9.74593448638916,0.0028689248741731116,-0.0048614559686148365,0.0008851845519975746,1.160031795501709,2019-08-07 14:04:34:511,-145.04573915420912,-84.89708202075694,0,-21.741147994995117,40.93333435058594,-40.03369903564453
0.3178096413612366,-0.03450355306267738,9.791434288024902,0.0012706381086377639,-0.00566059935138251,-0.0023113892391474454,1.1704134941101074,2019-08-07 14:04:34:521,-145.7043436432827,-86.795843055841,0,-21.741147994995117,40.93333435058594,-40.03369903564453
0.35852035880088806,-0.03929305449128151,9.829751014709473,0.0020697814914054373,-0.010721840775577777,-0.0033769137495043436,1.1802058219909668,2019-08-07 14:04:34:531,-146.3425850525977,-88.65648362612738,0,-21.741147994995117,40.93333435058594,-40.03369903564453
0.32738861441612244,-0.01774030551314354,9.793828964233398,0.00393444938453001,-0.005394218223793286,0.005680045108677942,1.1901803016662598,2019-08-07 14:04:34:541,-146.97442076872633,-90.48348182207567,0,-21.741147994995117,40.93333435058594,-40.03369903564453
0.31302013993263245,-0.06324055045843124,9.812987327575684,0.003668068256940785,-0.0021976444326482656,-0.004708819387450467,1.2000224590301514,2019-08-07 14:04:34:551,-147.59717719232486,-92.26845445266723,0,-21.741147994995117,40.93333435058594,-40.03369903564453
0.32738861441612244,-0.02492455393075943,9.781855583190918,-0.0019259356825072562,-0.004328693453362062,0.0014179468071760237,1.2101225852966309,2019-08-07 14:04:34:561,-148.20444045507497,-94.01907329377909,0,-21.741147994995117,40.93333435058594,-40.03369903564453
0.2842831313610077,-0.041687801480293274,9.801013946533203,-0.0005940299795425521,-0.006992504989328633,-0.0031105326219151193,1.220304012298584,2019-08-07 14:04:34:571,-148.80312561330834,-95.7334782017247,0,-21.741147994995117,40.93333435058594,-40.03369903564453
0.3034411370754242,-0.06803005188703537,9.793828964233398,0.0015370192362269886,-0.006459742734150184,-0.00257777036673667,1.2299938201904297,2019-08-07 14:04:34:581,-149.38805605112228,-97.411685252017,0,-21.291330337524414,40.78339385986328,-41.08327102661133
0.3082306385040283,-0.022529805079102516,9.84411907196045,0.004467211899782784,-0.008324410627274756,-0.0009794834711641602,1.2400293350219727,2019-08-07 14:04:34:591,-149.9597359741646,-99.0633461863336,0,-21.291330337524414,40.78339385986328,-41.08327102661133
2.1114771366119385,0.3869723975658417,9.405879974365234,0.036699329378376264,-0.008857173402601856,-0.01536406553131675,1.249997615814209,2019-08-07 14:04:34:601,-150.30253805297875,-93.54973868440008,0,-21.291330337524414,40.78339385986328,-41.08327102661133
-0.23777230083942413,0.11636567860841751,9.089773178100586,0.07452545053634345,0.028968948795662634,-0.030015028068872754,1.2600195407867432,2019-08-07 14:04:34:611,-143.74275726033355,-88.13535060554628,0,-21.291330337524414,40.78339385986328,-41.08327102661133
1.5032107830047607,-0.08479329943656921,9.480116844177246,-0.029895955639821788,-0.01604946436765957,0.00967576254266496,1.2700121402740479,2019-08-07 14:04:34:621,-144.27869565981007,-89.94562030332342,0,-21.291330337524414,40.78339385986328,-41.08327102661133
0.3561256229877472,-0.07042480260133743,9.836935043334961,0.010860359482072824,-0.004062312325772837,-0.011368348097329731,1.2800352573394775,2019-08-07 14:04:34:631,-144.94936812785096,-91.74461634724933,0,-21.291330337524414,40.78339385986328,-41.08327102661133
0.3082306385040283,-0.036898303776979446,9.563933372497559,0.01938455660522531,0.0071256958131975705,-0.013765778765781403,1.2899696826934814,2019-08-07 14:04:34:641,-145.617437305269,-93.51611605022619,0,-21.291330337524414,40.78339385986328,-41.08327102661133
0.5141791105270386,0.020575689151883125,9.702829360961914,-0.0008604111071317767,-0.005926980478971734,-0.0041760571322720175,1.3000400066375732,2019-08-07 14:04:34:651,-146.24106875234673,-88.04773722157944,0,-21.291330337524414,40.78339385986328,-41.08327102661133
0.7249170541763306,-0.005766557063907385,9.647749900817871,0.010327597226894376,0.0004661670057904337,-0.0020450079815210586,1.3100221157073975,2019-08-07 14:04:34:661,-146.8305678220818,-89.89188610892708,0,-21.291330337524414,40.78339385986328,-41.08327102661133
0.5285475850105286,0.0038124416023492813,9.65493392944336,0.007397404303264255,-0.005127837096204061,-0.00897091742887806,1.3200209140777588,2019-08-07 14:04:34:671,-147.42840834047968,-84.49865400749529,0,-21.291330337524414,40.78339385986328,-41.08327102661133
0.42557334899902344,-0.1446620374917984,9.753118515014648,-0.0013931734273288073,-0.006726123861739408,-0.010569204194413408,1.3300304412841797,2019-08-07 14:04:34:681,-148.0260900044055,-86.39090249875039,0,-21.291330337524414,40.78339385986328,-41.08327102661133
0.5333371162414551,-0.00816130731254816,9.755513191223145,0.002602543746583887,-0.008857173402601856,-0.002844151494325895,1.3400111198425293,2019-08-07 14:04:34:691,-148.59801924317816,-88.26358429550787,0,-21.291330337524414,40.78339385986328,-41.08327102661133
0.33936238288879395,0.020575689151883125,9.77467155456543,0.004999974154961233,-0.005394218223793286,-0.00257777036673667,1.3500428199768066,2019-08-07 14:04:34:701,-149.1832518612081,-82.90354113743,0,-21.291330337524414,40.78339385986328,-41.08327102661133
0.4088101089000702,-0.06803005188703537,9.719592094421387,0.0020697814914054373,-0.00805802949968553,-0.007905393438669812,1.3600060939788818,2019-08-07 14:04:34:711,-149.74690957100765,-84.83860778401217,0,-21.441268920898438,39.733821868896484,-40.33357620239258
0.35852035880088806,-0.03450355306267738,9.753118515014648,0.002336162618994662,-0.005394218223793286,0.0011515656795867992,1.3700263500213623,2019-08-07 14:04:34:721,-150.3068320015715,-86.73909615526306,0,-21.441268920898438,39.733821868896484,-40.33357620239258
0.34415188431739807,-0.05366155132651329,9.81538200378418,-0.0011267922997395827,-0.010189078520399329,-0.0015122457263426093,1.3800101280212402,2019-08-07 14:04:34:731,-150.8548212699304,-88.59741780789321,0,-21.441268920898438,39.733821868896484,-40.33357620239258
0.3489413857460022,-0.03929305449128151,9.817776679992676,0.001803400363816213,-0.005127837096204061,-0.005507962770218141,1.3900256156921387,2019-08-07 14:04:34:741,-151.39413035346817,-90.42189742729406,0,-21.441268920898438,39.733821868896484,-40.33357620239258
0.3345728814601898,-0.029714053496718407,9.777066230773926,0.005266355282550457,-0.007258886116917857,-0.0015122457263426093,1.4000294208526611,2019-08-07 14:04:34:751,-151.92297220879792,-92.21293504694641,0,-21.441268920898438,39.733821868896484,-40.33357620239258
0.3800731301307678,-0.07760904729366302,9.805803298950195,0.004733593027372009,-0.006459742734150184,-0.0031105326219151193,1.4100286960601807,2019-08-07 14:04:34:761,-152.43649240223775,-93.96226478097768,0,-21.441268920898438,39.733821868896484,-40.33357620239258
0.35133612155914307,-0.04408255219459534,9.796224594116211,0.0010042569160299579,-0.006459742734150184,-0.004975200515039691,1.4200117588043213,2019-08-07 14:04:34:771,-152.94306154556335,-95.67842588745704,0,-21.441268920898438,39.733821868896484,-40.33357620239258
0.3297833800315857,-0.0656353011727333,9.798619270324707,0.001803400363816213,-0.00805802949968553,-0.0023113892391474454,1.4300334453582764,2019-08-07 14:04:34:781,-153.4411134241076,-97.35819645948203,0,-21.441268920898438,39.733821868896484,-40.33357620239258
0.3489413857460022,-0.010556057095527649,9.798619270324707,-0.0005940299795425521,-0.005127837096204061,-0.006573487280575038,1.4400081634521484,2019-08-07 14:04:34:791,-153.92862887625134,-99.0094653316171,0,-21.441268920898438,39.733821868896484,-40.33357620239258
0.36570462584495544,-0.041687801480293274,9.829751014709473,-0.0024586979376857053,-0.007791648372096307,-0.007372630663342713,1.450049638748169,2019-08-07 14:04:34:801,-154.40305032978117,-100.62302996477884,0,-21.441268920898438,39.733821868896484,-40.33357620239258
0.3178096413612366,-0.04408255219459534,9.808197975158691,-0.00032764881944403687,-0.006726123861739408,-0.0012458645987533845,1.4600093364715576,2019-08-07 14:04:34:811,-154.87411034901504,-102.20523589561931,0,-21.441268920898438,39.733821868896484,-40.33357620239258
0.3154148757457733,-0.012950805947184563,9.784250259399414,-0.0016595545549180318,-0.004062312325772837,-0.0041760571322720175,1.4700284004211426,2019-08-07 14:04:34:821,-155.33741471848418,-103.75868078703897,0,-21.441268920898438,39.733821868896484,-40.33357620239258
1.855238914489746,0.4396568834781647,9.475327491760254,0.015921601426416743,-0.010455460168137204,-0.004442438259861242,1.4800081253051758,2019-08-07 14:04:34:831,-155.60324392099088,-98.14556158128114,0,-22.041025161743164,40.93333435058594,-40.63345718383789
-0.4628787636756897,0.13791842758655548,9.38672161102295,0.03962952230200638,0.003929121761978225,-0.012700254255424506,1.4900307655334473,2019-08-07 14:04:34:841,-148.94985197880942,-92.62178829553098,0,-22.041025161743164,40.93333435058594,-40.63345718383789
1.395447015762329,-0.11592504382133484,9.439406394958496,-0.029895955639821788,-0.015250320464743247,0.008343856384570188,1.5000085830688477,2019-08-07 14:04:34:851,-149.39412595244988,-94.33853098312738,0,-22.041025161743164,40.93333435058594,-40.63345718383789
0.4399418532848358,-0.05366155132651329,9.872856140136719,0.008196547686031928,-0.008324410627274756,-0.01296663486286508,1.5100398063659668,2019-08-07 14:04:34:861,-149.950525595851,-96.05014879474561,0,-22.041025161743164,40.93333435058594,-40.63345718383789
0.7344960570335388,0.010996690951287746,9.379537582397461,0.020982842330463356,0.002597216124032102,-0.014564921628400425,1.5200557708740234,2019-08-07 14:04:34:871,-150.46342374478132,-90.54228995100644,0,-22.041025161743164,40.93333435058594,-40.63345718383789
0.5117843747138977,0.034944187849760056,9.73396110534668,-0.0013931734273288073,-0.010721840775577777,-0.0023113892391474454,1.5300321578979492,2019-08-07 14:04:34:881,-150.98795558353413,-85.13477746722559,0,-22.041025161743164,40.93333435058594,-40.63345718383789
0.5022053718566895,-0.01774030551314354,9.74593448638916,0.0055327364101396825,0.002330834996442878,0.001950709062354473,1.5400311946868896,2019-08-07 14:04:34:891,-151.51050856677972,-87.03310236052153,0,-22.041025161743164,40.93333435058594,-40.63345718383789
0.49023160338401794,-0.01774030551314354,9.681276321411133,0.009794834971715925,-0.0019312633050590406,-0.008438155693848261,1.550011157989502,2019-08-07 14:04:34:901,-152.02123986116908,-88.89582926705991,0,-22.041025161743164,40.93333435058594,-40.63345718383789
0.34654662013053894,-0.10634604096412659,9.793828964233398,-0.007519939882029623,-0.004062312325772837,0.0016843279347652483,1.5600457191467285,2019-08-07 14:04:34:911,-152.53799582228743,-90.70123324639124,0,-22.041025161743164,40.93333435058594,-40.63345718383789
0.47586309909820557,0.042128436267375946,9.681276321411133,0.0010042569160299579,-0.0005993576020943366,0.0008851845519975746,1.5700101852416992,2019-08-07 14:04:34:921,-153.0306207492577,-85.29275692974439,0,-22.041025161743164,40.93333435058594,-40.63345718383789
0.3297833800315857,-0.02492455393075943,9.769882202148438,0.004733593027372009,-0.0048614559686148365,-0.004975200515039691,1.5800318717956543,2019-08-07 14:04:34:931,-153.52860689571048,-87.18664205110767,0,-22.041025161743164,40.93333435058594,-40.63345718383789
0.3633098602294922,-0.06803005188703537,9.748329162597656,-0.0008604111071317767,-0.0075252672445070825,-0.0031105326219151193,1.59000825881958,2019-08-07 14:04:34:941,-154.01113200916797,-89.03443043193523,0,-22.041025161743164,40.93333435058594,-40.63345718383789
0.32020437717437744,-0.005766557063907385,9.812987327575684,0.004733593027372009,0.0009989292934781736,0.004614520598321043,1.6000440120697021,2019-08-07 14:04:34:951,-154.4940935380128,-90.85573584024671,0,-22.041025161743164,40.93333435058594,-40.63345718383789
0.3680993616580963,-0.06084579974412918,9.73396110534668,0.002336162618994662,-0.004062312325772837,8.60411123386422e-05,1.6100122928619385,2019-08-07 14:04:34:961,-154.9586246275136,-92.63276582996015,0,-22.64078140258789,40.63345718383789,-40.93333435058594
0.28667786717414856,-0.08239854872226715,9.73396110534668,0.002602543746583887,-0.006193361606560959,-0.002844151494325895,1.6200244426727295,2019-08-07 14:04:34:971,-155.4222313875381,-94.37187360296818,0,-22.64078140258789,40.63345718383789,-40.93333435058594
0.30583587288856506,-0.01774030551314354,9.75790786743164,-0.003524222448042604,-0.0019312633050590406,-0.0012458645987533845,1.6300122737884521,2019-08-07 14:04:34:981,-155.87679973092915,-96.08037637020645,0,-22.64078140258789,40.63345718383789,-40.93333435058594
0.30583587288856506,-0.00337180751375854,9.817776679992676,0.00020511348449834825,-0.00805802949968553,-0.003909676004682793,1.6400256156921387,2019-08-07 14:04:34:991,-156.31904798068356,-97.7584906153031,0,-22.64078140258789,40.63345718383789,-40.93333435058594
0.32020437717437744,-0.0656353011727333,9.784250259399414,0.00020511348449834825,0.0009989292934781736,-0.0023113892391474454,1.6500227451324463,2019-08-07 14:04:35:001,-156.7557393177874,-99.39574895570229,0,-22.64078140258789,40.63345718383789,-40.93333435058594
0.3297833800315857,0.001417691819369793,9.772276878356934,0.001803400363816213,-0.0048614559686148365,-0.0031105326219151193,1.660022258758545,2019-08-07 14:04:35:011,-157.17923861320682,-93.80901277539937,0,-22.64078140258789,40.63345718383789,-40.93333435058594
0.3417571187019348,-0.04887205362319946,9.817776679992676,0.0020697814914054373,-0.0019312633050590406,-0.0033769137495043436,1.6700303554534912,2019-08-07 14:04:35:021,-157.5946953031671,-95.5282914175617,0,-22.64078140258789,40.63345718383789,-40.93333435058594
0.30583587288856506,-0.02492455393075943,9.808197975158691,0.0012706381086377639,-0.004062312325772837,-0.005241581642628916,1.680027961730957,2019-08-07 14:04:35:031,-158.00480098625567,-97.21552689009563,0,-22.64078140258789,40.63345718383789,-40.93333435058594
0.3082306385040283,-0.041687801480293274,9.791434288024902,0.0010042569160299579,-0.0019312633050590406,-0.0023113892391474454,1.6900203227996826,2019-08-07 14:04:35:041,-158.4075603135543,-98.86690101417337,0,-22.64078140258789,40.63345718383789,-40.93333435058594
0.29865163564682007,-0.015345555730164051,9.808197975158691,0.004467211899782784,-0.002996787815415939,-0.00257777036673667,1.70001220703125,2019-08-07 14:04:35:051,-158.8028463621914,-100.4902764345052,0,-22.64078140258789,40.63345718383789,-40.93333435058594
1.6588695049285889,0.3989461362361908,9.611828804016113,0.011393121737251273,-0.013652033699207897,0.0016843279347652483,1.71002197265625,2019-08-07 14:04:35:061,-159.0232762976707,-94.93440917426273,0,-22.64078140258789,40.63345718383789,-40.93333435058594
-0.4676682651042938,0.14510267972946167,9.322063446044922,0.04628905205218295,0.013785224002928184,-0.017495114552030545,1.720024824142456,2019-08-07 14:04:35:071,-152.30799337572697,-89.47955496311944,0,-22.64078140258789,40.63345718383789,-40.93333435058594
1.2924727201461792,-0.08479329943656921,9.427433013916016,-0.02909681173690546,-0.014451176561826921,0.003548996087964146,1.730006217956543,2019-08-07 14:04:35:081,-152.6976060269262,-91.26334999457939,0,-21.441268920898438,39.733821868896484,-41.233211517333984
0.4543103575706482,-0.0464773029088974,9.868066787719727,0.0055327364101396825,-0.005127837096204061,-0.00897091742887806,1.7400357723236084,2019-08-07 14:04:35:091,-153.18804718774797,-93.03580172755333,0,-21.441268920898438,39.733821868896484,-41.233211517333984
0.784785807132721,0.01818094030022621,9.393906593322754,0.021781986233379683,0.008990363706322143,-0.012433872607686629,1.750009536743164,2019-08-07 14:04:35:101,-153.63381077445226,-87.58950196008855,0,-21.441268920898438,39.733821868896484,-41.233211517333984
0.6506798267364502,-0.04408255219459534,9.70522403717041,-0.009384607255005544,-0.0075252672445070825,0.00035242226430983473,1.7600328922271729,2019-08-07 14:04:35:111,-154.0801869706386,-89.42722528861688,0,-21.441268920898438,39.733821868896484,-41.233211517333984
0.770417332649231,-0.036898303776979446,9.63817024230957,0.004999974154961233,0.0004661670057904337,-0.0033769137495043436,1.7700097560882568,2019-08-07 14:04:35:121,-154.5074411222285,-91.23709481983781,0,-21.441268920898438,39.733821868896484,-41.233211517333984
0.46867886185646057,-0.01774030551314354,9.755513191223145,0.008462928813621153,-0.0021976444326482656,-0.005774343897807364,1.7800281047821045,2019-08-07 14:04:35:131,-154.96104575288655,-93.01502973159343,0,-21.441268920898438,39.733821868896484,-41.233211517333984
0.3752836287021637,-0.12071454524993896,9.808197975158691,-0.0013931734273288073,-0.002996787815415939,0.00061880342440835,1.7900416851043701,2019-08-07 14:04:35:141,-155.41631594033493,-94.73984314817794,0,-21.441268920898438,39.733821868896484,-41.233211517333984
0.5069948434829712,0.001417691819369793,9.707618713378906,0.0012706381086377639,-0.004328693453362062,-0.0012458645987533845,1.8000578880310059,2019-08-07 14:04:35:151,-155.84576230395538,-89.24592825127064,0,-21.441268920898438,39.733821868896484,-41.233211517333984
0.39683637022972107,-0.00337180751375854,9.75790786743164,0.006598260920496581,-0.0021976444326482656,-0.0033769137495043436,1.8100180625915527,2019-08-07 14:04:35:161,-156.28104136083016,-91.06430387908162,0,-21.441268920898438,39.733821868896484,-41.233211517333984
0.3824678659439087,-0.05126680061221123,9.702829360961914,0.0007378757884407334,-0.0016648821774698163,-0.0004467211834764202,1.820035457611084,2019-08-07 14:04:35:171,-156.70933754548577,-92.83737822518552,0,-21.441268920898438,39.733821868896484,-41.233211517333984
0.3417571187019348,-0.00816130731254816,9.777066230773926,0.0007378757884407334,-0.002996787815415939,-0.003909676004682793,1.8300092220306396,2019-08-07 14:04:35:181,-157.13343336657303,-94.58008734870424,0,-21.441268920898438,39.733821868896484,-41.233211517333984
0.35133612155914307,-0.020135056227445602,9.779460906982422,-6.126766340918298e-05,-0.00246402556023749,-0.0041760571322720175,1.8400425910949707,2019-08-07 14:04:35:191,-157.54822616244843,-96.28609174840102,0,-21.441268920898438,39.733821868896484,-41.233211517333984
0.3345728814601898,-0.05366155132651329,9.834540367126465,0.00047149462834221814,-0.0021976444326482656,-0.003643294877093568,1.8500068187713623,2019-08-07 14:04:35:201,-157.95706284816214,-97.95438115563974,0,-21.441268920898438,39.733821868896484,-41.233211517333984
0.3609151244163513,-0.005766557063907385,9.822566032409668,0.0007378757884407334,-0.0037959311981836125,-0.0041760571322720175,1.8600289821624756,2019-08-07 14:04:35:211,-158.3536994791766,-99.59503603174583,0,-22.490842819213867,40.483516693115234,-40.78339385986328
0.3489413857460022,-0.020135056227445602,9.741145133972168,0.0010042569160299579,-0.0037959311981836125,-0.0020450079815210586,1.8700084686279297,2019-08-07 14:04:35:221,-158.74346770307855,-101.20132942626545,0,-22.490842819213867,40.483516693115234,-40.78339385986328
0.33217811584472656,-0.029714053496718407,9.743539810180664,0.0015370192362269886,-0.004328693453362062,-0.00257777036673667,1.8800442218780518,2019-08-07 14:04:35:231,-159.1271075145153,-102.77467436605747,0,-22.490842819213867,40.483516693115234,-40.78339385986328
0.33217811584472656,-0.0009770578471943736,9.791434288024902,-0.0019259356825072562,-0.0037959311981836125,-0.003643294877093568,1.8900070190429688,2019-08-07 14:04:35:241,-159.50358116725977,-104.31798914414621,0,-22.490842819213867,40.483516693115234,-40.78339385986328
0.3369676172733307,-0.02492455393075943,9.827356338500977,-0.005122509213577951,-0.0019312633050590406,-0.004975200515039691,1.9000396728515625,2019-08-07 14:04:35:251,-159.8731449931084,-105.82583737413334,0,-22.490842819213867,40.483516693115234,-40.78339385986328
0.3082306385040283,0.025365188717842102,9.836935043334961,-0.00032764881944403687,-0.002996787815415939,-0.005241581642628916,1.9100117683410645,2019-08-07 14:04:35:261,-160.23810970804038,-100.11209197837478,0,-22.490842819213867,40.483516693115234,-40.78339385986328
0.32499387860298157,-0.03929305449128151,9.767487525939941,0.005799117537728906,-0.0016648821774698163,-0.006573487280575038,1.9200284481048584,2019-08-07 14:04:35:271,-160.59429710599179,-101.70850195470993,0,-22.490842819213867,40.483516693115234,-40.78339385986328
0.3225991129875183,-0.022529805079102516,9.781855583190918,0.0055327364101396825,-0.005127837096204061,-0.002844151494325895,1.930025339126587,2019-08-07 14:04:35:281,-160.9417549411315,-103.27479827805341,0,-22.490842819213867,40.483516693115234,-40.78339385986328
1.4361577033996582,0.38936713337898254,9.698039054870605,0.0055327364101396825,-0.0115209846784941,0.006479188491445616,1.940023422241211,2019-08-07 14:04:35:291,-161.147980766135,-97.65839107592365,0,-22.490842819213867,40.483516693115234,-40.78339385986328
-0.3575097918510437,0.16426067054271698,9.25979995727539,0.052948581802359514,0.014850748513285082,-0.019093400277268593,1.9500315189361572,2019-08-07 14:04:35:301,-154.3775870431469,-92.1553032813626,0,-22.490842819213867,40.483516693115234,-40.78339385986328
1.0817347764968872,-0.12789879739284515,9.475327491760254,-0.02829766783398914,-0.01205374693367255,0.004081758343142595,1.9600105285644531,2019-08-07 14:04:35:311,-154.75302376666497,-93.88087473621977,0,-22.490842819213867,40.483516693115234,-40.78339385986328
0.5069948434829712,-0.08718805015087128,9.86567211151123,0.007663785430853478,-0.00033297644199582136,-0.007639012311080588,1.9700512886047363,2019-08-07 14:04:35:321,-155.1989389565915,-95.59745120099413,0,-22.490842819213867,40.483516693115234,-40.78339385986328
0.784785807132721,0.0517074353992939,9.432222366333008,0.021249222937903933,0.0041955028895674495,-0.011101966449591856,1.9800066947937012,2019-08-07 14:04:35:331,-155.60218133919435,-90.10366222544872,0,-21.741147994995117,39.733821868896484,-40.63345718383789
0.4159943759441376,-0.015345555730164051,9.678881645202637,0.002602543746583887,0.002330834996442878,-0.0017786268539318336,1.9900238513946533,2019-08-07 14:04:35:341,-156.0422280275582,-91.90123600203688,0,-21.741147994995117,39.733821868896484,-40.63345718383789
0.7776015400886536,0.00620719138532877,9.619012832641602,0.004733593027372009,-0.004595074841025611,-0.00018034003963255039,2.000030517578125,2019-08-07 14:04:35:351,-156.42636674559844,-86.466610424128,0,-21.741147994995117,39.733821868896484,-40.63345718383789
0.46867886185646057,-0.020135056227445602,9.719592094421387,0.008729310461359028,-0.0005993576020943366,-0.0033769137495043436,2.0100228786468506,2019-08-07 14:04:35:361,-156.84228983100127,-88.3398020980148,0,-21.741147994995117,39.733821868896484,-40.63345718383789
0.37288886308670044,-0.10395129770040512,9.77467155456543,-0.004323365830810277,-0.00246402556023749,-0.0041760571322720175,2.0200464725494385,2019-08-07 14:04:35:371,-157.26036347270048,-90.15838668519936,0,-21.741147994995117,39.733821868896484,-40.63345718383789
0.41838911175727844,0.04691793769598007,9.712408065795898,0.00047149462834221814,-0.005127837096204061,0.002483471317532922,2.030008554458618,2019-08-07 14:04:35:381,-157.66295483247666,-84.76101824716059,0,-21.741147994995117,39.733821868896484,-40.63345718383789
0.4135996103286743,-0.03929305449128151,9.726776123046875,0.0015370192362269886,-0.004062312325772837,-0.005507962770218141,2.040022850036621,2019-08-07 14:04:35:391,-158.05871448350538,-86.66203304407203,0,-21.741147994995117,39.733821868896484,-40.63345718383789
0.43036285042762756,-0.05605630204081535,9.748329162597656,0.004999974154961233,-0.009922697912958753,0.001950709062354473,2.0500316619873047,2019-08-07 14:04:35:401,-158.44140739943037,-88.52501299302578,0,-21.741147994995117,39.733821868896484,-40.63345718383789
0.34654662013053894,0.020575689151883125,9.769882202148438,0.0034016871293515603,-0.005394218223793286,-0.0004467211834764202,2.060025215148926,2019-08-07 14:04:35:411,-158.8289227223693,-83.15883487635949,0,-21.741147994995117,39.733821868896484,-40.63345718383789
0.3369676172733307,-0.02492455393075943,9.78664493560791,0.003135306001762336,-0.0037959311981836125,0.005413663981088718,2.070042133331299,2019-08-07 14:04:35:421,-159.21076938587393,-85.09450322435899,0,-21.741147994995117,39.733821868896484,-40.63345718383789
0.35373085737228394,-0.03210880234837532,9.784250259399414,0.0028689248741731116,-0.007258886116917857,-0.0015122457263426093,2.080063819885254,2019-08-07 14:04:35:431,-159.58105895302006,-86.99046703318551,0,-21.741147994995117,39.733821868896484,-40.63345718383789
0.33217811584472656,-0.022529805079102516,9.779460906982422,0.002336162618994662,-0.010189078520399329,-0.00018034003963255039,2.0900192260742188,2019-08-07 14:04:35:441,-159.9448338746514,-88.84932365308899,0,-21.741147994995117,39.733821868896484,-40.63345718383789
0.32738861441612244,-0.04408255219459534,9.801013946533203,0.001803400363816213,-0.00805802949968553,0.002483471317532922,2.100033760070801,2019-08-07 14:04:35:451,-160.30314263226083,-90.6681972466311,0,-21.741147994995117,39.733821868896484,-40.63345718383789
0.32020437717437744,0.013391440734267235,9.762697219848633,0.005266355282550457,-0.005127837096204061,-0.003643294877093568,2.1100072860717773,2019-08-07 14:04:35:461,-160.65663698520405,-85.25935436996407,0,-22.940658569335938,40.93333435058594,-40.33357620239258
0.3369676172733307,0.008601941168308258,9.75790786743164,0.007397404303264255,-0.005926980478971734,-0.005241581642628916,2.1200459003448486,2019-08-07 14:04:35:471,-161.0006074789279,-79.95934711885572,0,-22.940658569335938,40.93333435058594,-40.33357620239258
0.33936238288879395,-0.029714053496718407,9.820171356201172,0.002602543746583887,-0.003529550070594388,0.0027498524451221467,2.1300134658813477,2019-08-07 14:04:35:481,-161.33903548307902,-81.95814943982275,0,-22.940658569335938,40.93333435058594,-40.33357620239258
0.3106253743171692,-0.05845104902982712,9.789039611816406,0.002602543746583887,-0.008857173402601856,-0.00604072502539659,2.140045642852783,2019-08-07 14:04:35:491,-161.67091553414807,-83.91361021604338,0,-22.940658569335938,40.93333435058594,-40.33357620239258
0.3297833800315857,-0.022529805079102516,9.769882202148438,-0.0019259356825072562,-0.009389935657780304,-0.006573487280575038,2.150012493133545,2019-08-07 14:04:35:501,-161.99357644747803,-85.83161765606617,0,-22.940658569335938,40.93333435058594,-40.33357620239258
0.3034411370754242,-0.036898303776979446,9.798619270324707,0.0012706381086377639,-0.0019312633050590406,-0.0033769137495043436,2.1600494384765625,2019-08-07 14:04:35:511,-162.31714142666087,-87.71138628820778,0,-22.940658569335938,40.93333435058594,-40.33357620239258
1.1392087936401367,0.3271036446094513,9.789039611816406,-0.008851844999827095,-0.00566059935138251,0.008077475256980963,2.1700103282928467,2019-08-07 14:04:35:521,-162.5348727824403,-82.39048456755742,0,-22.940658569335938,40.93333435058594,-40.33357620239258
-0.21143005788326263,0.1498921662569046,9.199931144714355,0.06413658812080965,0.018580084299534227,-0.024953786124528834,2.1800293922424316,2019-08-07 14:04:35:531,-155.72095836113283,-77.19742460041034,0,-22.940658569335938,40.93333435058594,-40.33357620239258
0.9596025347709656,-0.1638200432062149,9.516037940979004,-0.026965762716191666,-0.013385652051470022,0.005413663981088718,2.1900110244750977,2019-08-07 14:04:35:541,-156.08387152369642,-79.21863751734492,0,-22.940658569335938,40.93333435058594,-40.33357620239258
0.5764425992965698,-0.029714053496718407,9.915961265563965,0.002336162618994662,0.0007325481658889489,-0.010302823586972834,2.200026273727417,2019-08-07 14:04:35:551,-156.4960656513194,-81.23214469248273,0,-22.940658569335938,40.93333435058594,-40.33357620239258
0.6315218210220337,-0.01774030551314354,9.410669326782227,0.024978559764450375,0.0012653104860859794,-0.01296663486286508,2.210024356842041,2019-08-07 14:04:35:561,-156.89007083390902,-83.21936434373809,0,-22.940658569335938,40.93333435058594,-40.33357620239258
0.5668635964393616,-0.015345555730164051,9.731565475463867,0.003668068256940785,-0.006193361606560959,-0.010302823586972834,2.220079183578491,2019-08-07 14:04:35:571,-157.28209855633543,-85.15524098924769,0,-22.940658569335938,40.93333435058594,-40.33357620239258
0.7033643126487732,-0.00816130731254816,9.693249702453613,0.0012706381086377639,-6.659528596096748e-05,-0.004442438259861242,2.230013608932495,2019-08-07 14:04:35:581,-157.6534146649891,-87.05188014017735,0,-22.490842819213867,39.88376235961914,-41.08327102661133
0.49023160338401794,0.0038124416023492813,9.575906753540039,0.011659502344691848,0.0012653104860859794,-0.007106249535753488,2.240030288696289,2019-08-07 14:04:35:591,-158.04244487879666,-81.7178564736295,0,-22.490842819213867,39.88376235961914,-41.08327102661133
0.4423366189002991,-0.10634604096412659,9.686065673828125,-6.126766340918298e-05,-0.005127837096204061,-0.009770061331794384,2.2500088214874268,2019-08-07 14:04:35:601,-158.42642833295503,-83.67088419204046,0,-22.490842819213867,39.88376235961914,-41.08327102661133
0.5285475850105286,-0.03210880234837532,9.724381446838379,0.003668068256940785,-0.0075252672445070825,0.00061880342440835,2.2600483894348145,2019-08-07 14:04:35:611,-158.79143509741414,-85.59575060371584,0,-22.490842819213867,39.88376235961914,-41.08327102661133
0.37767836451530457,-0.020135056227445602,9.729170799255371,-0.0005940299795425521,-0.005926980478971734,-0.0031105326219151193,2.2700138092041016,2019-08-07 14:04:35:621,-159.16782874100514,-87.48113166582236,0,-22.490842819213867,39.88376235961914,-41.08327102661133
0.39923110604286194,-0.05366155132651329,9.738750457763672,0.002336162618994662,-0.006193361606560959,-0.0007131023435749355,2.2800137996673584,2019-08-07 14:04:35:631,-159.5340451390814,-89.32650673044722,0,-22.490842819213867,39.88376235961914,-41.08327102661133
0.3609151244163513,0.00620719138532877,9.77467155456543,0.004200830512119234,-0.0013985010498805918,-0.0012458645987533845,2.2899906635284424,2019-08-07 14:04:35:641,-159.900288790294,-83.94305758772816,0,-22.490842819213867,39.88376235961914,-41.08327102661133
0.3800731301307678,-0.036898303776979446,9.789039611816406,-0.0011267922997395827,-0.006193361606560959,-0.0009794834711641602,2.3000071048736572,2019-08-07 14:04:35:651,-160.25433029685445,-85.85924336841019,0,-22.490842819213867,39.88376235961914,-41.08327102661133
0.34415188431739807,-0.0464773029088974,9.791434288024902,-6.126766340918298e-05,-0.003529550070594388,-0.009770061331794384,2.3099892139434814,2019-08-07 14:04:35:661,-160.6070050329819,-87.7365848488822,0,-22.490842819213867,39.88376235961914,-41.08327102661133
0.35133612155914307,0.013391440734267235,9.777066230773926,0.004999974154961233,-0.006193361606560959,-0.00018034003963255039,2.3200318813323975,2019-08-07 14:04:35:671,-160.9502120871145,-82.38624214472223,0,-22.490842819213867,39.88376235961914,-41.08327102661133
0.3680993616580963,-0.020135056227445602,9.829751014709473,-0.00272507906527493,-0.006992504989328633,-0.0020450079815210586,2.3299829959869385,2019-08-07 14:04:35:681,-161.28440915261672,-84.33464738749888,0,-22.490842819213867,39.88376235961914,-41.08327102661133
0.34654662013053894,-0.0464773029088974,9.801013946533203,0.003668068256940785,-0.006726123861739408,-0.0007131023435749355,2.340013265609741,2019-08-07 14:04:35:691,-161.61443214022583,-86.24458629384934,0,-22.490842819213867,39.88376235961914,-41.08327102661133
0.31302013993263245,-0.03450355306267738,9.78664493560791,0.0012706381086377639,-0.006459742734150184,-0.0007131023435749355,2.3499643802642822,2019-08-07 14:04:35:701,-161.941895139624,-88.11636454686676,0,-22.490842819213867,39.88376235961914,-41.08327102661133
0.30104637145996094,0.02297043986618519,9.789039611816406,0.001803400363816213,-0.004062312325772837,-0.005774343897807364,2.360037088394165,2019-08-07 14:04:35:711,-162.2655299583798,-82.75774616491472,0,-21.14139175415039,38.234432220458984,-41.53308868408203
0.3417571187019348,-0.03929305449128151,9.77467155456543,0.0028689248741731116,-0.00859079175486398,-0.0033769137495043436,2.3699824810028076,2019-08-07 14:04:35:721,-162.57537303091095,-84.69958691838411,0,-21.14139175415039,38.234432220458984,-41.53308868408203
0.3345728814601898,-0.02492455393075943,9.793828964233398,-0.0005940299795425521,-0.005926980478971734,-0.0017786268539318336,2.379978656768799,2019-08-07 14:04:35:731,-162.88140775732157,-86.60234549834055,0,-21.14139175415039,38.234432220458984,-41.53308868408203
0.3034411370754242,-0.0464773029088974,9.860882759094238,-0.0008604111071317767,-0.006459742734150184,-0.004708819387450467,2.3900058269500732,2019-08-07 14:04:35:741,-163.18489138131966,-88.46441315161789,0,-21.14139175415039,38.234432220458984,-41.53308868408203
1.8743969202041626,0.4755781292915344,9.480116844177246,-0.0032578413204533796,-0.00805802949968553,0.016335291252544227,2.399979829788208,2019-08-07 14:04:35:751,-163.2929967623416,-83.15073805099179,0,-21.14139175415039,38.234432220458984,-41.53308868408203
-0.005481582134962082,0.15468166768550873,8.998772621154785,0.08571345685479358,0.04015695719470737,-0.04040389464559577,2.409996747970581,2019-08-07 14:04:35:761,-156.45042108298497,-77.95562813138103,0,-21.14139175415039,38.234432220458984,-41.53308868408203
1.3978416919708252,-0.099161796271801,9.415458679199219,-0.028564050522024317,-0.013119271444029449,0.0027498524451221467,2.4199748039245605,2019-08-07 14:04:35:771,-156.74517062476818,-79.96844397262193,0,-21.14139175415039,38.234432220458984,-41.53308868408203
0.6027848124504089,-0.05126680061221123,9.86567211151123,0.0012706381086377639,0.004994646272335123,0.0032826149603749208,2.4299774169921875,2019-08-07 14:04:35:781,-157.14314481967534,-81.96383406351327,0,-21.14139175415039,38.234432220458984,-41.53308868408203
0.6913905739784241,0.025365188717842102,9.410669326782227,0.02284751074373658,-6.659528596096748e-05,-0.00950367968405651,2.4399852752685547,2019-08-07 14:04:35:791,-157.5162064445219,-76.74048496299105,0,-21.14139175415039,38.234432220458984,-41.53308868408203
0.5046001076698303,-0.00337180751375854,9.760302543640137,-0.0016595545549180318,-0.0048614559686148365,0.0027498524451221467,2.4499924182891846,2019-08-07 14:04:35:801,-157.90396041062598,-78.80434689093643,0,-21.14139175415039,38.234432220458984,-41.53308868408203
0.7057590484619141,-0.029714053496718407,9.602249145507812,0.002336162618994662,0.0007325481658889489,0.003016233572711371,2.460000514984131,2019-08-07 14:04:35:811,-158.26221998593294,-80.8260267555672,0,-21.14139175415039,38.234432220458984,-41.53308868408203
0.49023160338401794,-0.01774030551314354,9.647749900817871,0.004999974154961233,-0.004328693453362062,-0.005241581642628916,2.4699833393096924,2019-08-07 14:04:35:821,-158.6363717748515,-82.81020176716221,0,-21.14139175415039,38.234432220458984,-41.53308868408203
0.41120487451553345,-0.13508303463459015,9.702829360961914,0.00393444938453001,-0.003529550070594388,-0.0041760571322720175,2.4799888134002686,2019-08-07 14:04:35:831,-159.01312667941642,-84.74025569402285,0,-22.041025161743164,39.43394470214844,-40.93333435058594
0.4782578647136688,-0.0009770578471943736,9.700433731079102,0.0028689248741731116,-0.003263168943005164,0.0032826149603749208,2.489995002746582,2019-08-07 14:04:35:841,-159.3745796899848,-86.6469470544146,0,-22.041025161743164,39.43394470214844,-40.93333435058594
0.39923110604286194,0.010996690951287746,9.772276878356934,0.0020697814914054373,-0.002996787815415939,0.00061880342440835,2.4999897480010986,2019-08-07 14:04:35:851,-159.73861771529604,-81.31645917426751,0,-22.041025161743164,39.43394470214844,-40.93333435058594
0.34654662013053894,-0.08000379800796509,9.762697219848633,0.0020697814914054373,-0.007791648372096307,-0.0033769137495043436,2.5100111961364746,2019-08-07 14:04:35:861,-160.0988014651245,-83.28190427160638,0,-22.041025161743164,39.43394470214844,-40.93333435058594
0.3369676172733307,0.025365188717842102,9.791434288024902,0.004733593027372009,-0.005394218223793286,-0.0017786268539318336,2.519993782043457,2019-08-07 14:04:35:871,-160.4543812744796,-78.02188800737578,0,-22.041025161743164,39.43394470214844,-40.93333435058594
0.3752836287021637,-0.06084579974412918,9.77467155456543,-0.00032764881944403687,-0.010189078520399329,-0.00018034003963255039,2.529979944229126,2019-08-07 14:04:35:881,-160.7956063264075,-80.05413347447092,0,-22.041025161743164,39.43394470214844,-40.93333435058594
0.2818883955478668,-0.09676704555749893,9.798619270324707,0.0012706381086377639,-0.005926980478971734,0.002483471317532922,2.539999485015869,2019-08-07 14:04:35:891,-161.14340289458974,-82.04244944783846,0,-22.041025161743164,39.43394470214844,-40.93333435058594
0.3489413857460022,-0.05605630204081535,9.743539810180664,0.0020697814914054373,-0.004595074841025611,-0.004975200515039691,2.550010919570923,2019-08-07 14:04:35:901,-161.4769310851183,-83.99617138562498,0,-22.041025161743164,39.43394470214844,-40.93333435058594
0.3345728814601898,-0.029714053496718407,9.872856140136719,-0.00032764881944403687,-0.004062312325772837,-0.0017786268539318336,2.559992551803589,2019-08-07 14:04:35:911,-161.80629755993968,-85.91261550241511,0,-22.041025161743164,39.43394470214844,-40.93333435058594
0.28667786717414856,-0.0464773029088974,9.796224594116211,0.0010042569160299579,-0.005127837096204061,-0.0015122457263426093,2.570009708404541,2019-08-07 14:04:35:921,-162.1337627547584,-87.78949139645938,0,-22.041025161743164,39.43394470214844,-40.93333435058594
0.3345728814601898,-0.02492455393075943,9.81538200378418,0.0071310231756750294,-0.002996787815415939,8.60411123386422e-05,2.5800113677978516,2019-08-07 14:04:35:931,-162.45035929314074,-89.63479643419066,0,-22.041025161743164,39.43394470214844,-40.93333435058594
0.3178096413612366,-0.02492455393075943,9.796224594116211,0.0010042569160299579,-0.0016648821774698163,-0.0017786268539318336,2.5900096893310547,2019-08-07 14:04:35:941,-162.7632546144781,-91.43974875070276,0,-22.041025161743164,39.43394470214844,-40.93333435058594
0.31302013993263245,-0.03450355306267738,9.793828964233398,0.004999974154961233,-0.00033297644199582136,-0.003909676004682793,2.6000301837921143,2019-08-07 14:04:35:951,-163.07119007810041,-93.20972997667309,0,-22.041025161743164,39.43394470214844,-40.93333435058594
0.3225991129875183,-0.01774030551314354,9.78664493560791,0.0010042569160299579,-0.0048614559686148365,-0.004442438259861242,2.610001564025879,2019-08-07 14:04:35:961,-163.36928501781915,-94.94402044692853,0,-22.041025161743164,39.43394470214844,-40.93333435058594
0.3154148757457733,-0.08718805015087128,9.796224594116211,0.001803400363816213,-0.0021976444326482656,-0.004442438259861242,2.619999408721924,2019-08-07 14:04:35:971,-163.6637826243729,-96.63595385396329,0,-22.041025161743164,39.43394470214844,-40.93333435058594
1.6516852378845215,0.4181041419506073,9.539985656738281,-0.011515657316016642,-0.003529550070594388,0.01793357697778227,2.630011558532715,2019-08-07 14:04:35:981,-163.79207445191278,-91.14695024226845,0,-22.041025161743164,39.43394470214844,-40.93333435058594
0.2387828826904297,0.14031317830085754,9.032299041748047,0.08891003246645889,0.04122248378565887,-0.04493237121386933,2.6400129795074463,2019-08-07 14:04:35:991,-164.10909561284188,-85.79174110540066,0,-22.041025161743164,39.43394470214844,-40.93333435058594
1.318814992904663,-0.11353029310703278,9.472932815551758,-0.02430195248059672,-0.013119271444029449,-0.0020450079815210586,2.6500039100646973,2019-08-07 14:04:36:001,-164.2610392431885,-87.64854034440245,0,-22.041025161743164,39.43394470214844,-40.93333435058594
0.6458903551101685,-0.07521429657936096,9.882434844970703,0.004999974154961233,-0.0008657387296835611,-0.0031105326219151193,2.6600005626678467,2019-08-07 14:04:36:011,-164.500544800286,-89.48965478736179,0,-22.041025161743164,39.43394470214844,-40.93333435058594
0.4782578647136688,-0.020135056227445602,9.48730182647705,0.026576847570283026,0.0012653104860859794,-0.014298541020959853,2.6700010299682617,2019-08-07 14:04:36:021,-164.75352729994512,-91.31235326091117,0,-22.041025161743164,39.43394470214844,-40.93333435058594
0.6003900766372681,-0.041687801480293274,9.686065673828125,-0.002192316810096481,-0.004595074841025611,-0.006573487280575038,2.6800003051757812,2019-08-07 14:04:36:031,-164.9849380772041,-93.07994343304372,0,-22.041025161743164,39.43394470214844,-40.93333435058594
0.8135228157043457,0.013391440734267235,9.573512077331543,0.002336162618994662,0.0009989292934781736,-0.00018034003963255039,2.690009593963623,2019-08-07 14:04:36:041,-165.18865829877524,-87.62126044209658,0,-22.041025161743164,39.43394470214844,-40.93333435058594
0.5453108549118042,-0.022529805079102516,9.65493392944336,0.006065498665318131,-0.003529550070594388,-0.0041760571322720175,2.700011730194092,2019-08-07 14:04:36:051,-165.41825022595998,-89.46956773888732,0,-22.041025161743164,39.43394470214844,-40.93333435058594
0.4279681146144867,-0.10874079167842865,9.707618713378906,0.003135306001762336,-0.003529550070594388,-0.007106249535753488,2.7100331783294678,2019-08-07 14:04:36:061,-165.65741322082016,-91.26910508707377,0,-22.041025161743164,39.43394470214844,-40.93333435058594
0.4806526005268097,-0.01774030551314354,9.700433731079102,0.002336162618994662,-0.0013985010498805918,-0.0007131023435749355,2.720004081726074,2019-08-07 14:04:36:071,-165.88674872636184,-93.04293525462369,0,-22.041025161743164,39.43394470214844,-40.93333435058594
0.42557334899902344,-0.041687801480293274,9.777066230773926,-0.0013931734273288073,-0.003263168943005164,0.0014179468071760237,2.7300150394439697,2019-08-07 14:04:36:081,-166.11733185791803,-94.77640746146955,0,-20.69157600402832,39.88376235961914,-40.483516693115234
0.37049412727355957,-0.0464773029088974,9.736355781555176,0.0055327364101396825,-0.005394218223793286,-0.0041760571322720175,2.740009069442749,2019-08-07 14:04:36:091,-166.34837408779566,-96.47851399986341,0,-20.69157600402832,39.88376235961914,-40.483516693115234
0.37049412727355957,-0.00816130731254816,9.805803298950195,0.00393444938453001,-0.00566059935138251,-0.0015122457263426093,2.7500364780426025,2019-08-07 14:04:36:101,-166.5749437612492,-98.15020522492676,0,-20.69157600402832,39.88376235961914,-40.483516693115234
0.3752836287021637,0.001417691819369793,9.78664493560791,0.002602543746583887,-0.005394218223793286,-0.00257777036673667,2.760004997253418,2019-08-07 14:04:36:111,-166.79650523618105,-92.58882384198263,0,-20.69157600402832,39.88376235961914,-40.483516693115234
0.3106253743171692,-0.01774030551314354,9.791434288024902,0.0028689248741731116,-0.00912355401004243,-0.0041760571322720175,2.770005702972412,2019-08-07 14:04:36:121,-167.01911084494367,-94.33658218700955,0,-20.69157600402832,39.88376235961914,-40.483516693115234
0.37049412727355957,-0.0464773029088974,9.81538200378418,0.0028689248741731116,-0.005926980478971734,-0.003643294877093568,2.7800111770629883,2019-08-07 14:04:36:131,-167.23216529256942,-96.04603628122021,0,-20.69157600402832,39.88376235961914,-40.483516693115234
0.33936238288879395,-0.010556057095527649,9.848908424377441,0.002602543746583887,-0.003529550070594388,-0.0017786268539318336,2.790013074874878,2019-08-07 14:04:36:141,-167.44607074405005,-97.72534896618431,0,-20.69157600402832,39.88376235961914,-40.483516693115234
0.3609151244163513,-0.020135056227445602,9.841724395751953,0.004200830512119234,-0.005394218223793286,-0.0041760571322720175,2.800004482269287,2019-08-07 14:04:36:151,-167.6521189607581,-99.37085431012197,0,-20.69157600402832,39.88376235961914,-40.483516693115234
0.30583587288856506,-0.05126680061221123,9.793828964233398,0.0015370192362269886,-0.002996787815415939,0.00035242226430983473,2.810028553009033,2019-08-07 14:04:36:161,-167.86161749236376,-100.9783039778028,0,-20.69157600402832,39.88376235961914,-40.483516693115234
0.32020437717437744,0.00620719138532877,9.798619270324707,0.001803400363816213,-0.0048614559686148365,-0.003643294877093568,2.820005178451538,2019-08-07 14:04:36:171,-168.0642283175736,-95.36047404824618,0,-20.69157600402832,39.88376235961914,-40.483516693115234
0.34654662013053894,-0.0464773029088974,9.827356338500977,0.003668068256940785,-0.005394218223793286,-0.00604072502539659,2.8300065994262695,2019-08-07 14:04:36:181,-168.25952225939636,-97.04990504536795,0,-20.69157600402832,39.88376235961914,-40.483516693115234
0.30104637145996094,-0.02492455393075943,9.834540367126465,0.0020697814914054373,-0.004595074841025611,-0.0033769137495043436,2.8400118350982666,2019-08-07 14:04:36:191,-168.45668351683426,-98.70716554243162,0,-20.69157600402832,39.88376235961914,-40.483516693115234
0.27949362993240356,-0.03450355306267738,9.820171356201172,0.004200830512119234,-0.009922697912958753,-0.003909676004682793,2.850010633468628,2019-08-07 14:04:36:201,-168.64937363073608,-100.33135450644565,0,-20.69157600402832,39.88376235961914,-40.483516693115234
1.3379729986190796,0.4396568834781647,9.657328605651855,-0.03309252917089248,-0.0016648821774698163,0.028056060866470108,2.8600361347198486,2019-08-07 14:04:36:211,-168.71769250451035,-94.75823126232069,0,-22.64078140258789,40.33357620239258,-40.93333435058594
0.875786304473877,0.17383967339992523,8.675480842590332,0.10009803878490901,0.03962419597982622,-0.04759618561065348,2.8700032234191895,2019-08-07 14:04:36:221,-168.85022521584216,-89.34204540734123,0,-22.64078140258789,40.33357620239258,-40.93333435058594
1.048208236694336,-0.1781885325908661,9.410669326782227,-0.014712230847087336,-0.0048614559686148365,-0.004442438259861242,2.8800041675567627,2019-08-07 14:04:36:231,-168.94337680095887,-91.1252478057683,0,-22.64078140258789,40.33357620239258,-40.93333435058594
0.8973390460014343,-0.06803005188703537,9.690855026245117,-0.0013931734273288073,0.006326551910281247,-0.005241581642628916,2.890012502670288,2019-08-07 14:04:36:241,-169.06225853733847,-92.89391570782419,0,-22.64078140258789,40.33357620239258,-40.93333435058594
0.9476287961006165,0.0972076803445816,9.35798454284668,0.015655219778678866,0.0009989292934781736,-0.007905393438669812,2.900007963180542,2019-08-07 14:04:36:251,-169.16592800635945,-87.4567267558383,0,-22.64078140258789,40.33357620239258,-40.93333435058594
0.3872573673725128,-0.0009770578471943736,9.700433731079102,0.020183698427547032,0.0017980727412644285,-0.007639012311080588,2.9100308418273926,2019-08-07 14:04:36:261,-169.33789880442814,-89.3188358483855,0,-22.64078140258789,40.33357620239258,-40.93333435058594
0.8949443101882935,0.05410218611359596,9.537590980529785,-0.0005940299795425521,-0.00566059935138251,0.005946426236267168,2.9200053215026855,2019-08-07 14:04:36:271,-169.4407593173658,-83.93862659626502,0,-22.64078140258789,40.33357620239258,-40.93333435058594
0.5261528491973877,-0.020135056227445602,9.743539810180664,0.004999974154961233,-0.004328693453362062,-0.0023113892391474454,2.9300034046173096,2019-08-07 14:04:36:281,-169.58769444208656,-85.8602929699955,0,-22.64078140258789,40.33357620239258,-40.93333435058594
0.42317861318588257,-0.1255040466785431,9.693249702453613,0.013790551365405645,-0.004595074841025611,-0.007372630663342713,2.9400408267974854,2019-08-07 14:04:36:291,-169.74335523073003,-87.73602346841545,0,-22.64078140258789,40.33357620239258,-40.93333435058594
0.4662840962409973,0.05410218611359596,9.738750457763672,0.0028689248741731116,-0.0075252672445070825,-0.003909676004682793,2.950012445449829,2019-08-07 14:04:36:301,-169.8894509762316,-82.38927522341017,0,-22.64078140258789,40.33357620239258,-40.93333435058594
0.42317861318588257,-0.00816130731254816,9.801013946533203,0.001803400363816213,-0.0005993576020943366,0.0008851845519975746,2.9600253105163574,2019-08-07 14:04:36:311,-170.04187847218415,-84.34154942447553,0,-22.64078140258789,40.33357620239258,-40.93333435058594
0.36570462584495544,-0.036898303776979446,9.77467155456543,-0.002192316810096481,-0.006193361606560959,-0.0033769137495043436,2.9700112342834473,2019-08-07 14:04:36:321,-170.19471551364688,-86.24916350180305,0,-22.64078140258789,40.33357620239258,-40.93333435058594
0.33936238288879395,-0.0009770578471943736,9.805803298950195,0.002602543746583887,-0.005926980478971734,0.0032826149603749208,2.980001449584961,2019-08-07 14:04:36:331,-170.34785407626345,-88.12552594675905,0,-21.14139175415039,40.63345718383789,-40.93333435058594
0.3345728814601898,-0.03929305449128151,9.798619270324707,0.00393444938453001,-0.006726123861739408,-0.0031105326219151193,2.990002155303955,2019-08-07 14:04:36:341,-170.4980080399941,-89.96062960567906,0,-21.14139175415039,40.63345718383789,-40.93333435058594
0.34415188431739807,-0.036898303776979446,9.779460906982422,0.0015370192362269886,-0.007258886116917857,-0.00257777036673667,3.000000476837158,2019-08-07 14:04:36:351,-170.64366309083908,-91.75795633730247,0,-21.14139175415039,40.63345718383789,-40.93333435058594
0.3034411370754242,0.0038124416023492813,9.721986770629883,0.0012706381086377639,-0.0048614559686148365,-0.0012458645987533845,3.0100083351135254,2019-08-07 14:04:36:361,-170.7923034515135,-86.32396059937341,0,-21.14139175415039,40.63345718383789,-40.93333435058594
0.3824678659439087,-0.02492455393075943,9.736355781555176,0.00393444938453001,-0.007791648372096307,0.00035242226430983473,3.0200483798980713,2019-08-07 14:04:36:371,-170.92707362877465,-88.19676594533682,0,-21.14139175415039,40.63345718383789,-40.93333435058594
0.35133612155914307,-0.03929305449128151,9.721986770629883,-0.004056984703221053,-0.006459742734150184,-0.0015122457263426093,3.0300121307373047,2019-08-07 14:04:36:381,-171.0635247339436,-90.02592950603872,0,-21.14139175415039,40.63345718383789,-40.93333435058594
0.3178096413612366,-0.036898303776979446,9.779460906982422,0.00393444938453001,-0.0027304066878267143,-0.0015122457263426093,3.040010690689087,2019-08-07 14:04:36:391,-171.203494861042,-91.82329622014456,0,-21.14139175415039,40.63345718383789,-40.93333435058594
0.32499387860298157,-0.06803005188703537,9.812987327575684,0.00393444938453001,-0.0037959311981836125,-0.0041760571322720175,3.050006866455078,2019-08-07 14:04:36:401,-171.339356942755,-93.58109452913388,0,-21.14139175415039,40.63345718383789,-40.93333435058594
0.33936238288879395,-0.03210880234837532,9.824960708618164,0.001803400363816213,-0.004328693453362062,-0.004975200515039691,3.0600218772888184,2019-08-07 14:04:36:411,-171.47057044406174,-95.30674182969895,0,-21.14139175415039,40.63345718383789,-40.93333435058594
0.3824678659439087,-0.05845104902982712,9.74593448638916,0.001803400363816213,-0.005127837096204061,0.0014179468071760237,3.070003032684326,2019-08-07 14:04:36:421,-171.59333812721965,-96.99474516808418,0,-21.14139175415039,40.63345718383789,-40.93333435058594
0.3154148757457733,-0.03210880234837532,9.822566032409668,-0.0037906035756318283,-0.00246402556023749,-0.008171774566259036,3.0800111293792725,2019-08-07 14:04:36:431,-171.72330255483394,-98.64897427396349,0,-21.14139175415039,40.63345718383789,-40.93333435058594
0.9619972705841064,0.34386688470840454,9.791434288024902,-0.03842015172267697,0.006859314685608345,0.033650066106289775,3.0900111198425293,2019-08-07 14:04:36:441,-171.78046326480862,-93.09464899912899,0,-21.14139175415039,40.63345718383789,-40.93333435058594
1.2373934984207153,0.14031317830085754,8.747323989868164,0.08811089272473176,0.03403019074000656,-0.04200217829023921,3.100001811981201,2019-08-07 14:04:36:451,-171.80291174573097,-87.70056382475656,0,-21.14139175415039,40.63345718383789,-40.93333435058594
0.7799963355064392,-0.18297803401947021,9.444195747375488,-0.01204841957119509,-0.007791648372096307,-0.0031105326219151193,3.1100056171417236,2019-08-07 14:04:36:461,-171.86804996181093,-89.51758586101303,0,-21.291330337524414,39.58388137817383,-41.08327102661133
0.9404445290565491,-0.08718805015087128,9.650144577026367,-0.0008604111071317767,0.0041955028895674495,-0.0017786268539318336,3.119994878768921,2019-08-07 14:04:36:471,-171.92171975413905,-91.3163985967267,0,-21.291330337524414,39.58388137817383,-41.08327102661133
0.981155276298523,0.11636567860841751,9.410669326782227,0.015122457523500417,-0.0019312633050590406,-0.008438155693848261,3.130014181137085,2019-08-07 14:04:36:481,-171.9631559334838,-85.91274711352881,0,-21.291330337524414,39.58388137817383,-41.08327102661133
0.36570462584495544,-0.027319304645061493,9.592670440673828,0.018585412702308988,0.006060170782692022,-0.008438155693848261,3.140005111694336,2019-08-07 14:04:36:491,-172.08362752384784,-87.80165490599386,0,-21.291330337524414,39.58388137817383,-41.08327102661133
0.9093127846717834,0.03973368555307388,9.551959991455078,-0.0005940299795425521,-0.00805802949968553,-0.0020450079815210586,3.1500275135040283,2019-08-07 14:04:36:501,-172.12866090520387,-82.45005419892657,0,-21.291330337524414,39.58388137817383,-41.08327102661133
0.5189685821533203,0.02297043986618519,9.628591537475586,0.005266355282550457,-0.0048614559686148365,0.00035242226430983473,3.1600027084350586,2019-08-07 14:04:36:511,-172.22166109969766,-77.20673657849356,0,-21.291330337524414,39.58388137817383,-41.08327102661133
0.43754711747169495,-0.14226728677749634,9.729170799255371,0.008196547686031928,-0.0005993576020943366,-0.0041760571322720175,3.170003652572632,2019-08-07 14:04:36:521,-172.32539108670815,-79.25044938236981,0,-21.291330337524414,39.58388137817383,-41.08327102661133
0.38486263155937195,0.034944187849760056,9.74593448638916,0.004733593027372009,-0.002996787815415939,-0.0012458645987533845,3.1799988746643066,2019-08-07 14:04:36:531,-172.4319731783305,-74.0722057100163,0,-21.291330337524414,39.58388137817383,-41.08327102661133
0.4878368675708771,-0.03450355306267738,9.820171356201172,0.001803400363816213,-0.005394218223793286,0.001950709062354473,3.1900272369384766,2019-08-07 14:04:36:541,-172.52341736216493,-76.18775087233169,0,-21.291330337524414,39.58388137817383,-41.08327102661133
0.38486263155937195,-0.06324055045843124,9.71719741821289,0.005799117537728906,-0.00859079175486398,0.0016843279347652483,3.2000062465667725,2019-08-07 14:04:36:551,-172.62277360813493,-78.25978758181704,0,-21.291330337524414,39.58388137817383,-41.08327102661133
0.3417571187019348,-0.005766557063907385,9.707618713378906,0.0020697814914054373,-0.005127837096204061,-0.0020450079815210586,3.210005044937134,2019-08-07 14:04:36:561,-172.72711385678264,-80.29507316890752,0,-21.291330337524414,39.58388137817383,-41.08327102661133
0.3752836287021637,-0.03210880234837532,9.839329719543457,-0.0011267922997395827,-0.003263168943005164,-0.005774343897807364,3.2200114727020264,2019-08-07 14:04:36:571,-172.82705274175748,-82.28479913973028,0,-21.291330337524414,39.58388137817383,-41.08327102661133
0.32020437717437744,-0.036898303776979446,9.81538200378418,0.007930166558442704,-0.0008657387296835611,-0.0023113892391474454,3.2300078868865967,2019-08-07 14:04:36:581,-172.932656129204,-84.23924659505866,0,-21.591209411621094,39.58388137817383,-40.78339385986328
0.3561256229877472,-0.010556057095527649,9.769882202148438,0.003135306001762336,-0.007791648372096307,-0.003909676004682793,3.240025758743286,2019-08-07 14:04:36:591,-173.0278684761259,-86.1549871534448,0,-21.591209411621094,39.58388137817383,-40.78339385986328
0.32499387860298157,0.0038124416023492813,9.812987327575684,0.0010042569160299579,-0.004328693453362062,-0.003909676004682793,3.2500088214874268,2019-08-07 14:04:36:601,-173.12694724184877,-80.83289554359247,0,-21.591209411621094,39.58388137817383,-40.78339385986328
0.33936238288879395,-0.012950805947184563,9.810592651367188,-0.0013931734273288073,-0.006193361606560959,-0.008171774566259036,3.260010242462158,2019-08-07 14:04:36:611,-173.22130718403542,-82.81394255267341,0,-21.591209411621094,39.58388137817383,-40.78339385986328
0.3034411370754242,-0.027319304645061493,9.824960708618164,0.0007378757884407334,-0.004328693453362062,-0.007106249535753488,3.270014762878418,2019-08-07 14:04:36:621,-173.31906935314925,-84.75489187827671,0,-21.591209411621094,39.58388137817383,-40.78339385986328
0.29386213421821594,-0.015345555730164051,9.805803298950195,0.004467211899782784,-0.007791648372096307,-0.007106249535753488,3.280014991760254,2019-08-07 14:04:36:631,-173.41398212971274,-86.66050913660987,0,-21.591209411621094,39.58388137817383,-40.78339385986328
0.27949362993240356,-0.012950805947184563,9.781855583190918,-0.0013931734273288073,-0.006193361606560959,-0.003909676004682793,3.2900214195251465,2019-08-07 14:04:36:641,-173.50948973735976,-88.52499903816083,0,-21.591209411621094,39.58388137817383,-40.78339385986328
0.2818883955478668,-0.020135056227445602,9.77467155456543,0.0020697814914054373,-0.006992504989328633,-0.0012458645987533845,3.300013542175293,2019-08-07 14:04:36:651,-173.60233924405603,-90.35329982856024,0,-21.591209411621094,39.58388137817383,-40.78339385986328
0.31302013993263245,-0.05605630204081535,9.791434288024902,0.0020697814914054373,-0.005127837096204061,-0.007106249535753488,3.310014247894287,2019-08-07 14:04:36:661,-173.69079193926493,-92.14083575853836,0,-21.591209411621094,39.58388137817383,-40.78339385986328
0.6411008238792419,0.26962965726852417,9.903987884521484,-0.03975205684047445,0.005527408527513573,0.03711301816420644,3.3200104236602783,2019-08-07 14:04:36:671,-173.7460049597851,-86.70689595956505,0,-21.591209411621094,39.58388137817383,-40.78339385986328
1.5894217491149902,0.17383967339992523,8.845508575439453,0.08118498444770922,0.0209775160082832,-0.03747370172196564,3.3300247192382812,2019-08-07 14:04:36:681,-173.67914865001805,-81.44092610242372,0,-21.591209411621094,39.58388137817383,-40.78339385986328
0.5405213236808777,-0.24524152278900146,9.537590980529785,-6.126766340918298e-05,-0.003263168943005164,-0.007106249535753488,3.3400042057037354,2019-08-07 14:04:36:691,-173.7388643986162,-83.38261463914267,0,-21.591209411621094,39.58388137817383,-40.78339385986328
1.0098923444747925,-0.09437229484319687,9.61422348022461,-0.002192316810096481,0.0017980727412644285,0.0038153772155533703,3.350003242492676,2019-08-07 14:04:36:701,-173.74516774621162,-85.30248364582371,0,-21.591209411621094,39.58388137817383,-40.78339385986328
0.9236813187599182,0.13312892615795135,9.499275207519531,0.008995691068799602,-0.00965631626522088,-0.0020450079815210586,3.360013246536255,2019-08-07 14:04:36:711,-173.7537607271841,-80.01754863794741,0,-22.190963745117188,40.483516693115234,-40.18363952636719
0.2962568700313568,-0.04408255219459534,9.65493392944336,0.022048366840820257,0.004994646272335123,-0.010569204194413408,3.370007038116455,2019-08-07 14:04:36:721,-173.84633743492068,-82.02433811550668,0,-22.190963745117188,40.483516693115234,-40.18363952636719
0.8326808214187622,0.034944187849760056,9.520828247070312,-0.00272507906527493,-0.006726123861739408,0.006479188491445616,3.3800342082977295,2019-08-07 14:04:36:731,-173.8656576040456,-76.78652288972238,0,-22.190963745117188,40.483516693115234,-40.18363952636719
0.4662840962409973,-0.08479329943656921,9.798619270324707,0.0012706381086377639,-0.005394218223793286,-0.005774343897807364,3.390005350112915,2019-08-07 14:04:36:741,-173.93083509402217,-78.84158779071474,0,-22.190963745117188,40.483516693115234,-40.18363952636719
0.49023160338401794,-0.07521429657936096,9.652539253234863,0.010860359482072824,-0.001132119922291367,-0.004975200515039691,3.400007963180542,2019-08-07 14:04:36:751,-173.9934339283846,-80.86192670878427,0,-22.190963745117188,40.483516693115234,-40.18363952636719
0.3680993616580963,0.07326018065214157,9.736355781555176,0.003135306001762336,-0.0021976444326482656,-0.004975200515039691,3.410008192062378,2019-08-07 14:04:36:761,-174.06902859807326,-75.65507084305852,0,-22.190963745117188,40.483516693115234,-40.18363952636719
0.43036285042762756,-0.029714053496718407,9.779460906982422,0.002336162618994662,-0.006992504989328633,-0.007106249535753488,3.4200222492218018,2019-08-07 14:04:36:771,-174.1333206536388,-77.7398012667215,0,-22.190963745117188,40.483516693115234,-40.18363952636719
0.3824678659439087,-0.05366155132651329,9.736355781555176,-0.0005940299795425521,-0.00246402556023749,-0.003909676004682793,3.430025577545166,2019-08-07 14:04:36:781,-174.20427899892053,-79.77835597748485,0,-22.190963745117188,40.483516693115234,-40.18363952636719
0.3297833800315857,0.010996690951287746,9.772276878356934,0.0028689248741731116,-0.005926980478971734,-0.0007131023435749355,3.4400041103363037,2019-08-07 14:04:36:791,-174.2782162216579,-74.58568578934694,0,-22.190963745117188,40.483516693115234,-40.18363952636719
0.41120487451553345,-0.01774030551314354,9.798619270324707,0.0015370192362269886,-0.006459742734150184,-0.00257777036673667,3.4500010013580322,2019-08-07 14:04:36:801,-174.34096506038117,-76.69276017261683,0,-22.190963745117188,40.483516693115234,-40.18363952636719
0.3225991129875183,-0.029714053496718407,9.78664493560791,0.005799117537728906,-0.004062312325772837,-0.0031105326219151193,3.4599971771240234,2019-08-07 14:04:36:811,-174.41410627848333,-78.758680720784,0,-22.190963745117188,40.483516693115234,-40.18363952636719
0.3106253743171692,0.020575689151883125,9.8034086227417,0.0020697814914054373,-0.003529550070594388,-0.0015122457263426093,3.47002911567688,2019-08-07 14:04:36:821,-174.48753928277173,-73.58707807629979,0,-22.190963745117188,40.483516693115234,-40.18363952636719
0.32499387860298157,-0.00816130731254816,9.769882202148438,-0.00032764881944403687,-0.00246402556023749,0.003548996087964146,3.480010509490967,2019-08-07 14:04:36:831,-174.55830283999757,-75.71419563810032,0,-21.291330337524414,40.78339385986328,-40.483516693115234
0.34654662013053894,-0.027319304645061493,9.769882202148438,0.006598260920496581,-0.00566059935138251,-0.0017786268539318336,3.490001916885376,2019-08-07 14:04:36:841,-174.62333145992625,-77.80040916641308,0,-21.291330337524414,40.78339385986328,-40.483516693115234
0.30104637145996094,-0.01774030551314354,9.753118515014648,0.006331879792907356,-0.004595074841025611,0.0008851845519975746,3.5000014305114746,2019-08-07 14:04:36:851,-174.69292544680388,-79.84587180639018,0,-21.291330337524414,40.78339385986328,-40.483516693115234
0.3345728814601898,-0.022529805079102516,9.801013946533203,0.002602543746583887,-0.00566059935138251,-0.0033769137495043436,3.509997606277466,2019-08-07 14:04:36:861,-174.75678730450798,-81.84778099960427,0,-21.291330337524414,40.78339385986328,-40.483516693115234
0.33217811584472656,-0.027319304645061493,9.836935043334961,0.0034016871293515603,-0.0048614559686148365,-0.005774343897807364,3.5200135707855225,2019-08-07 14:04:36:871,-174.82023639692267,-83.80955602335494,0,-21.291330337524414,40.78339385986328,-40.483516693115234
0.33936238288879395,-0.020135056227445602,9.824960708618164,-0.0016595545549180318,-0.007258886116917857,-0.007639012311080588,3.5300004482269287,2019-08-07 14:04:36:881,-174.8801960069834,-85.730085877405,0,-21.291330337524414,40.78339385986328,-40.483516693115234
0.2890726327896118,-0.04887205362319946,9.877645492553711,0.0007378757884407334,-0.008324410627274756,-0.0020450079815210586,3.540006637573242,2019-08-07 14:04:36:891,-174.94438901073565,-87.61022908270213,0,-21.291330337524414,40.78339385986328,-40.483516693115234
0.3106253743171692,0.20736616849899292,9.920751571655273,-0.0392192956255933,0.008191220323554469,0.033650066106289775,3.550013780593872,2019-08-07 14:04:36:901,-175.01423620850838,-82.2599359326934,0,-21.291330337524414,40.78339385986328,-40.483516693115234
1.8265019655227661,0.1762344241142273,8.962851524353027,0.07052973518295104,0.02337494563643757,-0.035342652701251843,3.560004711151123,2019-08-07 14:04:36:911,-174.89669761939444,-77.07683261064398,0,-21.291330337524414,40.78339385986328,-40.483516693115234
0.23638813197612762,-0.25242578983306885,9.595065116882324,0.007663785430853478,0.0017980727412644285,-0.011101966449591856,3.5700275897979736,2019-08-07 14:04:36:921,-174.97155003481672,-79.10946935461766,0,-21.291330337524414,40.78339385986328,-40.483516693115234
0.8422598242759705,-0.0464773029088974,9.74593448638916,0.005266355282550457,0.005527408527513573,8.60411123386422e-05,3.580002546310425,2019-08-07 14:04:36:931,-174.97642841553784,-81.12476490781447,0,-21.291330337524414,40.78339385986328,-40.483516693115234
0.9643920660018921,0.11157617717981339,9.286142349243164,0.024712179157009802,0.002064453868853653,-0.012167492000246055,3.589998483657837,2019-08-07 14:04:36:941,-174.959477096532,-75.92990773266719,0,-21.291330337524414,40.78339385986328,-40.483516693115234
0.45670512318611145,-0.022529805079102516,9.779460906982422,0.008995691068799602,0.0028635972516213265,-0.010569204194413408,3.599998712539673,2019-08-07 14:04:36:951,-175.00841958875267,-78.01372081995595,0,-21.291330337524414,40.78339385986328,-40.483516693115234
0.8925495743751526,0.008601941168308258,9.573512077331543,-0.0005940299795425521,-0.003529550070594388,8.60411123386422e-05,3.6100075244903564,2019-08-07 14:04:36:961,-174.99974051474476,-72.85414218431778,0,-22.041025161743164,39.13406753540039,-40.63345718383789
0.4854421019554138,-0.0464773029088974,9.827356338500977,-0.0024586979376857053,-0.00912355401004243,-0.00257777036673667,3.6199967861175537,2019-08-07 14:04:36:971,-175.03806950143286,-74.99026083766285,0,-22.041025161743164,39.13406753540039,-40.63345718383789
0.46388936042785645,-0.12310929596424103,9.66690731048584,0.011659502344691848,-0.006726123861739408,-0.0031105326219151193,3.6300010681152344,2019-08-07 14:04:36:981,-175.07858247239864,-77.08241262679641,0,-22.041025161743164,39.13406753540039,-40.63345718383789
0.3154148757457733,0.027759937569499016,9.731565475463867,0.0055327364101396825,-0.006193361606560959,-0.0017786268539318336,3.6400108337402344,2019-08-07 14:04:36:991,-175.13640198859554,-71.94714282358528,0,-22.041025161743164,39.13406753540039,-40.63345718383789
0.4519156217575073,-0.05845104902982712,9.880040168762207,0.0034016871293515603,-0.0037959311981836125,-0.00604072502539659,3.6500096321105957,2019-08-07 14:04:37:001,-175.17916482343168,-74.1033305379208,0,-22.041025161743164,39.13406753540039,-40.63345718383789
0.3752836287021637,-0.07042480260133743,9.743539810180664,0.004999974154961233,-0.004595074841025611,-0.004442438259861242,3.6600327491760254,2019-08-07 14:04:37:011,-175.22888098474098,-76.21579553903494,0,-22.041025161743164,39.13406753540039,-40.63345718383789
0.30583587288856506,0.008601941168308258,9.729170799255371,0.006598260920496581,-0.0075252672445070825,-0.0007131023435749355,3.6700100898742676,2019-08-07 14:04:37:021,-175.28407758566738,-71.09618929631999,0,-22.041025161743164,39.13406753540039,-40.63345718383789
0.37049412727355957,-0.020135056227445602,9.777066230773926,0.004200830512119234,-0.003263168943005164,-0.0041760571322720175,3.6799983978271484,2019-08-07 14:04:37:031,-175.3331631210333,-73.2742615984458,0,-22.041025161743164,39.13406753540039,-40.63345718383789
0.3154148757457733,-0.05126680061221123,9.810592651367188,-0.0005940299795425521,-0.004595074841025611,-0.006573487280575038,3.6900031566619873,2019-08-07 14:04:37:041,-175.38708949739592,-75.40245455241596,0,-22.041025161743164,39.13406753540039,-40.63345718383789
0.3609151244163513,-0.005766557063907385,9.779460906982422,0.006331879792907356,-0.004062312325772837,-0.005507962770218141,3.700002670288086,2019-08-07 14:04:37:051,-175.43479552231844,-77.49728492980688,0,-22.041025161743164,39.13406753540039,-40.63345718383789
0.3489413857460022,-0.041687801480293274,9.810592651367188,0.0034016871293515603,-0.008324410627274756,-0.009237299076615935,3.7100069522857666,2019-08-07 14:04:37:061,-175.4806829207078,-79.54438082284041,0,-22.041025161743164,39.13406753540039,-40.63345718383789
0.3178096413612366,-0.020135056227445602,9.829751014709473,0.005266355282550457,-0.005394218223793286,-0.0033769137495043436,3.720106363296509,2019-08-07 14:04:37:071,-175.53097414857106,-81.55413238782808,0,-22.041025161743164,39.13406753540039,-40.63345718383789
0.3345728814601898,-0.041687801480293274,9.753118515014648,0.002336162618994662,-0.0005993576020943366,-0.004708819387450467,3.73000431060791,2019-08-07 14:04:37:081,-175.58072725820386,-83.5194501427169,0,-21.89108657836914,40.78339385986328,-40.18363952636719
0.35373085737228394,-0.010556057095527649,9.781855583190918,-0.00272507906527493,-0.0016648821774698163,-0.0068398684081642635,3.740000009536743,2019-08-07 14:04:37:091,-175.6267578059468,-85.44629505925599,0,-21.89108657836914,40.78339385986328,-40.18363952636719
0.3633098602294922,-0.02492455393075943,9.781855583190918,0.00047149462834221814,-0.004595074841025611,-0.0068398684081642635,3.749995708465576,2019-08-07 14:04:37:101,-175.66910250470164,-87.33471395598238,0,-21.89108657836914,40.78339385986328,-40.18363952636719
0.3178096413612366,-0.05366155132651329,9.769882202148438,0.0055327364101396825,-0.00805802949968553,-0.0020450079815210586,3.7600209712982178,2019-08-07 14:04:37:111,-175.71392149997786,-89.184840215435,0,-21.89108657836914,40.78339385986328,-40.18363952636719
0.3178096413612366,-0.010556057095527649,9.817776679992676,0.0020697814914054373,-0.005127837096204061,-0.002844151494325895,3.7700040340423584,2019-08-07 14:04:37:121,-175.75968737570585,-91.00107153614934,0,-21.89108657836914,40.78339385986328,-40.18363952636719
1.3212097883224487,0.40852513909339905,9.765092849731445,-0.03016233624726236,-6.659528596096748e-05,0.02938796598426758,3.7799999713897705,2019-08-07 14:04:37:131,-175.69035052501005,-85.61203260644433,0,-21.89108657836914,40.78339385986328,-40.18363952636719
2.0755558013916016,0.19778716564178467,9.046667098999023,0.0604072512942632,0.014850748513285082,-0.02681845453780206,3.7899956703186035,2019-08-07 14:04:37:141,-175.52644627583504,-80.35874510222793,0,-21.89108657836914,40.78339385986328,-40.18363952636719
-0.055771324783563614,-0.30989977717399597,9.640565872192383,0.011126740089513398,-0.00246402556023749,-0.014564921628400425,3.8000288009643555,2019-08-07 14:04:37:151,-168.42115834468242,-82.32101532163298,0,-21.89108657836914,40.78339385986328,-40.18363952636719
1.0721558332443237,-0.12310929596424103,9.518433570861816,-0.004056984703221053,0.0009989292934781736,0.004614520598321043,3.8100123405456543,2019-08-07 14:04:37:161,-168.52476105900212,-84.25750058327189,0,-21.89108657836914,40.78339385986328,-40.18363952636719
0.732101321220398,0.15468166768550873,9.789039611816406,0.008462928813621153,-0.00805802949968553,-0.0009794834711641602,3.820016384124756,2019-08-07 14:04:37:171,-168.6641981080226,-78.99521011299814,0,-21.89108657836914,40.78339385986328,-40.18363952636719
0.3106253743171692,-0.07042480260133743,9.678881645202637,0.021515605625939106,0.002064453868853653,-0.011901110352508182,3.8300113677978516,2019-08-07 14:04:37:181,-168.85530938016942,-81.01904314995825,0,-21.89108657836914,40.78339385986328,-40.18363952636719
0.6913905739784241,0.008601941168308258,9.619012832641602,0.00020511348449834825,-0.007791648372096307,-0.002844151494325895,3.8400087356567383,2019-08-07 14:04:37:191,-168.99160520450192,-75.79980217888262,0,-21.89108657836914,40.78339385986328,-40.18363952636719
0.4806526005268097,-0.07760904729366302,9.824960708618164,-0.002192316810096481,-0.008324410627274756,-0.003909676004682793,3.850025177001953,2019-08-07 14:04:37:201,-169.15107592819683,-77.87352153325767,0,-21.89108657836914,40.78339385986328,-40.18363952636719
0.4207838773727417,-0.08000379800796509,9.729170799255371,0.008995691068799602,-0.0021976444326482656,-0.0031105326219151193,3.8600080013275146,2019-08-07 14:04:37:211,-169.31729289744936,-79.91167074647021,0,-21.89108657836914,40.18363952636719,-40.18363952636719
0.26033562421798706,0.06607593595981598,9.750723838806152,0.004999974154961233,-0.0021976444326482656,0.003016233572711371,3.8700318336486816,2019-08-07 14:04:37:221,-169.49912246741363,-74.72401669755247,0,-21.89108657836914,40.18363952636719,-40.18363952636719
0.4279681146144867,-0.05845104902982712,9.836935043334961,-0.0005940299795425521,-0.00246402556023749,-0.004975200515039691,3.880005121231079,2019-08-07 14:04:37:231,-169.6579371005105,-76.82239475947124,0,-21.89108657836914,40.18363952636719,-40.18363952636719
0.35373085737228394,-0.06084579974412918,9.812987327575684,0.002336162618994662,-0.005127837096204061,0.0008851845519975746,3.8900084495544434,2019-08-07 14:04:37:241,-169.82060893930552,-78.88015385102632,0,-21.89108657836914,40.18363952636719,-40.18363952636719
0.32499387860298157,-0.0009770578471943736,9.762697219848633,0.0028689248741731116,-0.0027304066878267143,-0.0017786268539318336,3.9000203609466553,2019-08-07 14:04:37:251,-169.98452910740718,-80.90404890615541,0,-21.89108657836914,40.18363952636719,-40.18363952636719
0.3633098602294922,-0.0656353011727333,9.839329719543457,-0.0008604111071317767,-0.007791648372096307,0.00061880342440835,3.910005807876587,2019-08-07 14:04:37:261,-170.13817703343298,-82.87784155587484,0,-21.89108657836914,40.18363952636719,-40.18363952636719
0.2962568700313568,-0.0656353011727333,9.846513748168945,0.0034016871293515603,-0.005394218223793286,-0.0012458645987533845,3.920001745223999,2019-08-07 14:04:37:271,-170.29791855292754,-84.81455561276267,0,-21.89108657836914,40.18363952636719,-40.18363952636719
0.30583587288856506,-0.015345555730164051,9.8034086227417,0.0055327364101396825,-0.004328693453362062,0.0008851845519975746,3.929994583129883,2019-08-07 14:04:37:281,-170.4537939538546,-86.71957516651725,0,-21.89108657836914,40.18363952636719,-40.18363952636719
0.3417571187019348,-0.027319304645061493,9.832145690917969,0.00020511348449834825,-0.006992504989328633,-0.00257777036673667,3.940030097961426,2019-08-07 14:04:37:291,-170.60096281569406,-88.58211524471679,0,-21.89108657836914,40.18363952636719,-40.18363952636719
0.3225991129875183,-0.029714053496718407,9.805803298950195,0.003668068256940785,-0.003529550070594388,-0.0020450079815210586,3.9500043392181396,2019-08-07 14:04:37:301,-170.7492811768299,-90.40905484764865,0,-21.89108657836914,40.18363952636719,-40.18363952636719
0.2842831313610077,-0.041687801480293274,9.74593448638916,0.00047149462834221814,-0.0048614559686148365,-0.0033769137495043436,3.9600088596343994,2019-08-07 14:04:37:311,-170.89814841529096,-92.19623704086479,0,-21.89108657836914,40.18363952636719,-40.18363952636719
0.30104637145996094,-0.05126680061221123,9.834540367126465,-6.126766340918298e-05,-0.005127837096204061,-0.003909676004682793,3.9700145721435547,2019-08-07 14:04:37:321,-171.04223771041254,-93.94630435153026,0,-21.89108657836914,40.18363952636719,-40.18363952636719
0.3297833800315857,-0.0464773029088974,9.84411907196045,0.004733593027372009,-0.004328693453362062,0.001950709062354473,3.980013608932495,2019-08-07 14:04:37:331,-171.18058818641833,-95.66462571277664,0,-22.041025161743164,40.93333435058594,-40.33357620239258
0.32020437717437744,-0.05366155132651329,9.781855583190918,0.0015370192362269886,-0.003529550070594388,-0.00950367968405651,3.9900219440460205,2019-08-07 14:04:37:341,-171.317495322612,-97.34591072234505,0,-22.041025161743164,40.93333435058594,-40.33357620239258
0.3417571187019348,-0.05845104902982712,9.760302543640137,-0.0019259356825072562,-0.0013985010498805918,-0.005774343897807364,4.000006437301636,2019-08-07 14:04:37:351,-171.45025351439008,-98.99105036763572,0,-22.041025161743164,40.93333435058594,-40.33357620239258
-0.23298279941082,-0.01774030551314354,9.990199089050293,-0.03842015172267697,0.013785224002928184,0.029654348672302752,4.0100321769714355,2019-08-07 14:04:37:361,-164.45572796306217,-100.58756608803621,0,-22.041025161743164,40.93333435058594,-40.33357620239258
2.1905038356781006,0.15947116911411285,9.264589309692383,0.04096142741980385,0.002330834996442878,-0.022023593200898715,4.020010471343994,2019-08-07 14:04:37:371,-164.50186687684743,-95.01848730134607,0,-22.041025161743164,40.93333435058594,-40.33357620239258
-0.28327253460884094,-0.33145251870155334,9.726776123046875,0.021515605625939106,0.004994646272335123,-0.020425307475660667,4.030013561248779,2019-08-07 14:04:37:381,-157.6479979194052,-96.69116881452875,0,-22.041025161743164,40.93333435058594,-40.33357620239258
1.002708077430725,-0.07760904729366302,9.518433570861816,-0.0024586979376857053,-0.0021976444326482656,0.003548996087964146,4.040025472640991,2019-08-07 14:04:37:391,-157.97353098840105,-98.34662016243797,0,-22.041025161743164,40.93333435058594,-40.33357620239258
0.7009695768356323,0.15228691697120667,9.805803298950195,0.001803400363816213,-0.012320127541113125,0.001950709062354473,4.050005197525024,2019-08-07 14:04:37:401,-158.3253797891752,-92.79849327776702,0,-22.041025161743164,40.93333435058594,-40.33357620239258
0.3225991129875183,-0.099161796271801,9.669301986694336,0.023113891351177154,0.005527408527513573,-0.0169623522968521,4.060013294219971,2019-08-07 14:04:37:411,-158.72376107293826,-94.5437610186566,0,-22.041025161743164,40.93333435058594,-40.33357620239258
0.6123638153076172,0.008601941168308258,9.647749900817871,0.0015370192362269886,-0.006459742734150184,-0.0017786268539318336,4.07000732421875,2019-08-07 14:04:37:421,-159.0730245472097,-89.05477001620487,0,-22.041025161743164,40.93333435058594,-40.33357620239258
0.47586309909820557,-0.09437229484319687,9.913566589355469,-0.00032764881944403687,-0.00912355401004243,-0.0009794834711641602,4.080022811889648,2019-08-07 14:04:37:431,-159.43147012269034,-90.86258213132389,0,-22.041025161743164,40.93333435058594,-40.33357620239258
0.48304736614227295,-0.13508303463459015,9.681276321411133,0.008995691068799602,-0.005127837096204061,-0.005774343897807364,4.0900068283081055,2019-08-07 14:04:37:441,-159.78283795605736,-92.6343855388073,0,-22.041025161743164,40.93333435058594,-40.33357620239258
0.26751989126205444,0.034944187849760056,9.777066230773926,0.006331879792907356,-0.00246402556023749,-0.007905393438669812,4.099994421005249,2019-08-07 14:04:37:451,-160.1544526683128,-87.18934435529098,0,-22.041025161743164,40.93333435058594,-40.33357620239258
0.4135996103286743,-0.05605630204081535,9.765092849731445,0.0015370192362269886,-0.003263168943005164,-0.005241581642628916,4.110002040863037,2019-08-07 14:04:37:461,-160.5010237961601,-89.03984312887302,0,-22.041025161743164,40.93333435058594,-40.33357620239258
0.35852035880088806,-0.06084579974412918,9.789039611816406,0.0034016871293515603,-0.00805802949968553,-0.0041760571322720175,4.119988918304443,2019-08-07 14:04:37:471,-160.84453465321022,-90.85383121896392,0,-22.041025161743164,40.93333435058594,-40.33357620239258
0.32020437717437744,0.01818094030022621,9.767487525939941,0.004467211899782784,-0.004328693453362062,-0.0033769137495043436,4.1300201416015625,2019-08-07 14:04:37:481,-161.1876530851845,-85.44140373402968,0,-22.041025161743164,40.93333435058594,-40.33357620239258
0.33936238288879395,-0.06324055045843124,9.827356338500977,-0.0016595545549180318,0.0009989292934781736,-0.0041760571322720175,4.139999628067017,2019-08-07 14:04:37:491,-161.5249042516316,-87.3242716918627,0,-22.041025161743164,40.93333435058594,-40.33357620239258
0.3034411370754242,-0.04408255219459534,9.812987327575684,0.006065498665318131,-0.007791648372096307,-0.0012458645987533845,4.149999141693115,2019-08-07 14:04:37:501,-161.85460820471897,-89.17604413827264,0,-22.041025161743164,40.93333435058594,-40.33357620239258
0.35133612155914307,0.010996690951287746,9.829751014709473,0.001803400363816213,-0.004595074841025611,-0.0041760571322720175,4.1599791049957275,2019-08-07 14:04:37:511,-162.17400105940897,-83.79481578597432,0,-22.041025161743164,40.93333435058594,-40.33357620239258
0.3633098602294922,-0.03210880234837532,9.784250259399414,-0.0013931734273288073,-0.002996787815415939,-0.003643294877093568,4.16999077796936,2019-08-07 14:04:37:521,-162.48630565744838,-85.71437577455478,0,-22.041025161743164,40.93333435058594,-40.33357620239258
0.37288886308670044,-0.036898303776979446,9.822566032409668,0.001803400363816213,-0.005394218223793286,-0.007106249535753488,4.179990291595459,2019-08-07 14:04:37:531,-162.79006993928417,-87.59679622430636,0,-22.041025161743164,40.93333435058594,-40.33357620239258
0.32738861441612244,0.01578618958592415,9.81538200378418,0.007930166558442704,-0.004062312325772837,-0.005241581642628916,4.19000244140625,2019-08-07 14:04:37:541,-163.09377733964737,-82.25116147497205,0,-22.041025161743164,40.93333435058594,-40.33357620239258
0.3489413857460022,-0.03210880234837532,9.812987327575684,0.002602543746583887,-0.005394218223793286,-0.0031105326219151193,4.199989318847656,2019-08-07 14:04:37:551,-163.3881463104225,-84.2038481475277,0,-22.041025161743164,40.93333435058594,-40.33357620239258
0.2962568700313568,-0.05126680061221123,9.817776679992676,0.00047149462834221814,-0.002996787815415939,-0.005774343897807364,4.210002660751343,2019-08-07 14:04:37:561,-163.68413029645998,-86.11405255472108,0,-22.041025161743164,40.93333435058594,-40.33357620239258
0.33217811584472656,-0.029714053496718407,9.889619827270508,0.00393444938453001,-0.005926980478971734,-0.003643294877093568,4.220035552978516,2019-08-07 14:04:37:571,-163.9686335596553,-87.99054498504815,0,-22.041025161743164,40.93333435058594,-40.33357620239258
0.3154148757457733,-0.04408255219459534,9.772276878356934,0.004999974154961233,-0.00805802949968553,-0.004708819387450467,4.230002403259277,2019-08-07 14:04:37:581,-164.24777800805475,-89.82836308929235,0,-21.291330337524414,40.18363952636719,-39.88376235961914
-0.39343103766441345,-0.08000379800796509,9.980619430541992,-0.037887390507795826,0.014850748513285082,0.03125263439754081,4.240004301071167,2019-08-07 14:04:37:591,-157.41631075080406,-91.60133270658832,0,-21.291330337524414,40.18363952636719,-39.88376235961914
2.21924090385437,0.17144492268562317,9.470538139343262,0.02817513329552107,-0.004328693453362062,-0.020425307475660667,4.250014543533325,2019-08-07 14:04:37:601,-157.6017870453674,-86.205884771869,0,-21.291330337524414,40.18363952636719,-39.88376235961914
-0.4772472679615021,-0.39611074328422546,9.693249702453613,0.03163808743403234,0.0071256958131975705,-0.02442102490964769,4.260007619857788,2019-08-07 14:04:37:611,-150.91012324876883,-88.0527181807152,0,-21.291330337524414,40.18363952636719,-39.88376235961914
1.0074975490570068,-0.06803005188703537,9.504064559936523,-0.006454414851524075,-0.00246402556023749,0.0008851845519975746,4.270034313201904,2019-08-07 14:04:37:621,-151.36951042968224,-89.87982767927157,0,-21.291330337524414,40.18363952636719,-39.88376235961914
0.5788373351097107,0.11636567860841751,9.913566589355469,-0.002192316810096481,-0.010721840775577777,-0.00257777036673667,4.280009508132935,2019-08-07 14:04:37:631,-151.86928255201366,-84.4944533627828,0,-21.291330337524414,40.18363952636719,-39.88376235961914
0.3225991129875183,-0.13987253606319427,9.657328605651855,0.025244940371890952,0.0009989292934781736,-0.012167492000246055,4.2900004386901855,2019-08-07 14:04:37:641,-152.39419267650916,-86.40213065795864,0,-21.291330337524414,40.18363952636719,-39.88376235961914
0.4878368675708771,0.001417691819369793,9.69564437866211,0.0010042569160299579,-0.007791648372096307,0.001950709062354473,4.300012826919556,2019-08-07 14:04:37:651,-152.8843201796834,-81.07482018739955,0,-21.291330337524414,40.18363952636719,-39.88376235961914
0.41120487451553345,-0.09437229484319687,9.887224197387695,-0.007519939882029623,-0.0048614559686148365,-0.005774343897807364,4.310006141662598,2019-08-07 14:04:37:661,-153.37627527401693,-83.03816688432251,0,-21.291330337524414,40.18363952636719,-39.88376235961914
0.42317861318588257,-0.06084579974412918,9.693249702453613,0.008196547686031928,-0.003529550070594388,-0.0023113892391474454,4.320017337799072,2019-08-07 14:04:37:671,-153.85677017324056,-84.97481808187698,0,-21.291330337524414,40.18363952636719,-39.88376235961914
0.19088789820671082,0.025365188717842102,9.714802742004395,0.007663785430853478,-0.0021976444326482656,-0.0007131023435749355,4.3300087451934814,2019-08-07 14:04:37:681,-154.3558884522532,-79.68261318754367,0,-21.291330337524414,40.18363952636719,-39.88376235961914
0.39204686880111694,-0.0728195458650589,9.817776679992676,-0.004056984703221053,-0.0075252672445070825,-0.0007131023435749355,4.340011835098267,2019-08-07 14:04:37:691,-154.8188091499911,-81.678183000497,0,-21.291330337524414,40.18363952636719,-39.88376235961914
0.3225991129875183,-0.05845104902982712,9.812987327575684,0.0034016871293515603,-0.005394218223793286,-0.0017786268539318336,4.349987983703613,2019-08-07 14:04:37:701,-155.28175326463585,-83.63969926313852,0,-21.291330337524414,40.18363952636719,-39.88376235961914
0.32738861441612244,0.02297043986618519,9.798619270324707,0.004200830512119234,-0.00566059935138251,0.0016843279347652483,4.360016345977783,2019-08-07 14:04:37:711,-155.7346580052933,-78.37195703929072,0,-21.741147994995117,40.63345718383789,-40.33357620239258
0.3680993616580963,-0.04408255219459534,9.765092849731445,-0.0008604111071317767,0.0012653104860859794,-0.00018034003963255039,4.37000846862793,2019-08-07 14:04:37:721,-156.17749941835493,-80.39886218855754,0,-21.741147994995117,40.63345718383789,-40.33357620239258
0.3561256229877472,0.01818094030022621,9.781855583190918,0.0007378757884407334,-0.0027304066878267143,0.0008851845519975746,4.3799989223480225,2019-08-07 14:04:37:731,-156.6107171229327,-75.1934287067106,0,-21.741147994995117,40.63345718383789,-40.33357620239258
0.37288886308670044,-0.005766557063907385,9.824960708618164,0.002336162618994662,-0.005926980478971734,0.0048809017259102685,4.390004634857178,2019-08-07 14:04:37:741,-157.03170256935033,-77.29020006271841,0,-21.741147994995117,40.63345718383789,-40.33357620239258
0.35373085737228394,-0.05126680061221123,9.78664493560791,0.0028689248741731116,-0.004328693453362062,0.001950709062354473,4.399998664855957,2019-08-07 14:04:37:751,-157.44723918599334,-79.34000323635654,0,-21.741147994995117,40.63345718383789,-40.33357620239258
0.3297833800315857,-0.06084579974412918,9.784250259399414,0.0010042569160299579,-0.001132119922291367,-0.003909676004682793,4.410026550292969,2019-08-07 14:04:37:761,-157.859047865284,-81.3466425630018,0,-21.741147994995117,40.63345718383789,-40.33357620239258
0.32020437717437744,-0.06084579974412918,9.772276878356934,-0.0005940299795425521,-0.007258886116917857,-0.0041760571322720175,4.420003890991211,2019-08-07 14:04:37:771,-158.26026594969466,-83.31224211964475,0,-21.741147994995117,40.63345718383789,-40.33357620239258
0.33936238288879395,-0.01774030551314354,9.832145690917969,0.0012706381086377639,-0.006726123861739408,-0.00257777036673667,4.429991245269775,2019-08-07 14:04:37:781,-158.65175243119924,-85.24464224410599,0,-21.741147994995117,40.63345718383789,-40.33357620239258
0.3489413857460022,-0.07521429657936096,9.822566032409668,0.0020697814914054373,-0.00859079175486398,-0.0009794834711641602,4.440011024475098,2019-08-07 14:04:37:791,-159.0331931989141,-87.1321394339238,0,-21.741147994995117,40.63345718383789,-40.33357620239258
0.3106253743171692,-0.02492455393075943,9.834540367126465,0.003135306001762336,-0.0048614559686148365,-0.003643294877093568,4.4500110149383545,2019-08-07 14:04:37:801,-159.41361775636153,-88.98835292362101,0,-21.741147994995117,40.63345718383789,-40.33357620239258
0.3225991129875183,-0.041687801480293274,9.772276878356934,0.001803400363816213,-0.006459742734150184,-0.0033769137495043436,4.4600255489349365,2019-08-07 14:04:37:811,-159.78389814578523,-90.80471158326459,0,-21.741147994995117,40.63345718383789,-40.33357620239258
-0.5155632495880127,-0.11592504382133484,9.990199089050293,-0.037887390507795826,0.012986081140309162,0.02858882416194586,4.470006704330444,2019-08-07 14:04:37:821,-153.05458284952525,-92.55408725579852,0,-21.741147994995117,40.63345718383789,-40.33357620239258
2.0923192501068115,0.1307341754436493,9.755513191223145,0.01352417075796507,-0.010721840775577777,-0.014032159373221978,4.479994535446167,2019-08-07 14:04:37:831,-153.345375079095,-87.12594563279349,0,-22.340904235839844,38.53430938720703,-40.63345718383789
-0.7047485113143921,-0.4176635146141052,9.69564437866211,0.02817513329552107,0.0041955028895674495,-0.024953786124528834,4.490012168884277,2019-08-07 14:04:37:841,-146.7639745821765,-88.94994230842072,0,-22.340904235839844,38.53430938720703,-40.63345718383789
1.048208236694336,-0.1183197945356369,9.602249145507812,0.0015370192362269886,-0.0008657387296835611,-0.004975200515039691,4.500002384185791,2019-08-07 14:04:37:851,-147.30361148197449,-90.75768628959129,0,-22.340904235839844,38.53430938720703,-40.63345718383789
0.7776015400886536,0.1427079290151596,9.65493392944336,0.013790551365405645,-0.008857173402601856,-0.009237299076615935,4.510018587112427,2019-08-07 14:04:37:861,-147.86046545169012,-85.36722483543211,0,-22.340904235839844,38.53430938720703,-40.63345718383789
0.29386213421821594,-0.14705678820610046,9.681276321411133,0.019650937212665885,0.002064453868853653,-0.017495114552030545,4.519994497299194,2019-08-07 14:04:37:871,-148.46964048662107,-87.25348282625576,0,-22.340904235839844,38.53430938720703,-40.63345718383789
