ACCELEROMETER X (m/s²),ACCELEROMETER Y (m/s²),ACCELEROMETER Z (m/s²),GYROSCOPE X (rad/s),GYROSCOPE Y (rad/s),GYROSCOPE Z (rad/s),Time since start in ms ,YYYY-MO-DD HH-MI-SS_SSS,Pitch (Deg),Roll (Deg),Heading (Deg),MagX,MagY,MagZ
0.0928276851773262,0.0801762193441391,9.687732696533203,0.0034229976195586987,0.009578266919930143,0.005004236253002661,0.0,2019-08-06 15:43:05:825,-3.5890201928924603,3.590516554794261,0,-43.18241882324219,17.992673873901367,-27.88864517211914
0.07845918089151382,0.099334217607975,9.639837265014648,-0.004035674213013915,0.014639508864274061,-5.7005565367755386e-05,0.009994029998779297,2019-08-06 15:43:05:835,-7.11612848007797,7.109163166016717,0,-43.18241882324219,17.992673873901367,-27.88864517211914
0.09043293446302414,0.07299196720123291,9.735627174377441,0.0034229976195586987,0.013840364961357736,0.0031395680998037635,0.019997835159301758,2019-08-06 15:43:05:845,-10.570936263659211,10.556465927313043,0,-43.18241882324219,17.992673873901367,-27.88864517211914
0.1000119298696518,0.1400449573993683,9.682943344116211,0.0020910919816125757,0.009578266919930143,-0.001122530201698155,0.029996633529663086,2019-08-06 15:43:05:855,-13.953059712441705,13.927590318007034,0,-43.18241882324219,17.992673873901367,-27.88864517211914
0.17424917221069336,0.10891321301460266,9.675758361816406,0.0007591862786478714,0.009844647527370716,-0.001122530201698155,0.03998994827270508,2019-08-06 15:43:05:865,-17.258888200348597,17.235714292700553,0,-43.18241882324219,17.992673873901367,-27.88864517211914
0.08803818374872208,0.09214996546506882,9.611100196838379,0.002890235364380249,0.01570503337463096,-0.002987198094822727,0.04999423027038574,2019-08-06 15:43:05:875,-20.512036213662583,20.478389897291347,0,-43.18241882324219,17.992673873901367,-27.88864517211914
0.14790692925453186,0.11609746515750885,9.570389747619629,-0.0013718629371216693,0.012774840451000838,-0.001122530201698155,0.05999183654785156,2019-08-06 15:43:05:885,-23.69125852460751,23.655691905626124,0,-43.18241882324219,17.992673873901367,-27.88864517211914
0.14072267711162567,0.12088696658611298,9.613494873046875,0.0023574731092018,0.013307602706179285,-5.7005565367755386e-05,0.07000184059143066,2019-08-06 15:43:05:895,-26.808140275220097,26.766844221778975,0,-43.18241882324219,17.992673873901367,-27.88864517211914
0.12874892354011536,0.08975522220134735,9.635047912597656,-0.002970149702657017,0.010111029175108591,0.0028731869722145387,0.07998895645141602,2019-08-06 15:43:05:905,-29.862336027437475,29.82249846363352,0,-43.18241882324219,18.592430114746094,-26.689132690429688
0.11198568344116211,0.08257097005844116,9.649415969848633,-0.003236530830246241,0.009045504664751694,-0.0021880547120550534,0.08999276161193848,2019-08-06 15:43:05:915,-32.85687202459846,32.8180610241835,0,-43.18241882324219,18.592430114746094,-26.689132690429688
0.1191699281334877,0.09454471617937088,9.678153038024902,-0.004834817595781589,0.008779123017013819,-0.0021880547120550534,0.09999394416809082,2019-08-06 15:43:05:925,-35.79055535199715,35.75322091235485,0,-43.18241882324219,18.592430114746094,-26.689132690429688
0.1191699281334877,0.11370271444320679,9.66139030456543,0.0023574731092018,0.007713599026805571,-0.0003233867214026093,0.10999512672424316,2019-08-06 15:43:05:935,-38.66494217438149,38.62334722113687,0,-43.18241882324219,18.592430114746094,-26.689132690429688
0.08564343303442001,0.08496572077274323,9.654206275939941,-0.003236530830246241,0.010377409782549165,0.0018076624618576407,0.1199955940246582,2019-08-06 15:43:05:945,-41.48730523907122,41.44261283915752,0,-43.18241882324219,18.592430114746094,-26.689132690429688
0.10959093272686005,0.07299196720123291,9.618284225463867,0.003689378747147923,0.008779123017013819,-0.0013889113292873795,0.12999367713928223,2019-08-06 15:43:05:955,-44.2494316336368,44.202993353836156,0,-43.18241882324219,18.592430114746094,-26.689132690429688
0.09761717915534973,0.10891321301460266,9.587152481079102,0.0004928051185493561,0.010377409782549165,-0.0024544358396442778,0.13999319076538086,2019-08-06 15:43:05:965,-46.958602214948904,46.90563937188464,0,-43.18241882324219,18.592430114746094,-26.689132690429688
0.10240668058395386,0.06101822108030319,9.599126815795898,-0.003502911957835466,0.013041222098738713,-0.0032535792224119516,0.149993896484375,2019-08-06 15:43:05:975,-49.614528770630265,49.562209525486814,0,-43.18241882324219,18.592430114746094,-26.689132690429688
0.1191699281334877,0.07538671791553497,9.601521492004395,0.0012919485988449018,0.009844647527370716,0.00047575672638364575,0.15999341011047363,2019-08-06 15:43:05:985,-52.21354380457717,52.16124292711068,0,-43.18241882324219,18.592430114746094,-26.689132690429688
0.10959093272686005,0.12088696658611298,9.651811599731445,0.001824710854023351,0.007713599026805571,0.0012749002066791914,0.16999578475952148,2019-08-06 15:43:05:995,-54.760594459615994,54.702641644583935,0,-43.18241882324219,18.592430114746094,-26.689132690429688
0.14072267711162567,0.14962396025657654,9.635047912597656,0.0004928051185493561,0.012774840451000838,0.0012749002066791914,0.1799917221069336,2019-08-06 15:43:06:005,-57.25581747119428,57.190518566992786,0,-43.18241882324219,18.592430114746094,-26.689132690429688
0.08803818374872208,0.16159771382808685,9.584757804870605,0.0004928051185493561,0.009311885272192268,0.0010085190140713856,0.18999266624450684,2019-08-06 15:43:06:015,-59.705405026599095,59.627113309313906,0,-43.18241882324219,18.592430114746094,-26.689132690429688
0.10480143129825592,0.08496572077274323,9.601521492004395,-0.002703768575067792,0.009844647527370716,-0.0019216735844658289,0.19999241828918457,2019-08-06 15:43:06:025,-62.10431727484432,62.02594900384334,0,-43.18241882324219,18.592430114746094,-26.689132690429688
0.1263541728258133,0.0801762193441391,9.579968452453613,0.003689378747147923,0.017036938492428433,0.0026068058446253144,0.20999717712402344,2019-08-06 15:43:06:035,-64.45668862038842,64.37376733807437,0,-41.83296585083008,18.44249153137207,-28.63833999633789
0.12874892354011536,0.10891321301460266,9.608705520629883,0.0015583297264341264,0.012242078195822388,0.0018076624618576407,0.21999335289001465,2019-08-06 15:43:06:045,-66.75907270129166,66.67242910351595,0,-41.83296585083008,18.44249153137207,-28.63833999633789
0.06888018548488617,0.10412371903657913,9.637442588806152,-0.0005727194893354142,0.015172271119452508,0.0018076624618576407,0.22999358177185059,2019-08-06 15:43:06:055,-69.02422076809,68.92692202581881,0,-41.83296585083008,18.44249153137207,-28.63833999633789
0.1191699281334877,0.07778146862983704,9.599126815795898,-0.0019046251923001184,0.011442934292906064,0.0031395680998037635,0.2400050163269043,2019-08-06 15:43:06:065,-71.23594346616765,71.14016913235713,0,-41.83296585083008,18.44249153137207,-28.63833999633789
0.11438042670488358,0.09454471617937088,9.627863883972168,-0.0016382440647108938,0.012774840451000838,0.0010085190140713856,0.24999070167541504,2019-08-06 15:43:06:075,-73.40477438051829,73.30703188331636,0,-41.83296585083008,18.44249153137207,-28.63833999633789
0.11198568344116211,0.08975522220134735,9.637442588806152,0.0002264239747054862,0.015172271119452508,-0.0003233867214026093,0.2599985599517822,2019-08-06 15:43:06:085,-75.5318900236005,75.43009220119279,0,-41.83296585083008,18.44249153137207,-28.63833999633789
0.13593317568302155,0.08975522220134735,9.615889549255371,0.002890235364380249,0.012242078195822388,-5.7005565367755386e-05,0.26999330520629883,2019-08-06 15:43:06:095,-77.61192458458206,77.50917262053677,0,-41.83296585083008,18.44249153137207,-28.63833999633789
0.08564343303442001,0.12088696658611298,9.692522048950195,0.002890235364380249,0.012242078195822388,-0.001655292456876604,0.27999448776245117,2019-08-06 15:43:06:105,-79.65643573292431,79.54307477820547,0,-41.83296585083008,18.44249153137207,-28.63833999633789
0.11438042670488358,0.06101822108030319,9.613494873046875,0.0012919485988449018,0.011176553685465489,0.0020740435894468653,0.2899942398071289,2019-08-06 15:43:06:115,-81.65594913342548,81.54421468146847,0,-41.83296585083008,18.44249153137207,-28.63833999633789
0.13114367425441742,0.10412371903657913,9.635047912597656,-0.0003063383292368989,0.012242078195822388,0.0007421378864821609,0.29999208450317383,2019-08-06 15:43:06:125,-83.61410636210584,83.50111919843718,0,-41.83296585083008,18.44249153137207,-28.63833999633789
0.11677517741918564,0.08257097005844116,9.647021293640137,-0.002171006319889343,0.011176553685465489,0.004205092610160662,0.3099939823150635,2019-08-06 15:43:06:135,-85.53423065414584,85.42250815967138,0,-41.83296585083008,18.44249153137207,-28.63833999633789
0.152696430683136,0.099334217607975,9.687732696533203,-0.002703768575067792,0.010111029175108591,0.001541281334268416,0.3199961185455322,2019-08-06 15:43:06:145,-87.4111643476473,87.3038271251666,0,-41.83296585083008,18.44249153137207,-28.63833999633789
0.16706492006778717,0.10412371903657913,9.630258560180664,-0.0011054818095324445,0.012242078195822388,0.0031395680998037635,0.32999205589294434,2019-08-06 15:43:06:155,-89.24993492435259,89.1459817381763,0,-43.482295989990234,17.39291763305664,-29.08815574645996
0.11438042670488358,0.11609746515750885,9.570389747619629,-0.0016382440647108938,0.012242078195822388,0.0018076624618576407,0.3399930000305176,2019-08-06 15:43:06:165,-91.05811603728856,90.95008175357083,0,-43.482295989990234,17.39291763305664,-29.08815574645996
0.1191699281334877,0.07778146862983704,9.618284225463867,0.0010255674062370958,0.00718083625147847,-0.0019216735844658289,0.34999680519104004,2019-08-06 15:43:06:175,-92.8267901859357,92.72123741742988,0,-43.482295989990234,17.39291763305664,-29.08815574645996
0.12395942956209183,0.09693946689367294,9.678153038024902,-0.0005727194893354142,0.016770557884987856,-5.7005565367755386e-05,0.35998988151550293,2019-08-06 15:43:06:185,-94.56498822867243,94.45565655551538,0,-43.482295989990234,17.39291763305664,-29.08815574645996
0.12156467884778976,0.11130796372890472,9.637442588806152,-0.0008391006169246387,0.014373127216536186,-0.00431910373276885,0.3699944019317627,2019-08-06 15:43:06:195,-96.26730903135761,96.15378058944033,0,-43.482295989990234,17.39291763305664,-29.08815574645996
0.1000119298696518,0.10891321301460266,9.625469207763672,0.0002264239747054862,0.012242078195822388,-0.0019216735844658289,0.37999439239501953,2019-08-06 15:43:06:205,-97.93693072644558,97.81761223693792,0,-43.482295989990234,17.39291763305664,-29.08815574645996
0.10959093272686005,0.06820247322320938,9.63265323638916,-0.0008391006169246387,0.014639508864274061,-0.001122530201698155,0.38999104499816895,2019-08-06 15:43:06:215,-99.57337287724374,99.45361765035372,0,-43.482295989990234,17.39291763305664,-29.08815574645996
0.10959093272686005,0.12807121872901917,9.625469207763672,-0.002703768575067792,0.015172271119452508,-0.0005897678815011245,0.39999842643737793,2019-08-06 15:43:06:225,-101.17738464122421,101.05081855508884,0,-43.482295989990234,17.39291763305664,-29.08815574645996
0.12395942956209183,0.11370271444320679,9.651811599731445,-0.0005727194893354142,0.014639508864274061,-0.0019216735844658289,0.409991979598999,2019-08-06 15:43:06:235,-102.74733538449853,102.61662477737467,0,-43.482295989990234,17.39291763305664,-29.08815574645996
0.09043293446302414,0.12807121872901917,9.570389747619629,0.0026238542367910244,0.013307602706179285,-0.002987198094822727,0.4200146198272705,2019-08-06 15:43:06:245,-104.2890500827004,104.14748189701832,0,-43.482295989990234,17.39291763305664,-29.08815574645996
0.12395942956209183,0.1065184697508812,9.718864440917969,0.0031566164919694735,0.012508459843560263,0.00047575672638364575,0.4299955368041992,2019-08-06 15:43:06:255,-105.79566435296539,105.65020450707243,0,-43.482295989990234,17.39291763305664,-29.08815574645996
0.11198568344116211,0.10412371903657913,9.680547714233398,-3.9957173202045016e-05,0.006381692868710797,-0.0019216735844658289,0.43999624252319336,2019-08-06 15:43:06:265,-107.27007913927253,107.12489789145589,0,-43.482295989990234,17.39291763305664,-29.08815574645996
0.10480143129825592,0.10172896832227707,9.67336368560791,-0.0011054818095324445,0.014373127216536186,-0.001122530201698155,0.4499976634979248,2019-08-06 15:43:06:275,-108.7203348060806,108.57097028510958,0,-43.482295989990234,17.39291763305664,-29.08815574645996
0.10959093272686005,0.11609746515750885,9.601521492004395,0.0015583297264341264,0.015172271119452508,-0.001122530201698155,0.45999693870544434,2019-08-06 15:43:06:285,-110.14136788895752,109.98482069993163,0,-42.13284683227539,18.742368698120117,-27.738706588745117
0.10480143129825592,0.10172896832227707,9.635047912597656,-0.0005727194893354142,0.009844647527370716,-0.0019216735844658289,0.46999049186706543,2019-08-06 15:43:06:295,-111.53160097062342,111.37334727895535,0,-42.13284683227539,18.742368698120117,-27.738706588745117
0.11198568344116211,0.08736047148704529,9.668574333190918,-0.0011054818095324445,0.01357398435391716,0.0010085190140713856,0.4799926280975342,2019-08-06 15:43:06:305,-112.89532044787991,112.73614754587499,0,-42.13284683227539,18.742368698120117,-27.738706588745117
0.09043293446302414,0.11609746515750885,9.63265323638916,0.0034229976195586987,0.010377409782549165,-0.001655292456876604,0.48999500274658203,2019-08-06 15:43:06:315,-114.23248459590454,114.06569166154503,0,-42.13284683227539,18.742368698120117,-27.738706588745117
0.07606443762779236,0.09693946689367294,9.575179100036621,0.0007591862786478714,0.01064379143028704,-0.000856149009090349,0.49999213218688965,2019-08-06 15:43:06:325,-115.5447067947997,115.37235077319339,0,-42.13284683227539,18.742368698120117,-27.738706588745117
0.08803818374872208,0.11370271444320679,9.587152481079102,-0.0016382440647108938,0.013307602706179285,-0.001122530201698155,0.5099916458129883,2019-08-06 15:43:06:335,-116.83076192538675,116.65223377229178,0,-42.13284683227539,18.742368698120117,-27.738706588745117
0.12156467884778976,0.11370271444320679,9.587152481079102,0.002890235364380249,0.01064379143028704,-0.0027208169672335025,0.51999831199646,2019-08-06 15:43:06:345,-118.08559776383426,117.90397533928075,0,-42.13284683227539,18.742368698120117,-27.738706588745117
0.1191699281334877,0.12807121872901917,9.670969009399414,-0.0011054818095324445,0.01410674660909561,0.0023404247170360896,0.5299925804138184,2019-08-06 15:43:06:355,-119.31768242702357,119.13134189881802,0,-42.13284683227539,18.742368698120117,-27.738706588745117
0.14790692925453186,0.11609746515750885,9.611100196838379,-0.003502911957835466,0.012242078195822388,-0.0019216735844658289,0.5399980545043945,2019-08-06 15:43:06:365,-120.52057314479802,120.33684158215155,0,-42.13284683227539,18.742368698120117,-27.738706588745117
0.10959093272686005,0.1065184697508812,9.706890106201172,-0.0008391006169246387,0.009844647527370716,0.0010085190140713856,0.5499913692474365,2019-08-06 15:43:06:375,-121.7027488883436,121.51800139984267,0,-42.13284683227539,18.742368698120117,-27.738706588745117
0.09043293446302414,0.09214996546506882,9.62067985534668,-0.0008391006169246387,0.008512742409573244,0.003938711482571438,0.5599968433380127,2019-08-06 15:43:06:385,-122.86270530453652,122.67713717122967,0,-42.13284683227539,18.742368698120117,-27.738706588745117
0.13593317568302155,0.09214996546506882,9.647021293640137,0.0007591862786478714,0.013307602706179285,0.0031395680998037635,0.5699920654296875,2019-08-06 15:43:06:395,-123.99677415754509,123.81222270439663,0,-42.13284683227539,18.742368698120117,-27.738706588745117
0.1383279263973236,0.08257097005844116,9.670969009399414,0.005021284645168371,0.00824636128198402,-0.0003233867214026093,0.5799944400787354,2019-08-06 15:43:06:405,-125.10508070083861,124.92337451867334,0,-42.58266067504883,17.992673873901367,-28.488401412963867
0.09761717915534973,0.08975522220134735,9.606310844421387,0.0010255674062370958,0.008512742409573244,-0.0024544358396442778,0.5899994373321533,2019-08-06 15:43:06:415,-126.19611723195825,126.01362449527717,0,-42.58266067504883,17.992673873901367,-28.488401412963867
0.0928276851773262,0.07538671791553497,9.627863883972168,-3.9957173202045016e-05,0.014373127216536186,0.0018076624618576407,0.6000094413757324,2019-08-06 15:43:06:425,-127.2692253739753,127.08440206329348,0,-42.58266067504883,17.992673873901367,-28.488401412963867
0.11198568344116211,0.08975522220134735,9.627863883972168,0.0020910919816125757,0.012774840451000838,0.003672330354982212,0.6099903583526611,2019-08-06 15:43:06:435,-128.31767221454623,128.13085969284998,0,-42.58266067504883,17.992673873901367,-28.488401412963867
0.13114367425441742,0.13046596944332123,9.606310844421387,0.0020910919816125757,0.011709315940643939,0.0026068058446253144,0.6199924945831299,2019-08-06 15:43:06:445,-129.34225207242596,129.15150606247164,0,-42.58266067504883,17.992673873901367,-28.488401412963867
0.10959093272686005,0.08736047148704529,9.663784980773926,0.0004928051185493561,0.01064379143028704,-0.0013889113292873795,0.6299965381622314,2019-08-06 15:43:06:455,-130.34839136806295,130.1578403423276,0,-42.58266067504883,17.992673873901367,-28.488401412963867
0.0928276851773262,0.099334217607975,9.60391616821289,0.0010255674062370958,0.013041222098738713,0.0023404247170360896,0.6399943828582764,2019-08-06 15:43:06:465,-131.33766896536926,131.14225591366824,0,-42.58266067504883,17.992673873901367,-28.488401412963867
0.1263541728258133,0.11849221587181091,9.615889549255371,0.0007591862786478714,0.01570503337463096,-0.000856149009090349,0.6499748229980469,2019-08-06 15:43:06:475,-132.30466006308458,132.10486546724073,0,-42.58266067504883,17.992673873901367,-28.488401412963867
0.15509118139743805,0.11130796372890472,9.668574333190918,0.0015583297264341264,0.009578266919930143,-0.0032535792224119516,0.6599903106689453,2019-08-06 15:43:06:485,-133.24557360628933,133.04870020980468,0,-42.58266067504883,17.992673873901367,-28.488401412963867
0.10240668058395386,0.07538671791553497,9.66139030456543,0.0002264239747054862,0.007979980154394795,-0.003786341477590401,0.6699950695037842,2019-08-06 15:43:06:495,-134.17299924521777,133.97865774219133,0,-42.58266067504883,17.992673873901367,-28.488401412963867
0.1191699281334877,0.09454471617937088,9.64462661743164,0.0034229976195586987,0.013840364961357736,-0.001655292456876604,0.679995059967041,2019-08-06 15:43:06:505,-135.08315227695869,134.8859297151218,0,-42.58266067504883,17.992673873901367,-28.488401412963867
0.13114367425441742,0.10891321301460266,9.658995628356934,0.0015583297264341264,0.013840364961357736,-0.0021880547120550534,0.6899929046630859,2019-08-06 15:43:06:515,-135.97370134840313,135.77441570516012,0,-42.58266067504883,17.992673873901367,-28.488401412963867
0.10240668058395386,0.1328607201576233,9.548836708068848,-0.0024373874474785677,0.00824636128198402,0.0023404247170360896,0.69999098777771,2019-08-06 15:43:06:525,-136.8465678321119,136.64435269296476,0,-42.58266067504883,17.992673873901367,-28.488401412963867
0.10959093272686005,0.07538671791553497,9.596732139587402,-0.0008391006169246387,0.00824636128198402,-0.0053846282431257485,0.7099950313568115,2019-08-06 15:43:06:535,-137.7011833287366,137.50293547783292,0,-43.03247833251953,18.44249153137207,-27.738706588745117
0.152696430683136,0.1065184697508812,9.63265323638916,-3.9957173202045016e-05,0.009578266919930143,0.0010085190140713856,0.7199914455413818,2019-08-06 15:43:06:545,-138.53437243105603,138.34022810777358,0,-43.03247833251953,18.44249153137207,-27.738706588745117
0.08564343303442001,0.08975522220134735,9.639837265014648,-0.0016382440647108938,0.01357398435391716,-0.001122530201698155,0.7299981117248535,2019-08-06 15:43:06:555,-139.36113141999655,139.16367487371812,0,-43.03247833251953,18.44249153137207,-27.738706588745117
0.1383279263973236,0.1256764680147171,9.615889549255371,0.0010255674062370958,0.010377409782549165,-0.002987198094822727,0.739999532699585,2019-08-06 15:43:06:565,-140.16325326239374,139.96484955795827,0,-43.03247833251953,18.44249153137207,-27.738706588745117
0.1383279263973236,0.099334217607975,9.658995628356934,-0.0008391006169246387,0.01064379143028704,0.003938711482571438,0.7499914169311523,2019-08-06 15:43:06:575,-140.9495501137797,140.75423902650243,0,-43.03247833251953,18.44249153137207,-27.738706588745117
0.11198568344116211,0.07059722393751144,9.618284225463867,0.0031566164919694735,0.012242078195822388,0.0020740435894468653,0.7599925994873047,2019-08-06 15:43:06:585,-141.72409254221344,141.52897084814083,0,-43.03247833251953,18.44249153137207,-27.738706588745117
0.12395942956209183,0.099334217607975,9.637442588806152,0.0010255674062370958,0.01410674660909561,-0.0003233867214026093,0.769995927810669,2019-08-06 15:43:06:595,-142.48279597887392,142.28600472063522,0,-43.03247833251953,18.44249153137207,-27.738706588745117
0.11677517741918564,0.03707072511315346,9.60391616821289,0.0012919485988449018,0.010377409782549165,0.0018076624618576407,0.7799949645996094,2019-08-06 15:43:06:605,-143.22503375995007,143.0351361031936,0,-43.03247833251953,18.44249153137207,-27.738706588745117
0.0928276851773262,0.09693946689367294,9.64462661743164,0.0023574731092018,0.012508459843560263,-0.000856149009090349,0.7899742126464844,2019-08-06 15:43:06:615,-143.9565131151608,143.7615950430006,0,-43.03247833251953,18.44249153137207,-27.738706588745117
0.14072267711162567,0.13765020668506622,9.649415969848633,-0.0008391006169246387,0.010910172037727614,0.0020740435894468653,0.8000004291534424,2019-08-06 15:43:06:625,-144.66681463474094,144.4704900010385,0,-43.03247833251953,18.44249153137207,-27.738706588745117
0.08085393160581589,0.11609746515750885,9.637442588806152,0.0012919485988449018,0.012242078195822388,0.006602523018538008,0.8099954128265381,2019-08-06 15:43:06:635,-145.37073529864105,145.16655153152274,0,-43.03247833251953,18.44249153137207,-27.738706588745117
0.0664854347705841,0.08736047148704529,9.627863883972168,0.003689378747147923,0.014639508864274061,0.00047575672638364575,0.8199968338012695,2019-08-06 15:43:06:645,-146.0636288044252,145.85075120179476,0,-43.03247833251953,18.44249153137207,-27.738706588745117
0.08564343303442001,0.099334217607975,9.637442588806152,0.0007591862786478714,0.010910172037727614,0.0028731869722145387,0.8299922943115234,2019-08-06 15:43:06:655,-146.73829654772146,146.52149942503013,0,-42.28278350830078,19.492063522338867,-28.488401412963867
0.11198568344116211,0.1256764680147171,9.64462661743164,0.0012919485988449018,0.014373127216536186,-0.001655292456876604,0.8399925231933594,2019-08-06 15:43:06:665,-147.39829643626697,147.17541272777476,0,-42.28278350830078,19.492063522338867,-28.488401412963867
0.11677517741918564,0.0801762193441391,9.625469207763672,0.0015583297264341264,0.014905889471714633,0.003405949227392988,0.8499934673309326,2019-08-06 15:43:06:675,-148.04479948929293,147.82148460341912,0,-42.28278350830078,19.492063522338867,-28.488401412963867
0.12395942956209183,0.09454471617937088,9.651811599731445,-0.0005727194893354142,0.015971413982071532,-0.0021880547120550534,0.8599927425384521,2019-08-06 15:43:06:685,-148.6781544478711,148.45415196511576,0,-42.28278350830078,19.492063522338867,-28.488401412963867
0.10240668058395386,0.07778146862983704,9.627863883972168,-3.9957173202045016e-05,0.010377409782549165,0.004205092610160662,0.8699967861175537,2019-08-06 15:43:06:695,-149.29823255612354,149.07583396336858,0,-42.28278350830078,19.492063522338867,-28.488401412963867
0.09043293446302414,0.099334217607975,9.618284225463867,-0.0024373874474785677,0.011975696548084513,0.0028731869722145387,0.8799924850463867,2019-08-06 15:43:06:705,-149.9082155516471,149.6838510973931,0,-42.28278350830078,19.492063522338867,-28.488401412963867
0.10719618201255798,0.09214996546506882,9.670969009399414,-0.0008391006169246387,0.011176553685465489,-0.0003233867214026093,0.8899953365325928,2019-08-06 15:43:06:715,-150.50362746692173,150.27972682111593,0,-42.28278350830078,19.492063522338867,-28.488401412963867
0.0928276851773262,0.06341297179460526,9.630258560180664,-0.0008391006169246387,0.011176553685465489,0.00020937558253977584,0.899991512298584,2019-08-06 15:43:06:725,-151.08878280591654,150.8670577846577,0,-42.28278350830078,19.492063522338867,-28.488401412963867
0.14072267711162567,0.09214996546506882,9.551231384277344,-0.0019046251923001184,0.011975696548084513,0.0007421378864821609,0.9099941253662109,2019-08-06 15:43:06:735,-151.65685116521598,151.43973094005662,0,-42.28278350830078,19.492063522338867,-28.488401412963867
0.10240668058395386,0.11370271444320679,9.613494873046875,-0.002171006319889343,0.011176553685465489,-0.0005897678815011245,0.9199986457824707,2019-08-06 15:43:06:745,-152.21778632226105,151.99860331149657,0,-42.28278350830078,19.492063522338867,-28.488401412963867
0.12874892354011536,0.10891321301460266,9.685338020324707,-0.0008391006169246387,0.011709315940643939,0.0012749002066791914,0.9299919605255127,2019-08-06 15:43:06:755,-152.76476900248568,152.54621661868805,0,-42.28278350830078,19.492063522338867,-28.488401412963867
0.15509118139743805,0.13046596944332123,9.658995628356934,0.0002264239747054862,0.012508459843560263,0.0010085190140713856,0.9399950504302979,2019-08-06 15:43:06:765,-153.29810128302117,153.07968794234563,0,-42.28278350830078,19.492063522338867,-28.488401412963867
0.1000119298696518,0.10891321301460266,9.66139030456543,0.0015583297264341264,0.012774840451000838,-0.001655292456876604,0.9499936103820801,2019-08-06 15:43:06:775,-153.82744951546084,153.60430190748957,0,-42.28278350830078,19.492063522338867,-28.488401412963867
0.11677517741918564,0.10891321301460266,9.66139030456543,-0.0003063383292368989,0.012774840451000838,0.003672330354982212,0.9599971771240234,2019-08-06 15:43:06:785,-154.3442263746115,154.11947053725328,0,-42.43272399902344,18.14261245727539,-27.738706588745117
0.10240668058395386,0.11609746515750885,9.60391616821289,0.0004928051185493561,0.01410674660909561,0.00020937558253977584,0.9699945449829102,2019-08-06 15:43:06:795,-154.85304223175785,154.6229527014456,0,-42.43272399902344,18.14261245727539,-27.738706588745117
0.12156467884778976,0.12088696658611298,9.63265323638916,0.0007591862786478714,0.011176553685465489,-0.0021880547120550534,0.9799935817718506,2019-08-06 15:43:06:805,-155.34779564447146,155.11568725750254,0,-42.43272399902344,18.14261245727539,-27.738706588745117
0.13353842496871948,0.0801762193441391,9.637442588806152,0.0023574731092018,0.009578266919930143,-0.0003233867214026093,0.9899919033050537,2019-08-06 15:43:06:815,-155.8303399821064,155.60251708714432,0,-42.43272399902344,18.14261245727539,-27.738706588745117
0.10240668058395386,0.08736047148704529,9.67336368560791,-0.002171006319889343,0.012242078195822388,-0.0021880547120550534,0.999997615814209,2019-08-06 15:43:06:825,-156.30848028270458,156.0813379381126,0,-42.43272399902344,18.14261245727539,-27.738706588745117
0.15988066792488098,0.11370271444320679,9.613494873046875,-0.0024373874474785677,0.014905889471714633,-0.0032535792224119516,1.0099990367889404,2019-08-06 15:43:06:835,-156.77162570029384,156.54752738565875,0,-42.43272399902344,18.14261245727539,-27.738706588745117
0.12874892354011536,0.12088696658611298,9.606310844421387,-0.0003063383292368989,0.014373127216536186,0.0018076624618576407,1.0199999809265137,2019-08-06 15:43:06:845,-157.2289071845654,157.0023292847917,0,-42.43272399902344,18.14261245727539,-27.738706588745117
0.10480143129825592,0.099334217607975,9.63265323638916,-0.0024373874474785677,0.010111029175108591,0.003672330354982212,1.0299930572509766,2019-08-06 15:43:06:855,-157.6775355878657,157.45183380524443,0,-42.43272399902344,18.14261245727539,-27.738706588745117
0.12874892354011536,0.08257097005844116,9.647021293640137,0.0004928051185493561,0.013041222098738713,-0.0005897678815011245,1.039991855621338,2019-08-06 15:43:06:865,-158.11601416953698,157.89271254974835,0,-42.43272399902344,18.14261245727539,-27.738706588745117
0.12156467884778976,0.1065184697508812,9.615889549255371,0.0007591862786478714,0.010111029175108591,0.0007421378864821609,1.0499937534332275,2019-08-06 15:43:06:875,-158.54488632763997,158.32173875932733,0,-42.43272399902344,18.14261245727539,-27.738706588745117
0.09761717915534973,0.0801762193441391,9.608705520629883,0.004222141002326372,0.01064379143028704,-0.002987198094822727,1.0599970817565918,2019-08-06 15:43:06:885,-158.96832582962455,158.743371030091,0,-42.43272399902344,18.14261245727539,-27.738706588745117
0.11438042670488358,0.08736047148704529,9.611100196838379,-0.005367579850960038,0.01064379143028704,0.0007421378864821609,1.0699965953826904,2019-08-06 15:43:06:895,-159.38129875130923,159.16110179390384,0,-42.43272399902344,18.14261245727539,-27.738706588745117
0.06888018548488617,0.12328171730041504,9.615889549255371,-0.0003063383292368989,0.011442934292906064,-5.7005565367755386e-05,1.079996109008789,2019-08-06 15:43:06:905,-159.79188941589487,159.56336120860362,0,-43.03247833251953,18.44249153137207,-28.33846092224121
0.12156467884778976,0.12088696658611298,9.656600952148438,-0.0019046251923001184,0.009844647527370716,0.0031395680998037635,1.0899932384490967,2019-08-06 15:43:06:915,-160.18715289703584,159.95881863104768,0,-43.03247833251953,18.44249153137207,-28.33846092224121
0.09043293446302414,0.07538671791553497,9.670969009399414,-0.0037692930854246903,0.0074472173790676955,-0.0019216735844658289,1.0999996662139893,2019-08-06 15:43:06:925,-160.57687902013663,160.3528276612146,0,-43.03247833251953,18.44249153137207,-28.33846092224121
0.09522242844104767,0.09693946689367294,9.579968452453613,0.0007591862786478714,0.009045504664751694,0.00047575672638364575,1.1099903583526611,2019-08-06 15:43:06:935,-160.9590260189275,160.73375012656683,0,-43.03247833251953,18.44249153137207,-28.33846092224121
0.0928276851773262,0.1065184697508812,9.685338020324707,-0.0019046251923001184,0.011975696548084513,0.0007421378864821609,1.119992971420288,2019-08-06 15:43:06:945,-161.33558907130745,161.10754268021446,0,-43.03247833251953,18.44249153137207,-28.33846092224121
0.10959093272686005,0.1256764680147171,9.62067985534668,-0.0024373874474785677,0.011176553685465489,0.003672330354982212,1.1299922466278076,2019-08-06 15:43:06:955,-161.7020996841336,161.47179189130304,0,-43.03247833251953,18.44249153137207,-28.33846092224121
0.07127493619918823,0.0801762193441391,9.656600952148438,-0.0019046251923001184,0.014373127216536186,0.005004236253002661,1.139993667602539,2019-08-06 15:43:06:965,-162.06767153090712,161.8339116325824,0,-43.03247833251953,18.44249153137207,-28.33846092224121
0.09522242844104767,0.09693946689367294,9.642231941223145,0.002890235364380249,0.01357398435391716,0.003405949227392988,1.1499967575073242,2019-08-06 15:43:06:975,-162.42262604017066,162.184089807919,0,-43.03247833251953,18.44249153137207,-28.33846092224121
0.1191699281334877,0.11370271444320679,9.608705520629883,0.002890235364380249,0.013307602706179285,0.0007421378864821609,1.159994125366211,2019-08-06 15:43:06:985,-162.76743250742908,162.5252262432958,0,-43.03247833251953,18.44249153137207,-28.33846092224121
0.12395942956209183,0.09214996546506882,9.608705520629883,-0.002703768575067792,0.011709315940643939,0.004471473997824211,1.1699960231781006,2019-08-06 15:43:06:995,-163.10387752882147,162.8652508796085,0,-43.03247833251953,18.44249153137207,-28.33846092224121
0.1191699281334877,0.09214996546506882,9.656600952148438,-0.0013718629371216693,0.013041222098738713,0.0031395680998037635,1.1799945831298828,2019-08-06 15:43:07:005,-163.43498078493312,163.19778126301438,0,-43.03247833251953,18.44249153137207,-28.33846092224121
0.10959093272686005,0.11609746515750885,9.625469207763672,-0.002970149702657017,0.011176553685465489,0.003938711482571438,1.1899943351745605,2019-08-06 15:43:07:015,-163.75951035684778,163.52167255639102,0,-43.03247833251953,18.44249153137207,-28.33846092224121
0.08564343303442001,0.11130796372890472,9.642231941223145,0.0010255674062370958,0.01357398435391716,-5.7005565367755386e-05,1.1999969482421875,2019-08-06 15:43:07:025,-164.0817660262823,163.83743547120554,0,-43.03247833251953,18.44249153137207,-28.33846092224121
0.12395942956209183,0.12088696658611298,9.611100196838379,0.002890235364380249,0.011176553685465489,0.006069760763359559,1.2099940776824951,2019-08-06 15:43:07:035,-164.39162586551592,164.14465197119057,0,-42.732601165771484,18.742368698120117,-27.13895034790039
0.10240668058395386,0.0801762193441391,9.649415969848633,-0.002703768575067792,0.013041222098738713,-0.0013889113292873795,1.2199912071228027,2019-08-06 15:43:07:045,-164.6989530343807,164.45375555719306,0,-42.732601165771484,18.742368698120117,-27.13895034790039
0.11677517741918564,0.13525545597076416,9.623074531555176,-0.0024373874474785677,0.014905889471714633,0.00047575672638364575,1.2299926280975342,2019-08-06 15:43:07:055,-164.99943989554205,164.7499440727973,0,-42.732601165771484,18.742368698120117,-27.13895034790039
0.10480143129825592,0.10172896832227707,9.615889549255371,-0.002703768575067792,0.016237795629809405,-0.0003233867214026093,1.2399966716766357,2019-08-06 15:43:07:065,-165.2960837010414,165.0443414841286,0,-42.732601165771484,18.742368698120117,-27.13895034790039
0.13114367425441742,0.10891321301460266,9.63265323638916,-0.004568436468192365,0.00718083625147847,0.003672330354982212,1.2499942779541016,2019-08-06 15:43:07:075,-165.57859299754702,165.333063276112,0,-42.732601165771484,18.742368698120117,-27.13895034790039
0.16227541863918304,0.10172896832227707,9.625469207763672,-0.0003063383292368989,0.009045504664751694,-0.0003233867214026093,1.2599902153015137,2019-08-06 15:43:07:085,-165.85278099543783,165.6144635296842,0,-42.732601165771484,18.742368698120117,-27.13895034790039
0.11438042670488358,0.09693946689367294,9.577573776245117,-0.0008391006169246387,0.009844647527370716,-0.0005897678815011245,1.2699964046478271,2019-08-06 15:43:07:095,-166.12757207651904,165.8910477095016,0,-42.732601165771484,18.742368698120117,-27.13895034790039
0.11677517741918564,0.09214996546506882,9.62067985534668,-0.002970149702657017,0.009844647527370716,-0.0027208169672335025,1.279991865158081,2019-08-06 15:43:07:105,-166.3966375170302,166.16391812087673,0,-42.732601165771484,18.742368698120117,-27.13895034790039
0.15748591721057892,0.1065184697508812,9.637442588806152,-0.0019046251923001184,0.012242078195822388,0.0031395680998037635,1.2899987697601318,2019-08-06 15:43:07:115,-166.65685962729393,166.42904514938354,0,-42.732601165771484,18.742368698120117,-27.13895034790039
0.1191699281334877,0.09214996546506882,9.654206275939941,-0.0024373874474785677,0.012774840451000838,-0.0053846282431257485,1.2999930381774902,2019-08-06 15:43:07:125,-166.91674710451278,166.69089455231182,0,-42.732601165771484,18.742368698120117,-27.13895034790039
0.12395942956209183,0.08736047148704529,9.639837265014648,-0.004834817595781589,0.009844647527370716,-0.003519960350001176,1.3099935054779053,2019-08-06 15:43:07:135,-167.16920556986406,166.94940702169268,0,-42.732601165771484,18.742368698120117,-27.13895034790039
0.14311742782592773,0.08496572077274323,9.613494873046875,-0.0024373874474785677,0.016237795629809405,-0.005118247115536523,1.3199944496154785,2019-08-06 15:43:07:145,-167.41788167565625,167.2016600648682,0,-42.732601165771484,18.742368698120117,-27.13895034790039
0.11677517741918564,0.1065184697508812,9.639837265014648,-0.002703768575067792,0.010111029175108591,-0.001655292456876604,1.329993724822998,2019-08-06 15:43:07:155,-167.6613202325675,167.44648326983605,0,-42.58266067504883,18.292551040649414,-29.687911987304688
0.15748591721057892,0.10172896832227707,9.56320571899414,0.00555404690034682,0.009311885272192268,-0.0005897678815011245,1.3399972915649414,2019-08-06 15:43:07:165,-167.89445518577003,167.68224464097025,0,-42.58266067504883,18.292551040649414,-29.687911987304688
0.12874892354011536,0.12328171730041504,9.613494873046875,-0.0013718629371216693,0.01410674660909561,-0.0024544358396442778,1.350003957748413,2019-08-06 15:43:07:175,-168.12914650113473,167.9146763522622,0,-42.58266067504883,18.292551040649414,-29.687911987304688
0.13353842496871948,0.07778146862983704,9.639837265014648,0.001824710854023351,0.013307602706179285,-0.004851865987947299,1.3599944114685059,2019-08-06 15:43:07:185,-168.35815555172533,168.14611332110175,0,-42.58266067504883,18.292551040649414,-29.687911987304688
0.12156467884778976,0.07299196720123291,9.608705520629883,-0.0011054818095324445,0.011442934292906064,-0.0021880547120550534,1.369995355606079,2019-08-06 15:43:07:195,-168.58292144487478,168.37510712676607,0,-42.58266067504883,18.292551040649414,-29.687911987304688
0.0736696869134903,0.056228723376989365,9.6901273727417,-0.0008391006169246387,0.014905889471714633,-0.0032535792224119516,1.3799922466278076,2019-08-06 15:43:07:205,-168.8109183367282,168.60142668297397,0,-42.58266067504883,18.292551040649414,-29.687911987304688
0.12156467884778976,0.09454471617937088,9.594337463378906,0.0007591862786478714,0.01570503337463096,-0.000856149009090349,1.3899943828582764,2019-08-06 15:43:07:215,-169.0290017067501,168.81768003686332,0,-42.58266067504883,18.292551040649414,-29.687911987304688
0.13353842496871948,0.10172896832227707,9.611100196838379,0.0010255674062370958,0.01357398435391716,-0.0019216735844658289,1.3999927043914795,2019-08-06 15:43:07:225,-169.24012162581207,169.02862215424838,0,-42.58266067504883,18.292551040649414,-29.687911987304688
0.0928276851773262,0.099334217607975,9.589548110961914,-0.0013718629371216693,0.012774840451000838,0.0007421378864821609,1.4099948406219482,2019-08-06 15:43:07:235,-169.45140156199258,169.23695052719998,0,-42.58266067504883,18.292551040649414,-29.687911987304688
0.08803818374872208,0.12807121872901917,9.63265323638916,0.004488522389989922,0.009578266919930143,0.0020740435894468653,1.4199938774108887,2019-08-06 15:43:07:245,-169.65727832725423,169.4344568040828,0,-42.58266067504883,18.292551040649414,-29.687911987304688
0.07606443762779236,0.12328171730041504,9.630258560180664,-0.003502911957835466,0.013041222098738713,-0.007249296656398971,1.4299952983856201,2019-08-06 15:43:07:255,-169.86240562261247,169.6330661950949,0,-42.58266067504883,18.292551040649414,-29.687911987304688
0.10959093272686005,0.1400449573993683,9.654206275939941,0.0012919485988449018,0.010910172037727614,0.003405949227392988,1.4400334358215332,2019-08-06 15:43:07:265,-170.05829947430902,169.82305506789882,0,-42.58266067504883,18.292551040649414,-29.687911987304688
0.10959093272686005,0.10172896832227707,9.680547714233398,0.005820428027936045,0.009045504664751694,0.004471473997824211,1.4499919414520264,2019-08-06 15:43:07:275,-170.2492193935869,170.01129784401218,0,-42.58266067504883,18.292551040649414,-29.687911987304688
0.1000119298696518,0.05862347409129143,9.623074531555176,0.0007591862786478714,0.013307602706179285,0.0026068058446253144,1.4599943161010742,2019-08-06 15:43:07:285,-170.43979999036412,170.20366470766544,0,-43.632232666015625,18.14261245727539,-29.537973403930664
0.10719618201255798,0.11370271444320679,9.649415969848633,-0.002171006319889343,0.011975696548084513,-0.004585484860358075,1.4699933528900146,2019-08-06 15:43:07:295,-170.62499813014668,170.38730818169208,0,-43.632232666015625,18.14261245727539,-29.537973403930664
0.10240668058395386,0.12328171730041504,9.663784980773926,-0.002703768575067792,0.011975696548084513,0.0007421378864821609,1.479997158050537,2019-08-06 15:43:07:305,-170.8070823038042,170.56646300955813,0,-43.632232666015625,18.14261245727539,-29.537973403930664
0.15030167996883392,0.1065184697508812,9.58236312866211,0.0023574731092018,0.014373127216536186,0.001541281334268416,1.4899942874908447,2019-08-06 15:43:07:315,-170.9810363434365,170.7410728281734,0,-43.632232666015625,18.14261245727539,-29.537973403930664
0.10959093272686005,0.13525545597076416,9.635047912597656,-0.005367579850960038,0.011442934292906064,0.0026068058446253144,1.4999923706054688,2019-08-06 15:43:07:325,-171.15480626936773,170.9131795362974,0,-43.632232666015625,18.14261245727539,-29.537973403930664
0.10959093272686005,0.10412371903657913,9.675758361816406,-0.005633960978549262,0.011975696548084513,0.006602523018538008,1.5099921226501465,2019-08-06 15:43:07:335,-171.32545583949664,171.0857482654005,0,-43.632232666015625,18.14261245727539,-29.537973403930664
0.1000119298696518,0.11130796372890472,9.654206275939941,0.0004928051185493561,0.009578266919930143,-5.7005565367755386e-05,1.5199995040893555,2019-08-06 15:43:07:345,-171.49245828582943,171.25054516263629,0,-43.632232666015625,18.14261245727539,-29.537973403930664
0.0928276851773262,0.09454471617937088,9.66139030456543,0.0012919485988449018,0.016770557884987856,0.0007421378864821609,1.52998948097229,2019-08-06 15:43:07:355,-171.66100658472385,171.41359618269703,0,-43.632232666015625,18.14261245727539,-29.537973403930664
0.13353842496871948,0.1256764680147171,9.63265323638916,-3.9957173202045016e-05,0.012508459843560263,0.003938711482571438,1.5399925708770752,2019-08-06 15:43:07:365,-171.81892718274872,171.5703968796563,0,-43.632232666015625,18.14261245727539,-29.537973403930664
0.14072267711162567,0.06820247322320938,9.618284225463867,0.001824710854023351,0.009311885272192268,0.0010085190140713856,1.5499918460845947,2019-08-06 15:43:07:375,-171.97101246678398,171.7298389853501,0,-43.632232666015625,18.14261245727539,-29.537973403930664
0.07845918089151382,0.14962396025657654,9.678153038024902,0.0023574731092018,0.008512742409573244,0.0020740435894468653,1.5599915981292725,2019-08-06 15:43:07:385,-172.1270824481478,171.87620411054715,0,-43.632232666015625,18.14261245727539,-29.537973403930664
0.13353842496871948,0.11849221587181091,9.613494873046875,-3.9957173202045016e-05,0.013041222098738713,0.00047575672638364575,1.5699961185455322,2019-08-06 15:43:07:395,-172.27595016174433,172.0245790776437,0,-43.632232666015625,18.14261245727539,-29.537973403930664
0.12874892354011536,0.11130796372890472,9.623074531555176,-0.0011054818095324445,0.009844647527370716,0.005004236253002661,1.5799951553344727,2019-08-06 15:43:07:405,-172.42062787680695,172.17145420302086,0,-43.78217315673828,19.492063522338867,-28.488401412963867
0.10959093272686005,0.08257097005844116,9.627863883972168,-0.0024373874474785677,0.012774840451000838,0.0012749002066791914,1.589993953704834,2019-08-06 15:43:07:415,-172.56634448103532,172.31956612630984,0,-43.78217315673828,19.492063522338867,-28.488401412963867
0.10480143129825592,0.11130796372890472,9.642231941223145,-0.005633960978549262,0.014905889471714633,-0.0024544358396442778,1.5999934673309326,2019-08-06 15:43:07:425,-172.7109323533979,172.46311048246415,0,-43.78217315673828,19.492063522338867,-28.488401412963867
0.12395942956209183,0.09214996546506882,9.551231384277344,-0.0037692930854246903,0.010910172037727614,-0.001122530201698155,1.6099927425384521,2019-08-06 15:43:07:435,-172.84796802571483,172.60490915953955,0,-43.78217315673828,19.492063522338867,-28.488401412963867
0.08564343303442001,0.07299196720123291,9.589548110961914,-0.0003063383292368989,0.008779123017013819,0.00047575672638364575,1.6200008392333984,2019-08-06 15:43:07:445,-172.98570832013436,172.74426102205373,0,-43.78217315673828,19.492063522338867,-28.488401412963867
0.1646701693534851,0.07299196720123291,9.642231941223145,0.0007591862786478714,0.012774840451000838,0.0023404247170360896,1.629992961883545,2019-08-06 15:43:07:455,-173.11359349887502,172.8802754077693,0,-43.78217315673828,19.492063522338867,-28.488401412963867
0.13114367425441742,0.12807121872901917,9.623074531555176,-0.0037692930854246903,0.009045504664751694,-0.000856149009090349,1.6399962902069092,2019-08-06 15:43:07:465,-173.24078673758052,173.00953723823585,0,-43.78217315673828,19.492063522338867,-28.488401412963867
0.13353842496871948,0.06580772250890732,9.668574333190918,0.005021284645168371,0.014905889471714633,0.0031395680998037635,1.6499927043914795,2019-08-06 15:43:07:475,-173.36851172345843,173.13872867527684,0,-43.78217315673828,19.492063522338867,-28.488401412963867
0.1455121785402298,0.09214996546506882,9.635047912597656,-0.002171006319889343,0.009311885272192268,0.0026068058446253144,1.6599979400634766,2019-08-06 15:43:07:485,-173.48906809747606,173.26621451086478,0,-43.78217315673828,19.492063522338867,-28.488401412963867
0.1000119298696518,0.12088696658611298,9.658995628356934,0.0007591862786478714,0.013041222098738713,-0.0019216735844658289,1.669994592666626,2019-08-06 15:43:07:495,-173.614742207759,173.38612314637302,0,-43.78217315673828,19.492063522338867,-28.488401412963867
0.1191699281334877,0.09454471617937088,9.647021293640137,-0.0008391006169246387,0.014639508864274061,0.0010085190140713856,1.6800036430358887,2019-08-06 15:43:07:505,-173.73652005949322,173.50764218630974,0,-43.78217315673828,19.492063522338867,-28.488401412963867
0.1191699281334877,0.06580772250890732,9.6901273727417,0.0002264239747054862,0.017303320140166306,-0.000856149009090349,1.6899948120117188,2019-08-06 15:43:07:515,-173.85740502173897,173.62958028047035,0,-43.78217315673828,19.492063522338867,-28.488401412963867
0.13114367425441742,0.08257097005844116,9.594337463378906,0.0034229976195586987,0.013041222098738713,-0.0013889113292873795,1.6999938488006592,2019-08-06 15:43:07:525,-173.97191645783056,173.74520509435004,0,-43.78217315673828,19.492063522338867,-28.488401412963867
0.1455121785402298,0.09454471617937088,9.64462661743164,-0.0016382440647108938,0.010377409782549165,0.001541281334268416,1.7099921703338623,2019-08-06 15:43:07:535,-174.08101649601997,173.85998784432545,0,-43.93211364746094,18.44249153137207,-27.738706588745117
0.12395942956209183,0.09454471617937088,9.635047912597656,0.0015583297264341264,0.009844647527370716,0.0020740435894468653,1.720001220703125,2019-08-06 15:43:07:545,-174.19018699463862,173.97066826349507,0,-43.93211364746094,18.44249153137207,-27.738706588745117
0.1263541728258133,0.09454471617937088,9.59194278717041,-0.004302055340603139,0.010377409782549165,-0.0005897678815011245,1.729994773864746,2019-08-06 15:43:07:555,-174.29711218515985,174.0823743809663,0,-43.93211364746094,18.44249153137207,-27.738706588745117
0.11198568344116211,0.08736047148704529,9.611100196838379,-3.9957173202045016e-05,0.009578266919930143,0.0012749002066791914,1.739980697631836,2019-08-06 15:43:07:565,-174.4031892910832,174.19033373988412,0,-43.93211364746094,18.44249153137207,-27.738706588745117
0.13593317568302155,0.1256764680147171,9.618284225463867,-0.002171006319889343,0.011176553685465489,0.001541281334268416,1.7499921321868896,2019-08-06 15:43:07:575,-174.50521439639274,174.29277532245726,0,-43.93211364746094,18.44249153137207,-27.738706588745117
0.152696430683136,0.09693946689367294,9.663784980773926,0.00608680915552527,0.012242078195822388,-5.7005565367755386e-05,1.7600030899047852,2019-08-06 15:43:07:585,-174.60388656817753,174.39200380027242,0,-43.93211364746094,18.44249153137207,-27.738706588745117
0.15509118139743805,0.09693946689367294,9.647021293640137,-0.0024373874474785677,0.010910172037727614,-0.001122530201698155,1.77000093460083,2019-08-06 15:43:07:595,-174.69951273791347,174.49401751062874,0,-43.93211364746094,18.44249153137207,-27.738706588745117
0.10480143129825592,0.1256764680147171,9.675758361816406,0.003955759874737148,0.012242078195822388,-0.0003233867214026093,1.7799944877624512,2019-08-06 15:43:07:605,-174.79998064555414,174.58703420972105,0,-43.93211364746094,18.44249153137207,-27.738706588745117
0.11198568344116211,0.07299196720123291,9.67336368560791,0.0007591862786478714,0.008512742409573244,-0.0003233867214026093,1.7899844646453857,2019-08-06 15:43:07:615,-174.89549080014717,174.68622113902916,0,-43.93211364746094,18.44249153137207,-27.738706588745117
0.12874892354011536,0.0538339726626873,9.606310844421387,0.0004928051185493561,0.013307602706179285,-0.0032535792224119516,1.800013542175293,2019-08-06 15:43:07:625,-174.98971765720788,174.78579753384275,0,-43.93211364746094,18.44249153137207,-27.738706588745117
0.15988066792488098,0.08975522220134735,9.654206275939941,0.0002264239747054862,0.009844647527370716,0.0010085190140713856,1.810009241104126,2019-08-06 15:43:07:635,-175.07647322285112,174.87930122289345,0,-43.93211364746094,18.44249153137207,-27.738706588745117
0.11677517741918564,0.05143922194838524,9.64462661743164,0.004488522389989922,0.009311885272192268,0.0018076624618576407,1.8200335502624512,2019-08-06 15:43:07:645,-175.16631124465798,174.9730771365616,0,-43.93211364746094,18.44249153137207,-27.738706588745117
0.12395942956209183,0.11849221587181091,9.570389747619629,-0.0003063383292368989,0.010910172037727614,0.0031395680998037635,1.8300082683563232,2019-08-06 15:43:07:655,-175.25425406190467,175.0596001653558,0,-42.882537841796875,18.592430114746094,-27.88864517211914
0.09522242844104767,0.11130796372890472,9.546442031860352,-0.004035674213013915,0.01064379143028704,-0.0013889113292873795,1.840014934539795,2019-08-06 15:43:07:665,-175.3437197099561,175.14731535400097,0,-42.882537841796875,18.592430114746094,-27.88864517211914
0.1455121785402298,0.10891321301460266,9.663784980773926,0.0020910919816125757,0.012774840451000838,-0.0005897678815011245,1.850003719329834,2019-08-06 15:43:07:675,-175.42675703768847,175.23028201710306,0,-42.882537841796875,18.592430114746094,-27.88864517211914
0.13353842496871948,0.08496572077274323,9.62067985534668,-0.005101198723370813,0.011442934292906064,0.0023404247170360896,1.8600044250488281,2019-08-06 15:43:07:685,-175.50874285177093,175.31842092282568,0,-42.882537841796875,18.592430114746094,-27.88864517211914
0.1191699281334877,0.099334217607975,9.70210075378418,-0.0008391006169246387,0.014373127216536186,0.0012749002066791914,1.8700134754180908,2019-08-06 15:43:07:695,-175.59257133198832,175.40079212530327,0,-42.882537841796875,18.592430114746094,-27.88864517211914
0.09761717915534973,0.11370271444320679,9.680547714233398,0.0004928051185493561,0.01064379143028704,-0.001122530201698155,1.8800151348114014,2019-08-06 15:43:07:705,-175.6751425236075,175.4790408135836,0,-42.882537841796875,18.592430114746094,-27.88864517211914
0.12156467884778976,0.12088696658611298,9.64462661743164,-0.0008391006169246387,0.012242078195822388,-0.0003233867214026093,1.8900017738342285,2019-08-06 15:43:07:715,-175.75406159180005,175.55556822320082,0,-42.882537841796875,18.592430114746094,-27.88864517211914
0.13114367425441742,0.10412371903657913,9.651811599731445,-0.0008391006169246387,0.006914455123889247,-0.0021880547120550534,1.9000020027160645,2019-08-06 15:43:07:725,-175.82729377346053,175.63256636843502,0,-42.882537841796875,18.592430114746094,-27.88864517211914
0.10480143129825592,0.10891321301460266,9.642231941223145,-0.0024373874474785677,0.009311885272192268,-0.0021880547120550534,1.9100096225738525,2019-08-06 15:43:07:735,-175.90352602543317,175.70834160796448,0,-42.882537841796875,18.592430114746094,-27.88864517211914
0.11677517741918564,0.09214996546506882,9.649415969848633,0.0010255674062370958,0.009844647527370716,-0.0024544358396442778,1.9200046062469482,2019-08-06 15:43:07:745,-175.97711353866464,175.78265628114357,0,-42.882537841796875,18.592430114746094,-27.88864517211914
0.10719618201255798,0.08736047148704529,9.63265323638916,0.0015583297264341264,0.009578266919930143,0.0012749002066791914,1.9300200939178467,2019-08-06 15:43:07:755,-176.050206081134,175.85573454605614,0,-42.882537841796875,18.592430114746094,-27.88864517211914
0.11438042670488358,0.08736047148704529,9.611100196838379,-0.003502911957835466,0.009844647527370716,-0.0013889113292873795,1.9400219917297363,2019-08-06 15:43:07:765,-176.12109401931872,175.93017155092966,0,-42.882537841796875,18.592430114746094,-27.88864517211914
0.10480143129825592,0.06341297179460526,9.618284225463867,-0.0019046251923001184,0.012242078195822388,-0.0021880547120550534,1.9499971866607666,2019-08-06 15:43:07:775,-176.1930435239776,176.00508004438413,0,-42.882537841796875,18.592430114746094,-27.88864517211914
0.14072267711162567,0.08736047148704529,9.608705520629883,-0.0008391006169246387,0.014639508864274061,0.004205092610160662,1.9600117206573486,2019-08-06 15:43:07:785,-176.26063355091625,176.0750321287295,0,-41.83296585083008,18.14261245727539,-28.938217163085938
0.13114367425441742,0.08496572077274323,9.623074531555176,-0.0011054818095324445,0.015438651726893083,-0.001122530201698155,1.9703302383422852,2019-08-06 15:43:07:795,-176.3287501575238,176.14405452990428,0,-41.83296585083008,18.14261245727539,-28.938217163085938
0.14072267711162567,0.1520187109708786,9.627863883972168,-0.004834817595781589,0.011975696548084513,0.00020937558253977584,1.9800076484680176,2019-08-06 15:43:07:805,-176.39193484521383,176.20570873015708,0,-41.83296585083008,18.14261245727539,-28.938217163085938
0.13114367425441742,0.1065184697508812,9.67336368560791,0.0002264239747054862,0.013840364961357736,-0.003519960350001176,1.9900197982788086,2019-08-06 15:43:07:815,-176.456342487433,176.26884949806012,0,-41.83296585083008,18.14261245727539,-28.938217163085938
0.1191699281334877,0.09454471617937088,9.58236312866211,0.0012919485988449018,0.009844647527370716,-0.0027208169672335025,2.0000195503234863,2019-08-06 15:43:07:825,-176.51849294745207,176.33144124988675,0,-41.83296585083008,18.14261245727539,-28.938217163085938
0.14311742782592773,0.08736047148704529,9.64462661743164,0.0002264239747054862,0.011176553685465489,0.0007421378864821609,2.0100228786468506,2019-08-06 15:43:07:835,-176.5773977067694,176.39430589236954,0,-41.83296585083008,18.14261245727539,-28.938217163085938
0.10719618201255798,0.08257097005844116,9.647021293640137,-0.0013718629371216693,0.01357398435391716,0.0031395680998037635,2.0200045108795166,2019-08-06 15:43:07:845,-176.6407248172598,176.457380755589,0,-41.83296585083008,18.14261245727539,-28.938217163085938
0.0928276851773262,0.1065184697508812,9.647021293640137,0.0031566164919694735,0.013041222098738713,0.0007421378864821609,2.0300204753875732,2019-08-06 15:43:07:855,-176.704218499446,176.51380565714987,0,-41.83296585083008,18.14261245727539,-28.938217163085938
0.08803818374872208,0.11849221587181091,9.642231941223145,-0.0011054818095324445,0.009844647527370716,-0.001122530201698155,2.040017604827881,2019-08-06 15:43:07:865,-176.7651978328555,176.57006878381327,0,-41.83296585083008,18.14261245727539,-28.938217163085938
0.09761717915534973,0.099334217607975,9.567995071411133,-0.0003063383292368989,0.016770557884987856,0.0023404247170360896,2.05002498626709,2019-08-06 15:43:07:875,-176.82762670907977,176.62694316010445,0,-41.83296585083008,18.14261245727539,-28.938217163085938
0.10240668058395386,0.09454471617937088,9.613494873046875,-0.002171006319889343,0.011176553685465489,-0.001122530201698155,2.0600197315216064,2019-08-06 15:43:07:885,-176.88514022072783,176.6843534344088,0,-41.83296585083008,18.14261245727539,-28.938217163085938
0.1718544214963913,0.10172896832227707,9.611100196838379,0.0004928051185493561,0.01410674660909561,-0.001122530201698155,2.0700199604034424,2019-08-06 15:43:07:895,-176.93487078130448,176.73826112615382,0,-41.83296585083008,18.14261245727539,-28.938217163085938
0.08803818374872208,0.08257097005844116,9.709284782409668,0.0004928051185493561,0.013307602706179285,-0.0027208169672335025,2.080016613006592,2019-08-06 15:43:07:905,-176.99325284960796,176.79347427647983,0,-44.381927490234375,18.89230728149414,-27.88864517211914
0.10240668058395386,0.11849221587181091,9.682943344116211,0.004222141002326372,0.010377409782549165,0.003938711482571438,2.0900211334228516,2019-08-06 15:43:07:915,-177.04709859180073,176.841210882479,0,-44.381927490234375,18.89230728149414,-27.88864517211914
0.14311742782592773,0.07778146862983704,9.625469207763672,-3.9957173202045016e-05,0.013041222098738713,0.0031395680998037635,2.100022315979004,2019-08-06 15:43:07:925,-177.09644318823757,176.89514939295805,0,-44.381927490234375,18.89230728149414,-27.88864517211914
0.0928276851773262,0.08496572077274323,9.670969009399414,0.0004928051185493561,0.011975696548084513,0.001541281334268416,2.1100189685821533,2019-08-06 15:43:07:935,-177.1502375725151,176.94690243736514,0,-44.381927490234375,18.89230728149414,-27.88864517211914
0.08803818374872208,0.12807121872901917,9.596732139587402,-0.0005727194893354142,0.011975696548084513,0.0026068058446253144,2.120016098022461,2019-08-06 15:43:07:945,-177.20344316048022,176.9929942040031,0,-44.381927490234375,18.89230728149414,-27.88864517211914
0.09522242844104767,0.10891321301460266,9.630258560180664,0.0023574731092018,0.011176553685465489,0.0012749002066791914,2.1300199031829834,2019-08-06 15:43:07:955,-177.25432204741685,177.03885094175084,0,-44.381927490234375,18.89230728149414,-27.88864517211914
0.09761717915534973,0.08496572077274323,9.611100196838379,-0.0013718629371216693,0.010111029175108591,0.00020937558253977584,2.1400201320648193,2019-08-06 15:43:07:965,-177.30327473080413,177.08871418116127,0,-44.381927490234375,18.89230728149414,-27.88864517211914
0.08324868232011795,0.099334217607975,9.706890106201172,-0.0011054818095324445,0.015172271119452508,0.004471473997824211,2.1500258445739746,2019-08-06 15:43:07:975,-177.3559058987464,177.13583480744,0,-44.381927490234375,18.89230728149414,-27.88864517211914
0.13114367425441742,0.07778146862983704,9.67336368560791,-0.004834817595781589,0.013840364961357736,0.0028731869722145387,2.160017967224121,2019-08-06 15:43:07:985,-177.4010185560953,177.18661685029969,0,-44.381927490234375,18.89230728149414,-27.88864517211914
0.12874892354011536,0.1065184697508812,9.654206275939941,-0.0016382440647108938,0.014639508864274061,0.0018076624618576407,2.170020341873169,2019-08-06 15:43:07:995,-177.4459391259369,177.23116180112626,0,-44.381927490234375,18.89230728149414,-27.88864517211914
0.13593317568302155,0.11609746515750885,9.623074531555176,-0.004568436468192365,0.014639508864274061,-0.0013889113292873795,2.180021286010742,2019-08-06 15:43:08:005,-177.4890553395168,177.27527976419537,0,-44.381927490234375,18.89230728149414,-27.88864517211914
0.1263541728258133,0.12328171730041504,9.658995628356934,-0.003502911957835466,0.009045504664751694,0.0007421378864821609,2.190021276473999,2019-08-06 15:43:08:015,-177.52936382408407,177.3171160514403,0,-44.381927490234375,18.89230728149414,-27.88864517211914
0.11438042670488358,0.09214996546506882,9.62067985534668,-0.004035674213013915,0.009045504664751694,0.0012749002066791914,2.2000176906585693,2019-08-06 15:43:08:025,-177.57023059678636,177.36206333105093,0,-44.381927490234375,18.89230728149414,-27.88864517211914
0.13114367425441742,0.08975522220134735,9.608705520629883,0.0004928051185493561,0.013041222098738713,0.0018076624618576407,2.2100183963775635,2019-08-06 15:43:08:035,-177.61051016078963,177.40384161303348,0,-42.882537841796875,18.592430114746094,-27.58876609802246
0.10719618201255798,0.09214996546506882,9.594337463378906,-0.0016382440647108938,0.01570503337463096,0.004205092610160662,2.2200207710266113,2019-08-06 15:43:08:045,-177.65431778560887,177.44567912564295,0,-42.882537841796875,18.592430114746094,-27.58876609802246
0.12395942956209183,0.10412371903657913,9.699706077575684,-0.0005727194893354142,0.014639508864274061,-0.001122530201698155,2.230023145675659,2019-08-06 15:43:08:055,-177.69480977456442,177.48478657951608,0,-42.882537841796875,18.592430114746094,-27.58876609802246
0.15748591721057892,0.07778146862983704,9.666179656982422,-0.002171006319889343,0.014373127216536186,0.0020740435894468653,2.2400243282318115,2019-08-06 15:43:08:065,-177.73031688406667,177.52708929561385,0,-42.882537841796875,18.592430114746094,-27.58876609802246
0.1191699281334877,0.099334217607975,9.596732139587402,-0.0024373874474785677,0.011975696548084513,-0.0005897678815011245,2.25002121925354,2019-08-06 15:43:08:075,-177.76820381829202,177.56605491113376,0,-42.882537841796875,18.592430114746094,-27.58876609802246
0.12874892354011536,0.12807121872901917,9.651811599731445,-0.0008391006169246387,0.009045504664751694,-0.0027208169672335025,2.2600204944610596,2019-08-06 15:43:08:085,-177.8026335461592,177.60000051297766,0,-42.882537841796875,18.592430114746094,-27.58876609802246
0.12395942956209183,0.12328171730041504,9.666179656982422,0.0007591862786478714,0.011709315940643939,-0.0021880547120550534,2.2700226306915283,2019-08-06 15:43:08:095,-177.83846258818824,177.63296000200444,0,-42.882537841796875,18.592430114746094,-27.58876609802246
0.1263541728258133,0.11849221587181091,9.642231941223145,0.001824710854023351,0.016237795629809405,0.0026068058446253144,2.280020236968994,2019-08-06 15:43:08:105,-177.87579315453718,177.665195166015,0,-42.882537841796875,18.592430114746094,-27.58876609802246
0.16227541863918304,0.07299196720123291,9.630258560180664,-0.0003063383292368989,0.015438651726893083,0.0010085190140713856,2.2900259494781494,2019-08-06 15:43:08:115,-177.90764351318535,177.70337813733096,0,-42.882537841796875,18.592430114746094,-27.58876609802246
0.12156467884778976,0.11130796372890472,9.656600952148438,0.004754903517579147,0.011975696548084513,0.0018076624618576407,2.3000097274780273,2019-08-06 15:43:08:125,-177.94177917206113,177.73343708586762,0,-42.882537841796875,18.592430114746094,-27.58876609802246
0.10480143129825592,0.06101822108030319,9.654206275939941,0.0012919485988449018,0.013041222098738713,0.0023404247170360896,2.3100173473358154,2019-08-06 15:43:08:135,-177.9778327755759,177.7707998421659,0,-42.882537841796875,18.592430114746094,-27.58876609802246
0.10719618201255798,0.09214996546506882,9.62067985534668,0.0026238542367910244,0.010910172037727614,0.001541281334268416,2.3200180530548096,2019-08-06 15:43:08:145,-178.01163503022283,177.8029348383816,0,-42.882537841796875,18.592430114746094,-27.58876609802246
0.1263541728258133,0.11130796372890472,9.670969009399414,-0.002171006319889343,0.015438651726893083,-0.001655292456876604,2.330012559890747,2019-08-06 15:43:08:155,-178.0450954632262,177.83490616232984,0,-42.882537841796875,19.19218635559082,-26.989011764526367
0.14311742782592773,0.09454471617937088,9.584757804870605,-0.0003063383292368989,0.010910172037727614,0.0023404247170360896,2.3400189876556396,2019-08-06 15:43:08:165,-178.07321425839348,177.867077133876,0,-42.882537841796875,19.19218635559082,-26.989011764526367
0.15030167996883392,0.10412371903657913,9.611100196838379,-0.005367579850960038,0.013840364961357736,-0.00431910373276885,2.3500185012817383,2019-08-06 15:43:08:175,-178.10160218109985,177.90033532013658,0,-42.882537841796875,19.19218635559082,-26.989011764526367
0.14311742782592773,0.1328607201576233,9.627863883972168,-0.0019046251923001184,0.012242078195822388,0.0018076624618576407,2.3600239753723145,2019-08-06 15:43:08:185,-178.12941512129552,177.92758646456465,0,-42.882537841796875,19.19218635559082,-26.989011764526367
0.09522242844104767,0.0801762193441391,9.62067985534668,-0.0019046251923001184,0.008779123017013819,-0.002987198094822727,2.3700201511383057,2019-08-06 15:43:08:195,-178.16041286175354,177.9605542322276,0,-42.882537841796875,19.19218635559082,-26.989011764526367
0.15748591721057892,0.11130796372890472,9.675758361816406,-0.0003063383292368989,0.014639508864274061,0.003405949227392988,2.380021333694458,2019-08-06 15:43:08:205,-178.1867759777561,177.98833337717068,0,-42.882537841796875,19.19218635559082,-26.989011764526367
0.1191699281334877,0.09454471617937088,9.594337463378906,-0.0013718629371216693,0.011709315940643939,0.00020937558253977584,2.3900208473205566,2019-08-06 15:43:08:215,-178.21538237747905,178.01804523200923,0,-42.882537841796875,19.19218635559082,-26.989011764526367
0.08803818374872208,0.07059722393751144,9.66139030456543,-0.004568436468192365,0.009311885272192268,-0.001122530201698155,2.400022268295288,2019-08-06 15:43:08:225,-178.2458623635269,178.05187663515534,0,-42.882537841796875,19.19218635559082,-26.989011764526367
0.12395942956209183,0.06580772250890732,9.64462661743164,-0.003502911957835466,0.009045504664751694,-0.0003233867214026093,2.4100193977355957,2019-08-06 15:43:08:235,-178.27129540592892,178.08498666808643,0,-42.882537841796875,19.19218635559082,-26.989011764526367
0.09761717915534973,0.08736047148704529,9.678153038024902,0.003955759874737148,0.011442934292906064,-0.000856149009090349,2.4200212955474854,2019-08-06 15:43:08:245,-178.30073820251258,178.11072195947074,0,-42.882537841796875,19.19218635559082,-26.989011764526367
0.13593317568302155,0.08736047148704529,9.651811599731445,0.0026238542367910244,0.01064379143028704,-0.001122530201698155,2.430020809173584,2019-08-06 15:43:08:255,-178.3245619628484,178.13666267405972,0,-42.882537841796875,19.19218635559082,-26.989011764526367
0.08564343303442001,0.08975522220134735,9.639837265014648,-0.002970149702657017,0.009045504664751694,0.0012749002066791914,2.440026044845581,2019-08-06 15:43:08:265,-178.35297200437364,178.16492887184972,0,-42.882537841796875,19.19218635559082,-26.989011764526367
0.09761717915534973,0.07538671791553497,9.670969009399414,0.0015583297264341264,0.010910172037727614,-5.7005565367755386e-05,2.4500181674957275,2019-08-06 15:43:08:275,-178.38046749362618,178.1918235731034,0,-42.882537841796875,19.19218635559082,-26.989011764526367
0.10959093272686005,0.10172896832227707,9.663784980773926,-0.0037692930854246903,0.014373127216536186,0.0007421378864821609,2.460019111633301,2019-08-06 15:43:08:285,-178.40793484313906,178.21804134766046,0,-42.882537841796875,17.69279670715332,-28.188522338867188
0.0928276851773262,0.09454471617937088,9.60391616821289,-0.0005727194893354142,0.011709315940643939,0.00020937558253977584,2.4700183868408203,2019-08-06 15:43:08:295,-178.43527480916347,178.24272160065743,0,-42.882537841796875,17.69279670715332,-28.188522338867188
0.14311742782592773,0.10412371903657913,9.58236312866211,-0.0019046251923001184,0.008512742409573244,-0.0032535792224119516,2.480024814605713,2019-08-06 15:43:08:305,-178.45423872361096,178.26648606112389,0,-42.882537841796875,17.69279670715332,-28.188522338867188
0.1383279263973236,0.099334217607975,9.63265323638916,0.002890235364380249,0.015438651726893083,0.0007421378864821609,2.4900155067443848,2019-08-06 15:43:08:315,-178.47736008546607,178.2877184511965,0,-42.882537841796875,17.69279670715332,-28.188522338867188
0.10480143129825592,0.10891321301460266,9.606310844421387,-0.0024373874474785677,0.012242078195822388,-0.002987198094822727,2.4999940395355225,2019-08-06 15:43:08:325,-178.50217100245794,178.31033827408385,0,-42.882537841796875,17.69279670715332,-28.188522338867188
0.14072267711162567,0.11130796372890472,9.615889549255371,-0.0003063383292368989,0.009844647527370716,0.0031395680998037635,2.509997844696045,2019-08-06 15:43:08:335,-178.52088886344794,178.33103972033626,0,-42.882537841796875,17.69279670715332,-28.188522338867188
0.1191699281334877,0.11849221587181091,9.675758361816406,-0.0016382440647108938,0.013840364961357736,0.005803379635770335,2.5200016498565674,2019-08-06 15:43:08:345,-178.5441326171331,178.351306625955,0,-42.882537841796875,17.69279670715332,-28.188522338867188
0.12874892354011536,0.11849221587181091,9.613494873046875,-0.0024373874474785677,0.011442934292906064,-0.001122530201698155,2.5299863815307617,2019-08-06 15:43:08:355,-178.56431956645736,178.37152359683068,0,-42.882537841796875,17.69279670715332,-28.188522338867188
0.11677517741918564,0.11370271444320679,9.601521492004395,0.0010255674062370958,0.007713599026805571,-0.004851865987947299,2.5399959087371826,2019-08-06 15:43:08:365,-178.58343236278102,178.38994724477632,0,-42.882537841796875,17.69279670715332,-28.188522338867188
0.08085393160581589,0.09454471617937088,9.577573776245117,0.002890235364380249,0.014639508864274061,0.004737855125413436,2.550021171569824,2019-08-06 15:43:08:375,-178.61033094999405,178.4092098348003,0,-42.882537841796875,17.69279670715332,-28.188522338867188
0.1263541728258133,0.1065184697508812,9.596732139587402,-0.0003063383292368989,0.01357398435391716,0.00020937558253977584,2.5600292682647705,2019-08-06 15:43:08:385,-178.63066559336656,178.4284792728797,0,-42.882537841796875,17.69279670715332,-28.188522338867188
0.07845918089151382,0.09454471617937088,9.670969009399414,-0.0005727194893354142,0.012774840451000838,0.004471473997824211,2.5700042247772217,2019-08-06 15:43:08:395,-178.65591092875013,178.44902819256308,0,-42.882537841796875,17.69279670715332,-28.188522338867188
0.09043293446302414,0.07538671791553497,9.62067985534668,0.0012919485988449018,0.013041222098738713,0.0031395680998037635,2.5800020694732666,2019-08-06 15:43:08:405,-178.67934264451227,178.47034325759552,0,-42.882537841796875,18.89230728149414,-27.58876609802246
0.1191699281334877,0.12088696658611298,9.642231941223145,0.0007591862786478714,0.014905889471714633,0.003405949227392988,2.5899996757507324,2019-08-06 15:43:08:415,-178.69996158688022,178.48614434741853,0,-42.882537841796875,18.89230728149414,-27.58876609802246
0.1000119298696518,0.10412371903657913,9.63265323638916,0.0010255674062370958,0.011975696548084513,-0.0024544358396442778,2.599999189376831,2019-08-06 15:43:08:425,-178.72078921629847,178.50345939467908,0,-42.882537841796875,18.89230728149414,-27.58876609802246
0.10719618201255798,0.08975522220134735,9.601521492004395,-0.0003063383292368989,0.015172271119452508,-0.00431910373276885,2.6100001335144043,2019-08-06 15:43:08:435,-178.7421004033587,178.52285050086687,0,-42.882537841796875,18.89230728149414,-27.58876609802246
0.10719618201255798,0.0801762193441391,9.556020736694336,-0.0003063383292368989,0.009311885272192268,0.00047575672638364575,2.6200034618377686,2019-08-06 15:43:08:445,-178.75963479526263,178.54295140589974,0,-42.882537841796875,18.89230728149414,-27.58876609802246
0.13353842496871948,0.09214996546506882,9.66139030456543,0.0002264239747054862,0.01064379143028704,0.00020937558253977584,2.6299993991851807,2019-08-06 15:43:08:455,-178.77457846454422,178.56103592570474,0,-42.882537841796875,18.89230728149414,-27.58876609802246
0.0928276851773262,0.08736047148704529,9.642231941223145,0.004222141002326372,0.014373127216536186,0.00047575672638364575,2.639993906021118,2019-08-06 15:43:08:465,-178.79612133681718,178.57706385199015,0,-42.882537841796875,18.89230728149414,-27.58876609802246
0.14311742782592773,0.056228723376989365,9.637442588806152,-3.9957173202045016e-05,0.014905889471714633,-0.001122530201698155,2.650029420852661,2019-08-06 15:43:08:475,-178.8115825084777,178.59885943310007,0,-42.882537841796875,18.89230728149414,-27.58876609802246
0.12874892354011536,0.08496572077274323,9.608705520629883,0.0012919485988449018,0.013307602706179285,0.00020937558253977584,2.6600656509399414,2019-08-06 15:43:08:485,-178.82749670277468,178.6160216057945,0,-42.882537841796875,18.89230728149414,-27.58876609802246
0.15748591721057892,0.13046596944332123,9.704495429992676,-0.002703768575067792,0.014373127216536186,0.003672330354982212,2.6700246334075928,2019-08-06 15:43:08:495,-178.8403897096892,178.62980849737332,0,-42.882537841796875,18.89230728149414,-27.58876609802246
0.12395942956209183,0.08736047148704529,9.67336368560791,-3.9957173202045016e-05,0.009311885272192268,0.00020937558253977584,2.680007219314575,2019-08-06 15:43:08:505,-178.85411787651944,178.64688620350628,0,-42.882537841796875,18.89230728149414,-27.58876609802246
0.09522242844104767,0.12807121872901917,9.654206275939941,-0.0013718629371216693,0.013307602706179285,0.0007421378864821609,2.69006085395813,2019-08-06 15:43:08:515,-178.87324564258452,178.65952226137725,0,-42.882537841796875,18.89230728149414,-27.58876609802246
0.07845918089151382,0.12807121872901917,9.599126815795898,-0.0008391006169246387,0.011975696548084513,-0.000856149009090349,2.7000160217285156,2019-08-06 15:43:08:525,-178.89310890214077,178.67151299853214,0,-42.882537841796875,18.89230728149414,-27.58876609802246
0.10719618201255798,0.1065184697508812,9.611100196838379,0.0010255674062370958,0.011442934292906064,0.006336141890948784,2.7099881172180176,2019-08-06 15:43:08:535,-178.90887369328067,178.6848089896109,0,-43.33235549926758,17.842735290527344,-28.63833999633789
0.12395942956209183,0.12088696658611298,9.587152481079102,0.0015583297264341264,0.011709315940643939,0.0023404247170360896,2.720015048980713,2019-08-06 15:43:08:545,-178.92247312145832,178.6957870631916,0,-43.33235549926758,17.842735290527344,-28.63833999633789
0.15030167996883392,0.0801762193441391,9.678153038024902,0.0010255674062370958,0.013041222098738713,0.0020740435894468653,2.7300350666046143,2019-08-06 15:43:08:555,-178.93356631136635,178.7118014827917,0,-43.33235549926758,17.842735290527344,-28.63833999633789
0.14311742782592773,0.07778146862983704,9.618284225463867,-0.0008391006169246387,0.012508459843560263,-0.002987198094822727,2.7400004863739014,2019-08-06 15:43:08:565,-178.94484452989576,178.72876835048504,0,-43.33235549926758,17.842735290527344,-28.63833999633789
0.06169593706727028,0.11130796372890472,9.611100196838379,0.0012919485988449018,0.010910172037727614,0.0026068058446253144,2.75000262260437,2019-08-06 15:43:08:575,-178.96471919115118,178.7401969298676,0,-43.33235549926758,17.842735290527344,-28.63833999633789
0.13114367425441742,0.09454471617937088,9.615889549255371,0.0015583297264341264,0.01410674660909561,0.0020740435894468653,2.760035753250122,2019-08-06 15:43:08:585,-178.97774468199506,178.75324865952666,0,-43.33235549926758,17.842735290527344,-28.63833999633789
0.14790692925453186,0.11370271444320679,9.627863883972168,0.0034229976195586987,0.011442934292906064,0.00020937558253977584,2.77012038230896,2019-08-06 15:43:08:595,-178.9870667470507,178.76271305868383,0,-43.33235549926758,17.842735290527344,-28.63833999633789
0.08085393160581589,0.10172896832227707,9.642231941223145,0.0015583297264341264,0.01570503337463096,-0.0024544358396442778,2.7800276279449463,2019-08-06 15:43:08:605,-179.00645324227352,178.7745025459576,0,-43.33235549926758,17.842735290527344,-28.63833999633789
0.10240668058395386,0.07778146862983704,9.618284225463867,0.002890235364380249,0.010910172037727614,0.003405949227392988,2.7901110649108887,2019-08-06 15:43:08:615,-179.02030113944298,178.7881094638914,0,-43.33235549926758,17.842735290527344,-28.63833999633789
0.12395942956209183,0.08975522220134735,9.714075088500977,0.0020910919816125757,0.007979980154394795,-0.0013889113292873795,2.800030469894409,2019-08-06 15:43:08:625,-179.02971773893307,178.80059496760293,0,-43.33235549926758,17.842735290527344,-28.63833999633789
0.08085393160581589,0.07538671791553497,9.623074531555176,0.0010255674062370958,0.01357398435391716,0.0010085190140713856,2.810098171234131,2019-08-06 15:43:08:635,-179.04716889975728,178.81502644918007,0,-43.33235549926758,17.842735290527344,-28.63833999633789
0.11198568344116211,0.08257097005844116,9.654206275939941,0.0023574731092018,0.012508459843560263,0.0010085190140713856,2.820038318634033,2019-08-06 15:43:08:645,-179.0599153119122,178.82760952082438,0,-43.33235549926758,17.842735290527344,-28.63833999633789
0.1191699281334877,0.11370271444320679,9.601521492004395,0.0004928051185493561,0.012774840451000838,0.00020937558253977584,2.8300957679748535,2019-08-06 15:43:08:655,-179.0717093919596,178.83720955454112,0,-43.18241882324219,17.093040466308594,-29.08815574645996
0.10959093272686005,0.14243970811367035,9.623074531555176,-0.0013718629371216693,0.011709315940643939,-0.000856149009090349,2.840033769607544,2019-08-06 15:43:08:665,-179.08375968390288,178.84427040688644,0,-43.18241882324219,17.093040466308594,-29.08815574645996
0.13114367425441742,0.07538671791553497,9.654206275939941,-3.9957173202045016e-05,0.012774840451000838,0.0023404247170360896,2.850050210952759,2019-08-06 15:43:08:675,-179.09370406808185,178.85845955213853,0,-43.18241882324219,17.093040466308594,-29.08815574645996
0.11198568344116211,0.09693946689367294,9.615889549255371,0.004488522389989922,0.010377409782549165,-0.0027208169672335025,2.8600308895111084,2019-08-06 15:43:08:685,-179.10430101523565,178.86722314700137,0,-43.18241882324219,17.093040466308594,-29.08815574645996
0.17424917221069336,0.08975522220134735,9.658995628356934,0.0010255674062370958,0.012242078195822388,-0.0005897678815011245,2.8700578212738037,2019-08-06 15:43:08:695,-179.10843723700884,178.87865328233593,0,-43.18241882324219,17.093040466308594,-29.08815574645996
0.13114367425441742,0.10891321301460266,9.675758361816406,0.002890235364380249,0.012508459843560263,-0.0024544358396442778,2.8800041675567627,2019-08-06 15:43:08:705,-179.117723687031,178.886567838865,0,-43.18241882324219,17.093040466308594,-29.08815574645996
0.12395942956209183,0.08975522220134735,9.63265323638916,0.0015583297264341264,0.009844647527370716,-0.001655292456876604,2.890019416809082,2019-08-06 15:43:08:715,-179.12615980398354,178.89728303424852,0,-43.18241882324219,17.093040466308594,-29.08815574645996
0.1191699281334877,0.12807121872901917,9.618284225463867,0.0007591862786478714,0.011442934292906064,-0.0005897678815011245,2.8999855518341064,2019-08-06 15:43:08:725,-179.13584294639853,178.90365512221652,0,-43.18241882324219,17.093040466308594,-29.08815574645996
0.13593317568302155,0.11609746515750885,9.635047912597656,0.0004928051185493561,0.015438651726893083,-0.0021880547120550534,2.9100100994110107,2019-08-06 15:43:08:735,-179.14565041619335,178.9114975947117,0,-43.18241882324219,17.093040466308594,-29.08815574645996
0.11198568344116211,0.14243970811367035,9.637442588806152,0.0026238542367910244,0.015438651726893083,0.0010085190140713856,2.9199984073638916,2019-08-06 15:43:08:745,-179.1580812806996,178.91486087678604,0,-43.18241882324219,17.093040466308594,-29.08815574645996
0.10240668058395386,0.11849221587181091,9.60391616821289,-0.0019046251923001184,0.015971413982071532,-0.001655292456876604,2.930023193359375,2019-08-06 15:43:08:755,-179.17169136071473,178.92349827280307,0,-43.18241882324219,17.093040466308594,-29.08815574645996
0.14072267711162567,0.11609746515750885,9.651811599731445,0.0012919485988449018,0.008512742409573244,-0.0013889113292873795,2.9400250911712646,2019-08-06 15:43:08:765,-179.176332155691,178.9305196842397,0,-43.18241882324219,17.093040466308594,-29.08815574645996
0.1838281750679016,0.08975522220134735,9.651811599731445,0.0004928051185493561,0.01410674660909561,-0.0005897678815011245,2.9499974250793457,2019-08-06 15:43:08:775,-179.17888207476653,178.94097742550287,0,-43.18241882324219,17.093040466308594,-29.08815574645996
0.0736696869134903,0.07778146862983704,9.635047912597656,0.0007591862786478714,0.01357398435391716,0.0012749002066791914,2.9600002765655518,2019-08-06 15:43:08:785,-179.19416686733356,178.95248096811585,0,-42.58266067504883,18.592430114746094,-29.08815574645996
0.16706492006778717,0.07059722393751144,9.627863883972168,-0.004035674213013915,0.010910172037727614,-0.001655292456876604,2.970001459121704,2019-08-06 15:43:08:795,-179.19652810427158,178.96729525827726,0,-42.58266067504883,18.592430114746094,-29.08815574645996
0.13593317568302155,0.11370271444320679,9.680547714233398,-0.0013718629371216693,0.011442934292906064,-0.0005897678815011245,2.979998826980591,2019-08-06 15:43:08:805,-179.20293128103174,178.97526073563733,0,-42.58266067504883,18.592430114746094,-29.08815574645996
0.11198568344116211,0.10412371903657913,9.680547714233398,0.00555404690034682,0.009844647527370716,0.0026068058446253144,2.990002155303955,2019-08-06 15:43:08:815,-179.211146760041,178.9803109302235,0,-42.58266067504883,18.592430114746094,-29.08815574645996
0.10480143129825592,0.13525545597076416,9.651811599731445,-0.0003063383292368989,0.00824636128198402,-0.001122530201698155,2.999999523162842,2019-08-06 15:43:08:825,-179.21911081950955,178.98481946225544,0,-42.58266067504883,18.592430114746094,-29.08815574645996
0.11438042670488358,0.10891321301460266,9.66139030456543,-0.0003063383292368989,0.01410674660909561,0.004205092610160662,3.0099985599517822,2019-08-06 15:43:08:835,-179.22908298998564,178.9923776630048,0,-42.58266067504883,18.592430114746094,-29.08815574645996
0.07127493619918823,0.10891321301460266,9.639837265014648,0.0026238542367910244,0.016770557884987856,0.003938711482571438,3.020002603530884,2019-08-06 15:43:08:845,-179.24544927801517,178.99810994276896,0,-42.58266067504883,18.592430114746094,-29.08815574645996
0.13114367425441742,0.08257097005844116,9.716469764709473,0.0015583297264341264,0.011975696548084513,0.003938711482571438,3.0300028324127197,2019-08-06 15:43:08:855,-179.25179924320588,179.0075349192325,0,-42.58266067504883,18.592430114746094,-29.08815574645996
0.11438042670488358,0.10172896832227707,9.63265323638916,0.002890235364380249,0.012508459843560263,0.0020740435894468653,3.039999008178711,2019-08-06 15:43:08:865,-179.26017781944714,179.01366058993904,0,-42.58266067504883,18.592430114746094,-29.08815574645996
0.08324868232011795,0.11370271444320679,9.637442588806152,0.0023574731092018,0.010910172037727614,0.00047575672638364575,3.0499846935272217,2019-08-06 15:43:08:875,-179.2711933140122,179.01854665031232,0,-42.58266067504883,18.592430114746094,-29.08815574645996
0.13114367425441742,0.06820247322320938,9.663784980773926,-0.002171006319889343,0.006381692868710797,-0.001655292456876604,3.0599992275238037,2019-08-06 15:43:08:885,-179.27380812277653,179.03130930426576,0,-42.58266067504883,18.592430114746094,-29.08815574645996
0.10959093272686005,0.0801762193441391,9.699706077575684,-0.0013718629371216693,0.013307602706179285,0.0007421378864821609,3.069995403289795,2019-08-06 15:43:08:895,-179.28285486849788,179.04198138346035,0,-42.58266067504883,18.592430114746094,-29.08815574645996
0.12874892354011536,0.08496572077274323,9.637442588806152,-3.9957173202045016e-05,0.011442934292906064,0.0012749002066791914,3.079988718032837,2019-08-06 15:43:08:905,-179.2883110151869,179.0510618055743,0,-43.18241882324219,18.292551040649414,-28.188522338867188
0.06888018548488617,0.12807121872901917,9.613494873046875,0.0002264239747054862,0.009311885272192268,-0.0003233867214026093,3.089989185333252,2019-08-06 15:43:08:915,-179.29956336564365,179.05464841368013,0,-43.18241882324219,18.292551040649414,-28.188522338867188
0.07127493619918823,0.12807121872901917,9.678153038024902,0.0020910919816125757,0.017036938492428433,0.007668047528894907,3.100013017654419,2019-08-06 15:43:08:925,-179.3147221507338,179.05721545987927,0,-43.18241882324219,18.292551040649414,-28.188522338867188
0.1000119298696518,0.07778146862983704,9.668574333190918,0.0002264239747054862,0.01410674660909561,-0.000856149009090349,3.1099843978881836,2019-08-06 15:43:08:935,-179.32447300578713,179.06672594788174,0,-43.18241882324219,18.292551040649414,-28.188522338867188
0.08564343303442001,0.07778146862983704,9.570389747619629,0.0015583297264341264,0.01357398435391716,-0.0032535792224119516,3.1199839115142822,2019-08-06 15:43:08:945,-179.33535066146598,179.0752034719379,0,-43.18241882324219,18.292551040649414,-28.188522338867188
0.0736696869134903,0.10172896832227707,9.670969009399414,-0.002171006319889343,0.013307602706179285,0.0018076624618576407,3.129987955093384,2019-08-06 15:43:08:955,-179.34738989929437,179.08286546560566,0,-43.18241882324219,18.292551040649414,-28.188522338867188
0.1191699281334877,0.11130796372890472,9.714075088500977,0.003955759874737148,0.015172271119452508,-0.0024544358396442778,3.139988422393799,2019-08-06 15:43:08:965,-179.35490459833082,179.0858570898511,0,-43.18241882324219,18.292551040649414,-28.188522338867188
0.15030167996883392,0.07778146862983704,9.680547714233398,-3.9957173202045016e-05,0.014905889471714633,-0.0019216735844658289,3.1500027179718018,2019-08-06 15:43:08:975,-179.35839787476073,179.094955387437,0,-43.18241882324219,18.292551040649414,-28.188522338867188
0.1383279263973236,0.099334217607975,9.60391616821289,0.0004928051185493561,0.014905889471714633,0.0023404247170360896,3.1599864959716797,2019-08-06 15:43:08:985,-179.3630821708877,179.10092812793883,0,-43.18241882324219,18.292551040649414,-28.188522338867188
0.14072267711162567,0.06341297179460526,9.615889549255371,0.001824710854023351,0.011975696548084513,0.00047575672638364575,3.1699891090393066,2019-08-06 15:43:08:995,-179.36577804334922,179.1103279764159,0,-43.18241882324219,18.292551040649414,-28.188522338867188
0.152696430683136,0.11130796372890472,9.685338020324707,0.0012919485988449018,0.012508459843560263,0.0010085190140713856,3.1799893379211426,2019-08-06 15:43:09:005,-179.36742142646156,179.11422721041578,0,-43.18241882324219,18.292551040649414,-28.188522338867188
0.15509118139743805,0.05862347409129143,9.67336368560791,-0.0016382440647108938,0.016770557884987856,-0.0032535792224119516,3.1900289058685303,2019-08-06 15:43:09:015,-179.37115623256474,179.1259216719335,0,-43.18241882324219,18.292551040649414,-28.188522338867188
0.11677517741918564,0.06580772250890732,9.594337463378906,0.0026238542367910244,0.010377409782549165,0.0012749002066791914,3.2000133991241455,2019-08-06 15:43:09:025,-179.37560442562807,179.1340725013963,0,-43.18241882324219,18.292551040649414,-28.188522338867188
0.11677517741918564,0.0801762193441391,9.62067985534668,-0.0024373874474785677,0.008512742409573244,-0.000856149009090349,3.209986448287964,2019-08-06 15:43:09:035,-179.378950983353,179.14320641412073,0,-42.882537841796875,17.69279670715332,-28.788278579711914
0.10240668058395386,0.07778146862983704,9.579968452453613,0.002890235364380249,0.010377409782549165,0.0007421378864821609,3.219987154006958,2019-08-06 15:43:09:045,-179.38495028589705,179.14941561992424,0,-42.882537841796875,17.69279670715332,-28.788278579711914
0.12156467884778976,0.10172896832227707,9.615889549255371,0.0023574731092018,0.011975696548084513,-0.0005897678815011245,3.229992389678955,2019-08-06 15:43:09:055,-179.38949317305756,179.15298041305826,0,-42.882537841796875,17.69279670715332,-28.788278579711914
0.1263541728258133,0.10172896832227707,9.647021293640137,0.0026238542367910244,0.01064379143028704,0.005004236253002661,3.239994764328003,2019-08-06 15:43:09:065,-179.39267315737285,179.1563637982527,0,-42.882537841796875,17.69279670715332,-28.788278579711914
0.152696430683136,0.09214996546506882,9.611100196838379,-0.0008391006169246387,0.015172271119452508,0.006069760763359559,3.249985933303833,2019-08-06 15:43:09:075,-179.39512716899654,179.16272070864372,0,-42.882537841796875,17.69279670715332,-28.788278579711914
0.11198568344116211,0.10172896832227707,9.685338020324707,0.0034229976195586987,0.012242078195822388,0.0023404247170360896,3.2599880695343018,2019-08-06 15:43:09:085,-179.40085106841076,179.16550830945596,0,-42.882537841796875,17.69279670715332,-28.788278579711914
0.13593317568302155,0.09693946689367294,9.685338020324707,-0.0003063383292368989,0.013840364961357736,0.003405949227392988,3.269986867904663,2019-08-06 15:43:09:095,-179.40452265416735,179.1709011729177,0,-42.882537841796875,17.69279670715332,-28.788278579711914
0.11438042670488358,0.12328171730041504,9.656600952148438,-3.9957173202045016e-05,0.015172271119452508,-0.0005897678815011245,3.27998948097229,2019-08-06 15:43:09:105,-179.41138114005105,179.17287696896585,0,-42.882537841796875,17.69279670715332,-28.788278579711914
0.10240668058395386,0.08736047148704529,9.627863883972168,0.0004928051185493561,0.01357398435391716,0.001541281334268416,3.290018320083618,2019-08-06 15:43:09:115,-179.41860921109637,179.17874449859278,0,-42.882537841796875,17.69279670715332,-28.788278579711914
0.1000119298696518,0.09214996546506882,9.668574333190918,-0.0003063383292368989,0.006648073996300022,-0.004052722605179625,3.299988031387329,2019-08-06 15:43:09:125,-179.4221056534845,179.18441984955177,0,-42.882537841796875,17.69279670715332,-28.788278579711914
0.1191699281334877,0.1065184697508812,9.60391616821289,-0.0005727194893354142,0.011442934292906064,-0.002987198094822727,3.3099873065948486,2019-08-06 15:43:09:135,-179.42586993455282,179.1883440104808,0,-42.882537841796875,17.69279670715332,-28.788278579711914
0.09522242844104767,0.10172896832227707,9.611100196838379,0.004222141002326372,0.013041222098738713,-0.00431910373276885,3.319990873336792,2019-08-06 15:43:09:145,-179.43332493482035,179.19007703443685,0,-42.882537841796875,17.69279670715332,-28.788278579711914
0.17424917221069336,0.10891321301460266,9.642231941223145,-0.002970149702657017,0.012774840451000838,-0.0021880547120550534,3.329986572265625,2019-08-06 15:43:09:155,-179.43112229692503,179.19499944577697,0,-43.18241882324219,17.992673873901367,-28.188522338867188
0.10480143129825592,0.08975522220134735,9.613494873046875,0.0020910919816125757,0.011709315940643939,0.003672330354982212,3.3399884700775146,2019-08-06 15:43:09:165,-179.43658416964607,179.1992266984471,0,-43.18241882324219,17.992673873901367,-28.188522338867188
0.14072267711162567,0.1065184697508812,9.637442588806152,0.004754903517579147,0.009311885272192268,0.0026068058446253144,3.3500075340270996,2019-08-06 15:43:09:175,-179.43635998208373,179.19990241085492,0,-43.18241882324219,17.992673873901367,-28.188522338867188
0.16227541863918304,0.11130796372890472,9.637442588806152,0.0020910919816125757,0.012774840451000838,0.0018076624618576407,3.3600902557373047,2019-08-06 15:43:09:185,-179.4355720521246,179.20148630280443,0,-43.18241882324219,17.992673873901367,-28.188522338867188
0.10719618201255798,0.1328607201576233,9.608705520629883,-3.9957173202045016e-05,0.010910172037727614,-0.001122530201698155,3.3700144290924072,2019-08-06 15:43:09:195,-179.44015672757675,179.20163514030148,0,-43.18241882324219,17.992673873901367,-28.188522338867188
0.1191699281334877,0.11370271444320679,9.627863883972168,-0.0013718629371216693,0.00824636128198402,0.00020937558253977584,3.380059242248535,2019-08-06 15:43:09:205,-179.4418216935174,179.20484383525178,0,-43.18241882324219,17.992673873901367,-28.188522338867188
0.15030167996883392,0.14962396025657654,9.670969009399414,-3.9957173202045016e-05,0.014639508864274061,-0.004851865987947299,3.3900058269500732,2019-08-06 15:43:09:215,-179.4433535654236,179.2030417076698,0,-43.18241882324219,17.992673873901367,-28.188522338867188
0.11198568344116211,0.08975522220134735,9.685338020324707,-0.0011054818095324445,0.010910172037727614,0.00020937558253977584,3.4000537395477295,2019-08-06 15:43:09:225,-179.4473929564696,179.20898553695622,0,-43.18241882324219,17.992673873901367,-28.188522338867188
0.12874892354011536,0.13765020668506622,9.654206275939941,-0.0008391006169246387,0.014639508864274061,-0.000856149009090349,3.4100146293640137,2019-08-06 15:43:09:235,-179.4513519375044,179.20893771658757,0,-43.18241882324219,17.992673873901367,-28.188522338867188
0.11198568344116211,0.10412371903657913,9.658995628356934,0.0010255674062370958,0.014905889471714633,-0.0027208169672335025,3.420095682144165,2019-08-06 15:43:09:245,-179.45747730797663,179.21182597861122,0,-43.18241882324219,17.992673873901367,-28.188522338867188
0.11198568344116211,0.10891321301460266,9.596732139587402,-0.0008391006169246387,0.014639508864274061,0.00047575672638364575,3.429994583129883,2019-08-06 15:43:09:255,-179.4630934708628,179.2150514237881,0,-43.18241882324219,17.992673873901367,-28.188522338867188
0.10480143129825592,0.11609746515750885,9.658995628356934,-0.0003063383292368989,0.011709315940643939,-0.0019216735844658289,3.4400429725646973,2019-08-06 15:43:09:265,-179.46800532741005,179.21715042852918,0,-43.18241882324219,17.992673873901367,-28.188522338867188
0.08564343303442001,0.11609746515750885,9.630258560180664,-3.9957173202045016e-05,0.012242078195822388,-0.000856149009090349,3.4500319957733154,2019-08-06 15:43:09:275,-179.47532104338154,179.21901592893056,0,-43.18241882324219,17.992673873901367,-28.188522338867188
0.13353842496871948,0.10891321301460266,9.572784423828125,0.0031566164919694735,0.007979980154394795,0.001541281334268416,3.46010684967041,2019-08-06 15:43:09:285,-179.47434465451224,179.2198129516643,0,-42.732601165771484,19.042245864868164,-27.438827514648438
0.11677517741918564,0.08496572077274323,9.596732139587402,-0.0005727194893354142,0.010910172037727614,-0.0005897678815011245,3.470017194747925,2019-08-06 15:43:09:295,-179.47698581676434,179.22559016640116,0,-42.732601165771484,19.042245864868164,-27.438827514648438
0.11677517741918564,0.07059722393751144,9.709284782409668,0.0002264239747054862,0.01357398435391716,0.00047575672638364575,3.479987144470215,2019-08-06 15:43:09:305,-179.48126351827065,179.2326196832349,0,-42.732601165771484,19.042245864868164,-27.438827514648438
0.09761717915534973,0.11130796372890472,9.637442588806152,-0.0003063383292368989,0.013307602706179285,0.005803379635770335,3.490037441253662,2019-08-06 15:43:09:315,-179.4875415060803,179.23490596147246,0,-42.732601165771484,19.042245864868164,-27.438827514648438
0.10959093272686005,0.09454471617937088,9.596732139587402,-0.0011054818095324445,0.013307602706179285,-0.0024544358396442778,3.500007390975952,2019-08-06 15:43:09:325,-179.49215508292036,179.2395377815989,0,-42.732601165771484,19.042245864868164,-27.438827514648438
0.09522242844104767,0.08975522220134735,9.663784980773926,0.0012919485988449018,0.011442934292906064,0.0010085190140713856,3.5100507736206055,2019-08-06 15:43:09:335,-179.49747409530463,179.2433757321687,0,-42.732601165771484,19.042245864868164,-27.438827514648438
0.08803818374872208,0.09454471617937088,9.63265323638916,-0.0005727194893354142,0.009578266919930143,-5.7005565367755386e-05,3.5200417041778564,2019-08-06 15:43:09:345,-179.50242505021959,179.24758267998206,0,-42.732601165771484,19.042245864868164,-27.438827514648438
0.12156467884778976,0.11849221587181091,9.64462661743164,0.0020910919816125757,0.01357398435391716,0.006069760763359559,3.530118703842163,2019-08-06 15:43:09:355,-179.50561420299303,179.24737002757234,0,-42.732601165771484,19.042245864868164,-27.438827514648438
0.12874892354011536,0.09693946689367294,9.627863883972168,0.0004928051185493561,0.014905889471714633,0.0012749002066791914,3.540029525756836,2019-08-06 15:43:09:365,-179.508474036523,179.25061096697252,0,-42.732601165771484,19.042245864868164,-27.438827514648438
0.13593317568302155,0.14243970811367035,9.687732696533203,0.0002264239747054862,0.012774840451000838,0.0012749002066791914,3.5500948429107666,2019-08-06 15:43:09:375,-179.5094466332224,179.24862348224505,0,-42.732601165771484,19.042245864868164,-27.438827514648438
0.14072267711162567,0.12328171730041504,9.618284225463867,-0.003502911957835466,0.009311885272192268,0.00047575672638364575,3.560029983520508,2019-08-06 15:43:09:385,-179.50768799476245,179.25091824334487,0,-42.732601165771484,19.042245864868164,-27.438827514648438
0.14072267711162567,0.07059722393751144,9.60391616821289,-0.0037692930854246903,0.013307602706179285,0.0012749002066791914,3.5701112747192383,2019-08-06 15:43:09:395,-179.508277696834,179.25961020139275,0,-42.732601165771484,19.042245864868164,-27.438827514648438
0.08564343303442001,0.12807121872901917,9.615889549255371,-3.9957173202045016e-05,0.011442934292906064,0.003405949227392988,3.5800342559814453,2019-08-06 15:43:09:405,-179.51428207962357,179.2591790484232,0,-43.03247833251953,17.542856216430664,-28.038583755493164
0.1263541728258133,0.08975522220134735,9.63265323638916,-0.0016382440647108938,0.011442934292906064,0.0023404247170360896,3.5900380611419678,2019-08-06 15:43:09:415,-179.51539364570064,179.26423857578504,0,-43.03247833251953,17.542856216430664,-28.038583755493164
0.11677517741918564,0.12328171730041504,9.623074531555176,-0.002703768575067792,0.014639508864274061,0.0020740435894468653,3.599994659423828,2019-08-06 15:43:09:425,-179.51936525649137,179.26578579531508,0,-43.03247833251953,17.542856216430664,-28.038583755493164
0.11438042670488358,0.08496572077274323,9.596732139587402,-0.0019046251923001184,0.01064379143028704,0.005270617380591885,3.609992027282715,2019-08-06 15:43:09:435,-179.52129569246472,179.2713940180597,0,-43.03247833251953,17.542856216430664,-28.038583755493164
0.10480143129825592,0.099334217607975,9.615889549255371,0.0015583297264341264,0.006914455123889247,0.0012749002066791914,3.6199870109558105,2019-08-06 15:43:09:445,-179.52226170471772,179.2732544419067,0,-43.03247833251953,17.542856216430664,-28.038583755493164
0.10719618201255798,0.1065184697508812,9.606310844421387,-0.0013718629371216693,0.01410674660909561,-0.0013889113292873795,3.6299962997436523,2019-08-06 15:43:09:455,-179.52695808229979,179.27585453562935,0,-43.03247833251953,17.542856216430664,-28.038583755493164
0.08564343303442001,0.08736047148704529,9.599126815795898,-0.0005727194893354142,0.010377409782549165,-0.002987198094822727,3.639998435974121,2019-08-06 15:43:09:465,-179.5320234764416,179.28023054601624,0,-43.03247833251953,17.542856216430664,-28.038583755493164
0.14311742782592773,0.13765020668506622,9.642231941223145,0.001824710854023351,0.011975696548084513,-0.001122530201698155,3.6500048637390137,2019-08-06 15:43:09:475,-179.5311043541792,179.27724299698028,0,-43.03247833251953,17.542856216430664,-28.038583755493164
0.11198568344116211,0.10891321301460266,9.675758361816406,0.0026238542367910244,0.008512742409573244,0.0018076624618576407,3.6599998474121094,2019-08-06 15:43:09:485,-179.53199771056777,179.27732736364342,0,-43.03247833251953,17.542856216430664,-28.038583755493164
0.08324868232011795,0.08496572077274323,9.697311401367188,0.0020910919816125757,0.010111029175108591,0.0010085190140713856,3.6700329780578613,2019-08-06 15:43:09:495,-179.53721677446282,179.2805627762827,0,-43.03247833251953,17.542856216430664,-28.038583755493164
0.1383279263973236,0.09214996546506882,9.67336368560791,-0.004302055340603139,0.011709315940643939,-0.0005897678815011245,3.68009877204895,2019-08-06 15:43:09:505,-179.53670512491135,179.28646717238988,0,-43.03247833251953,17.542856216430664,-28.038583755493164
0.1838281750679016,0.10412371903657913,9.67336368560791,0.0002264239747054862,0.012508459843560263,-0.001655292456876604,3.6900343894958496,2019-08-06 15:43:09:515,-179.5311754521756,179.28827739520952,0,-43.03247833251953,17.542856216430664,-28.038583755493164
0.12395942956209183,0.07538671791553497,9.6901273727417,0.002890235364380249,0.011176553685465489,0.00047575672638364575,3.700113534927368,2019-08-06 15:43:09:525,-179.53221908615296,179.29196138887073,0,-43.03247833251953,17.542856216430664,-28.038583755493164
0.1000119298696518,0.13046596944332123,9.62067985534668,-3.9957173202045016e-05,0.012774840451000838,-0.0019216735844658289,3.710003137588501,2019-08-06 15:43:09:535,-179.5367566167435,179.2906055488169,0,-43.18241882324219,18.592430114746094,-28.788278579711914
0.09761717915534973,0.06341297179460526,9.64462661743164,-0.0019046251923001184,0.008512742409573244,0.00553699850818111,3.7200193405151367,2019-08-06 15:43:09:545,-179.5392112419161,179.29833038192257,0,-43.18241882324219,18.592430114746094,-28.788278579711914
0.14072267711162567,0.12328171730041504,9.601521492004395,0.0023574731092018,0.01357398435391716,0.0020740435894468653,3.7299859523773193,2019-08-06 15:43:09:555,-179.53922967508157,179.29633194533247,0,-43.18241882324219,18.592430114746094,-28.788278579711914
0.12874892354011536,0.07059722393751144,9.66139030456543,-0.0003063383292368989,0.012242078195822388,-0.0003233867214026093,3.7400057315826416,2019-08-06 15:43:09:565,-179.54006287393236,179.30220442762177,0,-43.18241882324219,18.592430114746094,-28.788278579711914
0.12156467884778976,0.08975522220134735,9.64462661743164,-0.002171006319889343,0.009311885272192268,-5.7005565367755386e-05,3.749997138977051,2019-08-06 15:43:09:575,-179.54004292725583,179.30671444960416,0,-43.18241882324219,18.592430114746094,-28.788278579711914
0.1455121785402298,0.07778146862983704,9.635047912597656,-0.0011054818095324445,0.01064379143028704,0.0010085190140713856,3.7600088119506836,2019-08-06 15:43:09:585,-179.5379207794865,179.3119511064554,0,-43.18241882324219,18.592430114746094,-28.788278579711914
0.11438042670488358,0.07778146862983704,9.630258560180664,-0.0016382440647108938,0.01064379143028704,-0.002987198094822727,3.7699873447418213,2019-08-06 15:43:09:595,-179.53951638931605,179.31737487587827,0,-43.18241882324219,18.592430114746094,-28.788278579711914
0.1383279263973236,0.08496572077274323,9.60391616821289,0.0026238542367910244,0.011975696548084513,0.0007421378864821609,3.7800028324127197,2019-08-06 15:43:09:605,-179.53895700746966,179.31941417023123,0,-43.18241882324219,18.592430114746094,-28.788278579711914
0.1191699281334877,0.07059722393751144,9.594337463378906,0.0015583297264341264,0.007713599026805571,-0.001122530201698155,3.7900125980377197,2019-08-06 15:43:09:615,-179.53828074643133,179.32371828808346,0,-43.18241882324219,18.592430114746094,-28.788278579711914
0.13114367425441742,0.10172896832227707,9.654206275939941,0.0010255674062370958,0.011176553685465489,0.00047575672638364575,3.800025224685669,2019-08-06 15:43:09:625,-179.5382334040516,179.32459296657942,0,-43.18241882324219,18.592430114746094,-28.788278579711914
0.09043293446302414,0.11370271444320679,9.663784980773926,0.0031566164919694735,0.014639508864274061,-0.003519960350001176,3.8099989891052246,2019-08-06 15:43:09:635,-179.5449441601273,179.32285126434022,0,-43.18241882324219,18.592430114746094,-28.788278579711914
0.13593317568302155,0.10172896832227707,9.64462661743164,0.004222141002326372,0.012242078195822388,-0.001655292456876604,3.8200042247772217,2019-08-06 15:43:09:645,-179.54477310626652,179.32193590531395,0,-43.18241882324219,18.592430114746094,-28.788278579711914
0.13353842496871948,0.1065184697508812,9.675758361816406,-0.0008391006169246387,0.012242078195822388,-0.0003233867214026093,3.8299968242645264,2019-08-06 15:43:09:655,-179.54493230140164,179.3233533486612,0,-42.28278350830078,18.592430114746094,-27.88864517211914
0.152696430683136,0.11130796372890472,9.599126815795898,0.0010255674062370958,0.01410674660909561,-0.0005897678815011245,3.8400049209594727,2019-08-06 15:43:09:665,-179.5437340732176,179.32302293815786,0,-42.28278350830078,18.592430114746094,-27.88864517211914
0.13114367425441742,0.08496572077274323,9.63265323638916,0.0002264239747054862,0.011442934292906064,0.0010085190140713856,3.849997043609619,2019-08-06 15:43:09:675,-179.5436794283377,179.3263280490393,0,-42.28278350830078,18.592430114746094,-27.88864517211914
0.0928276851773262,0.10172896832227707,9.67336368560791,-0.0024373874474785677,0.013041222098738713,0.0026068058446253144,3.860030174255371,2019-08-06 15:43:09:685,-179.5491566128386,179.3291241487671,0,-42.28278350830078,18.592430114746094,-27.88864517211914
0.152696430683136,0.09214996546506882,9.692522048950195,-0.0005727194893354142,0.011442934292906064,-0.0003233867214026093,3.87003755569458,2019-08-06 15:43:09:695,-179.5465521025878,179.33196921969483,0,-42.28278350830078,18.592430114746094,-27.88864517211914
0.15509118139743805,0.07299196720123291,9.572784423828125,-0.005900342106138487,0.011442934292906064,-0.0019216735844658289,3.8800175189971924,2019-08-06 15:43:09:705,-179.54346972483995,179.33989885562212,0,-42.28278350830078,18.592430114746094,-27.88864517211914
0.1191699281334877,0.10412371903657913,9.656600952148438,0.003955759874737148,0.011176553685465489,0.006868904146127233,3.8900251388549805,2019-08-06 15:43:09:715,-179.5447399646813,179.3385225077889,0,-42.28278350830078,18.592430114746094,-27.88864517211914
0.1383279263973236,0.09454471617937088,9.606310844421387,-0.005367579850960038,0.011975696548084513,-0.002987198094822727,3.900235176086426,2019-08-06 15:43:09:725,-179.54421104654045,179.3435515831788,0,-42.28278350830078,18.592430114746094,-27.88864517211914
0.13114367425441742,0.11130796372890472,9.613494873046875,-0.002703768575067792,0.009844647527370716,0.0010085190140713856,3.9102187156677246,2019-08-06 15:43:09:735,-179.5432143038069,179.34492904898886,0,-42.28278350830078,18.592430114746094,-27.88864517211914
0.0736696869134903,0.10172896832227707,9.584757804870605,0.0015583297264341264,0.013840364961357736,0.0007421378864821609,3.920041084289551,2019-08-06 15:43:09:745,-179.55117583847928,179.34500915581998,0,-42.28278350830078,18.592430114746094,-27.88864517211914
0.10240668058395386,0.07059722393751144,9.608705520629883,-0.0024373874474785677,0.012508459843560263,0.00020937558253977584,3.930039882659912,2019-08-06 15:43:09:755,-179.55496260112847,179.3510582614281,0,-42.28278350830078,18.592430114746094,-27.88864517211914
0.11677517741918564,0.11370271444320679,9.70210075378418,-0.004568436468192365,0.01357398435391716,0.003938711482571438,3.9400596618652344,2019-08-06 15:43:09:765,-179.5577085422072,179.35317852241752,0,-42.28278350830078,18.592430114746094,-27.88864517211914
0.13353842496871948,0.08257097005844116,9.625469207763672,0.0002264239747054862,0.0074472173790676955,-0.0013889113292873795,3.9500412940979004,2019-08-06 15:43:09:775,-179.5548315151755,179.3561581860073,0,-42.28278350830078,18.592430114746094,-27.88864517211914
0.1191699281334877,0.07299196720123291,9.556020736694336,0.0023574731092018,0.013041222098738713,-0.000856149009090349,3.960050344467163,2019-08-06 15:43:09:785,-179.5567745524929,179.35895740383452,0,-43.93211364746094,19.042245864868164,-28.33846092224121
0.1000119298696518,0.11130796372890472,9.613494873046875,-0.0011054818095324445,0.017036938492428433,0.0007421378864821609,3.969996213912964,2019-08-06 15:43:09:795,-179.56323263998968,179.35912845631927,0,-43.93211364746094,19.042245864868164,-28.33846092224121
0.10959093272686005,0.0801762193441391,9.647021293640137,-0.002970149702657017,0.0074472173790676955,-0.0027208169672335025,3.980010986328125,2019-08-06 15:43:09:805,-179.56313863412345,179.36409262139452,0,-43.93211364746094,19.042245864868164,-28.33846092224121
0.12395942956209183,0.08975522220134735,9.630258560180664,-0.0005727194893354142,0.012508459843560263,-0.0024544358396442778,3.990017890930176,2019-08-06 15:43:09:815,-179.56415493288617,179.36645280387563,0,-43.93211364746094,19.042245864868164,-28.33846092224121
0.15030167996883392,0.11130796372890472,9.577573776245117,0.004754903517579147,0.013840364961357736,-0.0027208169672335025,4.0000386238098145,2019-08-06 15:43:09:825,-179.5626778177457,179.36313141998977,0,-43.93211364746094,19.042245864868164,-28.33846092224121
0.14072267711162567,0.12088696658611298,9.649415969848633,-0.003502911957835466,0.01357398435391716,0.0007421378864821609,4.010027170181274,2019-08-06 15:43:09:835,-179.56232698021358,179.36347824841758,0,-43.93211364746094,19.042245864868164,-28.33846092224121
0.09522242844104767,0.12328171730041504,9.685338020324707,-0.004035674213013915,0.016504176237249982,0.0020740435894468653,4.020031929016113,2019-08-06 15:43:09:845,-179.56908609541554,179.36389056457793,0,-43.93211364746094,19.042245864868164,-28.33846092224121
0.12156467884778976,0.099334217607975,9.637442588806152,0.0015583297264341264,0.012774840451000838,0.0010085190140713856,4.03003454208374,2019-08-06 15:43:09:855,-179.57042573109177,179.36392686044542,0,-43.93211364746094,19.042245864868164,-28.33846092224121
0.10240668058395386,0.12088696658611298,9.670969009399414,0.0023574731092018,0.010910172037727614,-0.0019216735844658289,4.0400309562683105,2019-08-06 15:43:09:865,-179.57300732627314,179.36100189834568,0,-43.93211364746094,19.042245864868164,-28.33846092224121
0.10240668058395386,0.11370271444320679,9.611100196838379,0.0004928051185493561,0.01064379143028704,-0.0019216735844658289,4.0500288009643555,2019-08-06 15:43:09:875,-179.57531304880928,179.35994925630547,0,-43.93211364746094,19.042245864868164,-28.33846092224121
0.08085393160581589,0.09693946689367294,9.606310844421387,0.0002264239747054862,0.011442934292906064,0.0010085190140713856,4.060029745101929,2019-08-06 15:43:09:885,-179.5805879274271,179.36105982015437,0,-43.93211364746094,19.042245864868164,-28.33846092224121
0.06409068405628204,0.0801762193441391,9.584757804870605,-0.0011054818095324445,0.011709315940643939,-0.0021880547120550534,4.070044994354248,2019-08-06 15:43:09:895,-179.5878986463328,179.36487496993743,0,-43.93211364746094,19.042245864868164,-28.33846092224121
0.152696430683136,0.0801762193441391,9.618284225463867,0.0023574731092018,0.01357398435391716,0.0012749002066791914,4.08002781867981,2019-08-06 15:43:09:905,-179.58555873944815,179.36670410925458,0,-43.18241882324219,17.69279670715332,-27.288888931274414
0.12156467884778976,0.12328171730041504,9.599126815795898,-0.0013718629371216693,0.015971413982071532,0.0020740435894468653,4.0900349617004395,2019-08-06 15:43:09:915,-179.58831063880174,179.36542467590766,0,-43.18241882324219,17.69279670715332,-27.288888931274414
0.10959093272686005,0.16399246454238892,9.599126815795898,0.0010255674062370958,0.011442934292906064,-0.0021880547120550534,4.100029230117798,2019-08-06 15:43:09:925,-179.5898838598213,179.35796562285194,0,-43.18241882324219,17.69279670715332,-27.288888931274414
0.13114367425441742,0.1328607201576233,9.548836708068848,-3.9957173202045016e-05,0.016770557884987856,0.0028731869722145387,4.110027551651001,2019-08-06 15:43:09:935,-179.59176423808083,179.35488571704326,0,-43.18241882324219,17.69279670715332,-27.288888931274414
0.14790692925453186,0.08496572077274323,9.670969009399414,0.0002264239747054862,0.012774840451000838,-0.0024544358396442778,4.120028495788574,2019-08-06 15:43:09:945,-179.58957852246175,179.35759350298935,0,-43.18241882324219,17.69279670715332,-27.288888931274414
0.0664854347705841,0.1400449573993683,9.625469207763672,0.0015583297264341264,0.013840364961357736,0.0031395680998037635,4.130030870437622,2019-08-06 15:43:09:955,-179.59764515434568,179.35289519858682,0,-43.18241882324219,17.69279670715332,-27.288888931274414
0.10240668058395386,0.08736047148704529,9.709284782409668,0.007152333665882167,0.010111029175108591,0.006336141890948784,4.140028953552246,2019-08-06 15:43:09:965,-179.59928263168985,179.351511802058,0,-43.18241882324219,17.69279670715332,-27.288888931274414
0.13114367425441742,0.11130796372890472,9.658995628356934,-0.0013718629371216693,0.01357398435391716,-0.0003233867214026093,4.150031566619873,2019-08-06 15:43:09:975,-179.59936319027338,179.35204739279473,0,-43.18241882324219,17.69279670715332,-27.288888931274414
0.1263541728258133,0.10891321301460266,9.651811599731445,0.003689378747147923,0.011176553685465489,0.0031395680998037635,4.160032510757446,2019-08-06 15:43:09:985,-179.59865154064374,179.35000444774172,0,-43.18241882324219,17.69279670715332,-27.288888931274414
0.10719618201255798,0.11849221587181091,9.637442588806152,0.0026238542367910244,0.01064379143028704,-0.0013889113292873795,4.170029163360596,2019-08-06 15:43:09:995,-179.59990761998702,179.3474432557918,0,-43.18241882324219,17.69279670715332,-27.288888931274414
0.12395942956209183,0.08257097005844116,9.66139030456543,-0.007498629391822486,0.015438651726893083,0.0012749002066791914,4.180030822753906,2019-08-06 15:43:10:005,-179.60187794793018,179.35491224252337,0,-43.18241882324219,17.69279670715332,-27.288888931274414
0.1000119298696518,0.10412371903657913,9.66139030456543,0.0034229976195586987,0.013307602706179285,0.0026068058446253144,4.1900341510772705,2019-08-06 15:43:10:015,-179.60545331229764,179.3535419494309,0,-43.18241882324219,17.69279670715332,-27.288888931274414
0.10240668058395386,0.10891321301460266,9.570389747619629,0.0015583297264341264,0.012774840451000838,-0.0013889113292873795,4.200026750564575,2019-08-06 15:43:10:025,-179.60825074397886,179.3525565407276,0,-43.18241882324219,17.69279670715332,-27.288888931274414
0.10240668058395386,0.11130796372890472,9.608705520629883,0.0026238542367910244,0.01410674660909561,-0.001122530201698155,4.210029602050781,2019-08-06 15:43:10:035,-179.6117965469637,179.3507579209996,0,-43.482295989990234,19.19218635559082,-27.88864517211914
0.08564343303442001,0.0801762193441391,9.606310844421387,-0.0013718629371216693,0.005848930613532348,-0.001122530201698155,4.220028877258301,2019-08-06 15:43:10:045,-179.6126285993793,179.35494918397364,0,-43.482295989990234,19.19218635559082,-27.88864517211914
0.10959093272686005,0.11370271444320679,9.627863883972168,0.0004928051185493561,0.011709315940643939,-0.0019216735844658289,4.230028390884399,2019-08-06 15:43:10:055,-179.6139074407498,179.35404115097938,0,-43.482295989990234,19.19218635559082,-27.88864517211914
0.10719618201255798,0.13765020668506622,9.587152481079102,-0.004834817595781589,0.013307602706179285,0.00020937558253977584,4.2400312423706055,2019-08-06 15:43:10:065,-179.6162914085706,179.3532241743679,0,-43.482295989990234,19.19218635559082,-27.88864517211914
0.14311742782592773,0.09454471617937088,9.599126815795898,-0.0003063383292368989,0.011442934292906064,-0.00431910373276885,4.250028133392334,2019-08-06 15:43:10:075,-179.61330510207796,179.35504554012712,0,-43.482295989990234,19.19218635559082,-27.88864517211914
0.1383279263973236,0.07778146862983704,9.575179100036621,-0.004568436468192365,0.01357398435391716,0.0010085190140713856,4.260033130645752,2019-08-06 15:43:10:085,-179.61211125235343,179.36120274055207,0,-43.482295989990234,19.19218635559082,-27.88864517211914
0.14311742782592773,0.11849221587181091,9.682943344116211,0.0010255674062370958,0.009311885272192268,-0.003519960350001176,4.270030498504639,2019-08-06 15:43:10:095,-179.6081604455514,179.35938087223434,0,-43.482295989990234,19.19218635559082,-27.88864517211914
0.12156467884778976,0.09214996546506882,9.579968452453613,-0.002171006319889343,0.011709315940643939,0.00020937558253977584,4.280031442642212,2019-08-06 15:43:10:105,-179.60803234644928,179.36239013507705,0,-43.482295989990234,19.19218635559082,-27.88864517211914
0.08803818374872208,0.12807121872901917,9.678153038024902,-0.0013718629371216693,0.012242078195822388,-0.0024544358396442778,4.290031671524048,2019-08-06 15:43:10:115,-179.61232213106302,179.36074960721436,0,-43.482295989990234,19.19218635559082,-27.88864517211914
0.12395942956209183,0.12328171730041504,9.575179100036621,-0.0008391006169246387,0.01064379143028704,-0.001655292456876604,4.300032138824463,2019-08-06 15:43:10:125,-179.6112183479891,179.359252788929,0,-43.482295989990234,19.19218635559082,-27.88864517211914
0.13353842496871948,0.11130796372890472,9.716469764709473,0.001824710854023351,0.013840364961357736,-0.002987198094822727,4.31001353263855,2019-08-06 15:43:10:135,-179.6110029536788,179.3579184935957,0,-43.482295989990234,19.19218635559082,-27.88864517211914
0.1000119298696518,0.06341297179460526,9.678153038024902,-0.002970149702657017,0.010910172037727614,0.0026068058446253144,4.320030450820923,2019-08-06 15:43:10:145,-179.6130780843645,179.36492254590624,0,-43.482295989990234,19.19218635559082,-27.88864517211914
0.13114367425441742,0.08975522220134735,9.647021293640137,0.001824710854023351,0.011975696548084513,0.001541281334268416,4.330030202865601,2019-08-06 15:43:10:155,-179.61196383072428,179.36593833555787,0,-42.58266067504883,18.89230728149414,-27.88864517211914
0.0928276851773262,0.0801762193441391,9.613494873046875,-0.0019046251923001184,0.013307602706179285,0.007401666401305682,4.340036153793335,2019-08-06 15:43:10:165,-179.61613661088566,179.3701329743487,0,-42.58266067504883,18.89230728149414,-27.88864517211914
0.16227541863918304,0.08736047148704529,9.630258560180664,-0.0013718629371216693,0.013307602706179285,-0.000856149009090349,4.350027799606323,2019-08-06 15:43:10:175,-179.6119723248157,179.37310513222573,0,-42.58266067504883,18.89230728149414,-27.88864517211914
0.09522242844104767,0.08736047148704529,9.658995628356934,-0.004568436468192365,0.011176553685465489,-0.0003233867214026093,4.360030889511108,2019-08-06 15:43:10:185,-179.6147138867527,179.37784507939847,0,-42.58266067504883,18.89230728149414,-27.88864517211914
0.0928276851773262,0.04425497353076935,9.575179100036621,0.0020910919816125757,0.01357398435391716,-0.0005897678815011245,4.3700292110443115,2019-08-06 15:43:10:195,-179.61893123979115,179.3838180254622,0,-42.58266067504883,18.89230728149414,-27.88864517211914
0.13114367425441742,0.08496572077274323,9.66139030456543,-0.0008391006169246387,0.01064379143028704,0.0026068058446253144,4.380028009414673,2019-08-06 15:43:10:205,-179.61697467272967,179.38653543055958,0,-42.58266067504883,18.89230728149414,-27.88864517211914
0.08803818374872208,0.11130796372890472,9.618284225463867,0.005287665772757595,0.01410674660909561,0.0007421378864821609,4.390030860900879,2019-08-06 15:43:10:215,-179.62206984280635,179.3825742979537,0,-42.58266067504883,18.89230728149414,-27.88864517211914
0.1191699281334877,0.14243970811367035,9.623074531555176,0.0007591862786478714,0.013307602706179285,0.0026068058446253144,4.400031566619873,2019-08-06 15:43:10:225,-179.62291114594765,179.37753601984156,0,-42.58266067504883,18.89230728149414,-27.88864517211914
0.07127493619918823,0.12807121872901917,9.658995628356934,-0.005101198723370813,0.016237795629809405,0.00047575672638364575,4.410031080245972,2019-08-06 15:43:10:235,-179.63111427881057,179.37765636383287,0,-42.58266067504883,18.89230728149414,-27.88864517211914
0.07127493619918823,0.12328171730041504,9.647021293640137,-0.0013718629371216693,0.013840364961357736,0.00020937558253977584,4.420028924942017,2019-08-06 15:43:10:245,-179.637795468218,179.3762302225576,0,-42.58266067504883,18.89230728149414,-27.88864517211914
0.09043293446302414,0.09454471617937088,9.618284225463867,-0.0003063383292368989,0.011176553685465489,0.0010085190140713856,4.430033206939697,2019-08-06 15:43:10:255,-179.64054406727396,179.37761407236147,0,-42.58266067504883,18.89230728149414,-27.88864517211914
0.07127493619918823,0.10412371903657913,9.577573776245117,0.0002264239747054862,0.014373127216536186,-0.0003233867214026093,4.440033674240112,2019-08-06 15:43:10:265,-179.6472764716907,179.37747718296708,0,-42.58266067504883,18.89230728149414,-27.88864517211914
0.14790692925453186,0.06820247322320938,9.663784980773926,0.0010255674062370958,0.011442934292906064,0.001541281334268416,4.450026988983154,2019-08-06 15:43:10:275,-179.6432146498859,179.38126496772466,0,-42.58266067504883,18.89230728149414,-27.88864517211914
0.13114367425441742,0.11130796372890472,9.606310844421387,-0.0016382440647108938,0.014373127216536186,0.0007421378864821609,4.460027456283569,2019-08-06 15:43:10:285,-179.64277835807852,179.3812824963336,0,-43.33235549926758,18.742368698120117,-27.738706588745117
0.10959093272686005,0.11609746515750885,9.627863883972168,0.0004928051185493561,0.011709315940643939,-0.0019216735844658289,4.470026969909668,2019-08-06 15:43:10:295,-179.64345420427503,179.37956281265346,0,-43.33235549926758,18.742368698120117,-27.738706588745117
0.15030167996883392,0.08736047148704529,9.630258560180664,-0.002970149702657017,0.00824636128198402,-0.001122530201698155,4.480031728744507,2019-08-06 15:43:10:305,-179.63733452573345,179.38324524677822,0,-43.33235549926758,18.742368698120117,-27.738706588745117
0.152696430683136,0.11849221587181091,9.647021293640137,-0.0013718629371216693,0.011975696548084513,0.0012749002066791914,4.490030288696289,2019-08-06 15:43:10:315,-179.63317476553598,179.38227621163807,0,-43.33235549926758,18.742368698120117,-27.738706588745117
0.13593317568302155,0.08736047148704529,9.596732139587402,-0.002703768575067792,0.011442934292906064,-0.001122530201698155,4.50002908706665,2019-08-06 15:43:10:325,-179.63070542276117,179.3857175164465,0,-43.33235549926758,18.742368698120117,-27.738706588745117
0.152696430683136,0.08736047148704529,9.635047912597656,0.0002264239747054862,0.011975696548084513,-0.001655292456876604,4.51002836227417,2019-08-06 15:43:10:335,-179.62665619137857,179.38748636703545,0,-43.33235549926758,18.742368698120117,-27.738706588745117
0.15030167996883392,0.09214996546506882,9.556020736694336,0.0002264239747054862,0.019167987513142228,-0.0005897678815011245,4.520033359527588,2019-08-06 15:43:10:345,-179.6268692206133,179.3885595670774,0,-43.33235549926758,18.742368698120117,-27.738706588745117
0.14790692925453186,0.08736047148704529,9.60391616821289,-0.005101198723370813,0.009045504664751694,0.0012749002066791914,4.5300281047821045,2019-08-06 15:43:10:355,-179.62176171090323,179.39322783824005,0,-43.33235549926758,18.742368698120117,-27.738706588745117
0.15030167996883392,0.0538339726626873,9.647021293640137,-0.002970149702657017,0.009311885272192268,-0.002987198094822727,4.540036678314209,2019-08-06 15:43:10:365,-179.61670752057626,179.40063787681956,0,-43.33235549926758,18.742368698120117,-27.738706588745117
