ACCELEROMETER X (m/s²),ACCELEROMETER Y (m/s²),ACCELEROMETER Z (m/s²),GYROSCOPE X (rad/s),GYROSCOPE Y (rad/s),GYROSCOPE Z (rad/s),Time since start in ms ,YYYY-MO-DD HH-MI-SS_SSS,Pitch (Deg),Roll (Deg),Heading (Deg),MagX,MagY,MagZ
0.11425590515136719,0.5186836123466492,9.793828964233398,0.0015370192362269886,-0.0008657387296835611,-0.0031105326219151193,0.0,2019-08-07 13:29:37:278,-3.5866322268557487,3.5393686696447055,0,-43.93211364746094,41.233211517333984,-35.53553009033203
0.12144014984369278,0.49952563643455505,9.539985656738281,0.001803400363816213,0.0033963595067997765,-0.002844151494325895,0.010005712509155273,2019-08-07 13:29:37:288,-7.102221469892372,7.007621276183866,0,-43.93211364746094,41.233211517333984,-35.53553009033203
0.018465915694832802,0.5426311492919922,9.714802742004395,0.00020511348449834825,-0.010455460168137204,-0.007106249535753488,0.019997358322143555,2019-08-07 13:29:37:298,-10.552133062422715,10.403413822058393,0,-43.93211364746094,41.233211517333984,-35.53553009033203
0.13580864667892456,0.4636043906211853,9.784250259399414,0.0012706381086377639,-0.005926980478971734,-0.011901110352508182,0.029990673065185547,2019-08-07 13:29:37:308,-13.92185996652483,13.740376542953912,0,-43.93211364746094,41.233211517333984,-35.53553009033203
-0.043797578662633896,0.4564201235771179,9.772276878356934,-0.0061880337239348495,-0.010721840775577777,-0.017761495159471122,0.039999961853027344,2019-08-07 13:29:37:318,-10.042532628229372,17.015564994890063,0,-43.93211364746094,41.233211517333984,-35.53553009033203
0.11186115443706512,0.35584065318107605,9.877645492553711,-0.012314800178635666,-0.010189078520399329,-0.0158968277864952,0.049993276596069336,2019-08-07 13:29:37:328,-13.422988076345225,20.240900228018813,0,-43.93211364746094,41.233211517333984,-35.53553009033203
-0.134798064827919,0.3534458875656128,9.791434288024902,-0.012581181826373541,-0.00965631626522088,-0.019892544180184917,0.059973955154418945,2019-08-07 13:29:37:338,-9.56489153436156,23.40178620318602,0,-43.93211364746094,41.233211517333984,-35.53553009033203
-0.16592980921268463,0.3247089087963104,9.978224754333496,-0.016843279867801136,-0.007258886116917857,-0.014564921628400425,0.07000374794006348,2019-08-07 13:29:37:348,-5.788559599367849,26.5059591887343,0,-43.93211364746094,41.233211517333984,-35.53553009033203
-0.09887681901454926,0.4037356376647949,10.040488243103027,-0.013113944081551988,-0.009389935657780304,-0.0148313032761383,0.07999515533447266,2019-08-07 13:29:37:358,-2.0788048957441023,29.53714381628818,0,-43.93211364746094,41.233211517333984,-35.53553009033203
-0.14677181839942932,0.3606301546096802,9.877645492553711,-0.008052702137208073,-0.0115209846784941,-0.00950367968405651,0.09000134468078613,2019-08-07 13:29:37:368,1.5522183299602998,32.50910682699287,0,-43.93211364746094,41.233211517333984,-35.53553009033203
0.018465915694832802,0.44684112071990967,9.944698333740234,-0.0029914601928641544,-0.007258886116917857,-0.007106249535753488,0.09999251365661621,2019-08-07 13:29:37:378,-2.072625978619027,35.40914855382456,0,-43.93211364746094,41.233211517333984,-35.53553009033203
0.07833465933799744,0.4228936433792114,9.769882202148438,-0.007253558754440398,0.001531691613675204,-0.006573487280575038,0.10999798774719238,2019-08-07 13:29:37:388,-5.6228462483240875,38.255470159344554,0,-43.18241882324219,40.78339385986328,-35.985347747802734
0.1262296438217163,0.5450258851051331,9.796224594116211,0.004467211899782784,0.0031299783792105513,-0.0012458645987533845,0.11999654769897461,2019-08-07 13:29:37:398,-9.097381624841162,41.02416391765389,0,-43.18241882324219,40.78339385986328,-35.985347747802734
0.33217811584472656,0.46599912643432617,9.812987327575684,0.004200830512119234,0.00019978586194656375,0.008343856384570188,0.12999248504638672,2019-08-07 13:29:37:408,-12.47677069769855,43.746946449619024,0,-43.18241882324219,40.78339385986328,-35.985347747802734
0.3680993616580963,0.5330521464347839,9.592670440673828,0.0071310231756750294,-0.001132119922291367,0.0166016718599848,0.14000415802001953,2019-08-07 13:29:37:418,-15.782648224374855,46.40438717788997,0,-43.18241882324219,40.78339385986328,-35.985347747802734
0.31302013993263245,0.5354468822479248,9.762697219848633,0.006065498665318131,0.002330834996442878,0.01793357697778227,0.14998698234558105,2019-08-07 13:29:37:428,-19.031573007048667,49.01011330006149,0,-43.18241882324219,40.78339385986328,-35.985347747802734
0.3561256229877472,0.46599912643432617,9.633380889892578,0.006331879792907356,0.015117130161022958,0.023527582217601938,0.16000032424926758,2019-08-07 13:29:37:438,-22.21709833713176,51.57096232236058,0,-43.18241882324219,40.78339385986328,-35.985347747802734
0.30104637145996094,0.4899466335773468,9.75790786743164,0.003135306001762336,0.006326551910281247,0.025125867942839983,0.16999316215515137,2019-08-07 13:29:37:448,-25.3409641393055,54.080295478954575,0,-43.18241882324219,40.78339385986328,-35.985347747802734
0.36570462584495544,0.3582353889942169,9.77467155456543,0.0007378757884407334,0.009523125961500591,0.034715590616646676,0.17999911308288574,2019-08-07 13:29:37:458,-28.3966425408018,56.55629672950431,0,-43.18241882324219,40.78339385986328,-35.985347747802734
-0.019850080832839012,0.40134090185165405,9.851303100585938,0.002336162618994662,0.009523125961500591,0.029121585376827002,0.18999409675598145,2019-08-07 13:29:37:468,-24.23636321239747,58.97720103996335,0,-43.18241882324219,40.78339385986328,-35.985347747802734
0.09030840545892715,0.3271036446094513,9.896803855895996,-0.004323365830810277,0.006060170782692022,0.03684663963736047,0.19996166229248047,2019-08-07 13:29:37:478,-27.34457149138081,61.3622163283464,0,-43.18241882324219,40.78339385986328,-35.985347747802734
-0.015060581266880035,0.4181041419506073,10.016541481018066,-0.0019259356825072562,0.00765845806837602,0.04190788158170439,0.21000361442565918,2019-08-07 13:29:37:488,-23.20372127980011,63.688253615621974,0,-43.18241882324219,40.78339385986328,-35.985347747802734
-0.04619232565164566,0.3989461362361908,9.8034086227417,-0.00032764881944403687,0.006859314685608345,0.03498196914349264,0.21999454498291016,2019-08-07 13:29:37:498,-19.148894215138785,65.96806545055266,0,-43.18241882324219,40.78339385986328,-35.985347747802734
0.07354515790939331,0.47318339347839355,9.892014503479004,-0.00032764881944403687,0.007924839195965244,0.03418282732117092,0.23000144958496094,2019-08-07 13:29:37:508,-22.36184969242141,68.19411525174674,0,-43.18241882324219,40.78339385986328,-35.985347747802734
0.07593990862369537,0.4181041419506073,9.721986770629883,0.003668068256940785,0.015117130161022958,0.0333836834182546,0.24000144004821777,2019-08-07 13:29:37:518,-25.514150200592553,70.3789223913699,0,-43.18241882324219,40.78339385986328,-35.985347747802734
0.15017715096473694,0.5043151378631592,9.755513191223145,0.007663785430853478,0.015383510768463532,0.025125867942839983,0.24999046325683594,2019-08-07 13:29:37:528,-28.594856612320775,72.5078595849281,0,-43.18241882324219,40.78339385986328,-35.985347747802734
0.13101914525032043,0.5043151378631592,9.8034086227417,0.0055327364101396825,0.010322268824119614,0.022195675019209864,0.26000237464904785,2019-08-07 13:29:37:538,-31.613448472301865,74.59569483946392,0,-43.18241882324219,40.78339385986328,-35.985347747802734
0.16933514177799225,0.49952563643455505,9.633380889892578,0.010860359482072824,0.012453318885130711,0.017400815762901124,0.26999425888061523,2019-08-07 13:29:37:548,-34.568025570327706,76.63832111756606,0,-43.18241882324219,40.78339385986328,-35.985347747802734
0.20765113830566406,0.5354468822479248,9.781855583190918,0.007663785430853478,0.012186937237392836,0.011007667660462434,0.28000426292419434,2019-08-07 13:29:37:558,-37.45919278667649,78.63858369591966,0,-43.18241882324219,40.78339385986328,-35.985347747802734
-0.14437706768512726,0.5450258851051331,9.736355781555176,0.00047149462834221814,0.0009989292934781736,0.007811094129391739,0.28998827934265137,2019-08-07 13:29:37:568,-33.12756007430385,80.60146802608942,0,-43.18241882324219,40.78339385986328,-35.985347747802734
0.01367641519755125,0.4396568834781647,9.777066230773926,0.002602543746583887,0.006326551910281247,0.001950709062354473,0.299999475479126,2019-08-07 13:29:37:578,-36.06696226480237,82.53648065637593,0,-43.18241882324219,40.78339385986328,-35.985347747802734
-0.022244829684495926,0.5019204020500183,9.805803298950195,0.001803400363816213,0.0009989292934781736,-0.0009794834711641602,0.30999255180358887,2019-08-07 13:29:37:588,-31.74878307629797,84.42613538244971,0,-43.18241882324219,40.78339385986328,-35.985347747802734
0.10467690229415894,0.4037356376647949,9.77467155456543,0.004733593027372009,0.0009989292934781736,-0.0068398684081642635,0.32001471519470215,2019-08-07 13:29:37:598,-34.7020984208673,86.28764456397502,0,-43.18241882324219,40.78339385986328,-35.985347747802734
0.11425590515136719,0.4516306221485138,9.688460350036621,0.00047149462834221814,-0.0013985010498805918,-0.010569204194413408,0.3299884796142578,2019-08-07 13:29:37:608,-37.59376011279015,88.10824904980599,0,-43.18241882324219,40.78339385986328,-35.985347747802734
0.06636090576648712,0.5617890954017639,9.74593448638916,0.006331879792907356,0.002064453868853653,-0.018027875766911696,0.3399922847747803,2019-08-07 13:29:37:618,-40.43524202247767,89.87654588427355,0,-43.18241882324219,40.78339385986328,-35.985347747802734
0.10467690229415894,0.4899466335773468,9.798619270324707,-0.0032578413204533796,-6.659528596096748e-05,-0.02522016673196941,0.35000133514404297,2019-08-07 13:29:37:628,-43.21425860877181,91.62359596310327,0,-43.18241882324219,40.78339385986328,-35.985347747802734
0.11186115443706512,0.4947361350059509,9.640565872192383,0.0012706381086377639,-0.005127837096204061,-0.030547791364348504,0.35999226570129395,2019-08-07 13:29:37:638,-45.93380111411211,93.33165648755595,0,-43.632232666015625,41.233211517333984,-35.53553009033203
0.12144014984369278,0.46839389204978943,9.75790786743164,0.004733593027372009,-0.005926980478971734,-0.03321160159994345,0.37000370025634766,2019-08-07 13:29:37:648,-48.59753276093497,95.00739897182042,0,-43.632232666015625,41.233211517333984,-35.53553009033203
0.025650164112448692,0.3989461362361908,9.743539810180664,0.0015370192362269886,-0.006193361606560959,-0.043600466096071856,0.37999558448791504,2019-08-07 13:29:37:658,-51.21909071332936,96.65949570261124,0,-43.632232666015625,41.233211517333984,-35.53553009033203
0.07115040719509125,0.4588148891925812,9.743539810180664,-0.0011267922997395827,-0.006459742734150184,-0.047862564137499446,0.3899962902069092,2019-08-07 13:29:37:668,-53.782713817250894,98.27301817891858,0,-43.632232666015625,41.233211517333984,-35.53553009033203
0.17651939392089844,0.4827623665332794,9.726776123046875,0.0028689248741731116,-6.659528596096748e-05,-0.05105913974916475,0.39999818801879883,2019-08-07 13:29:37:678,-56.28622859905808,99.84911880650539,0,-43.632232666015625,41.233211517333984,-35.53553009033203
0.01607116498053074,0.40134090185165405,9.822566032409668,0.0015370192362269886,-0.010189078520399329,-0.052657423393808196,0.4099903106689453,2019-08-07 13:29:37:688,-58.75291249506943,101.40447906127677,0,-43.632232666015625,41.233211517333984,-35.53553009033203
0.028044912964105606,0.4324726462364197,9.736355781555176,0.0007378757884407334,-0.005127837096204061,-0.044133227310953003,0.42000746726989746,2019-08-07 13:29:37:698,-61.17166930869486,102.92510823346572,0,-43.632232666015625,41.233211517333984,-35.53553009033203
0.020860664546489716,0.4133146405220032,9.824960708618164,-0.00032764881944403687,-0.0016648821774698163,-0.040670273172441734,0.42998790740966797,2019-08-07 13:29:37:708,-63.54486988171185,104.41861192364526,0,-43.632232666015625,41.233211517333984,-35.53553009033203
0.07833465933799744,0.44684112071990967,9.77467155456543,-0.004856128085988727,-0.0027304066878267143,-0.03560903122809782,0.43999433517456055,2019-08-07 13:29:37:718,-65.86325515627972,105.88061999774868,0,-43.632232666015625,41.233211517333984,-35.53553009033203
0.05678191035985947,0.5162888765335083,9.851303100585938,0.0012706381086377639,-0.004328693453362062,-0.02468740551708826,0.449995756149292,2019-08-07 13:29:37:728,-68.13695428437921,107.3022935757068,0,-43.632232666015625,41.233211517333984,-35.53553009033203
0.01367641519755125,0.4851571321487427,9.832145690917969,0.00020511348449834825,-0.0019312633050590406,-0.02415464222161251,0.46000099182128906,2019-08-07 13:29:37:738,-70.37153627325033,108.69963426965752,0,-43.632232666015625,41.233211517333984,-35.53553009033203
0.06875565648078918,0.4636043906211853,9.74593448638916,-0.00272507906527493,-0.0016648821774698163,-0.016163208393935775,0.46999621391296387,2019-08-07 13:29:37:748,-72.55508708971625,110.07270197834718,0,-43.632232666015625,41.233211517333984,-35.53553009033203
0.0352291613817215,0.4851571321487427,9.731565475463867,0.0007378757884407334,0.001531691613675204,-0.012167492000246055,0.4799957275390625,2019-08-07 13:29:37:758,-74.70069704721979,111.41375246495421,0,-43.632232666015625,41.233211517333984,-35.53553009033203
-0.04619232565164566,0.48755186796188354,9.810592651367188,0.0028689248741731116,0.0041955028895674495,-0.0017786268539318336,0.48999857902526855,2019-08-07 13:29:37:768,-69.61443495160407,112.72696490680045,0,-43.632232666015625,41.233211517333984,-35.53553009033203
-0.043797578662633896,0.4588148891925812,9.817776679992676,0.0010042569160299579,-0.006193361606560959,-0.004975200515039691,0.4999988079071045,2019-08-07 13:29:37:778,-64.62378056006219,114.0183484828069,0,-43.632232666015625,41.233211517333984,-35.53553009033203
-0.07492932677268982,0.4779728949069977,9.74593448638916,0.0010042569160299579,0.0031299783792105513,0.001950709062354473,0.5099868774414062,2019-08-07 13:29:37:788,-59.741870259825696,115.28126379542302,0,-43.632232666015625,41.233211517333984,-35.53553009033203
0.10467690229415894,0.43486738204956055,9.822566032409668,0.002602543746583887,0.005793789655102798,0.00035242226430983473,0.5200004577636719,2019-08-07 13:29:37:798,-62.13807917217972,116.5234760224674,0,-43.632232666015625,41.233211517333984,-35.53553009033203
-0.08450832217931747,0.5546048879623413,9.719592094421387,0.0028689248741731116,-0.00033297644199582136,0.011274049308200309,0.5299956798553467,2019-08-07 13:29:37:808,-57.305093780945896,117.72608067129597,0,-43.632232666015625,41.233211517333984,-35.53553009033203
0.09270315617322922,0.46599912643432617,9.81538200378418,-0.0024586979376857053,0.004728265144745899,0.007811094129391739,0.540151834487915,2019-08-07 13:29:37:818,-59.750865791579166,118.91859803048813,0,-43.632232666015625,41.233211517333984,-35.53553009033203
-0.0629555732011795,0.4492358863353729,9.834540367126465,-0.0032578413204533796,0.002597216124032102,0.01020852479784341,0.5500335693359375,2019-08-07 13:29:37:828,-54.9646250129081,120.08972533689689,0,-43.632232666015625,41.233211517333984,-35.53553009033203
-0.0701398253440857,0.5043151378631592,9.726776123046875,-0.004323365830810277,0.002597216124032102,0.005147282853499493,0.5599796772003174,2019-08-07 13:29:37:838,-50.27504604583352,121.23098488619203,0,-43.632232666015625,41.233211517333984,-35.53553009033203
-0.012665831483900547,0.5162888765335083,9.949487686157227,-0.0032578413204533796,0.00019978586194656375,0.008343856384570188,0.5702707767486572,2019-08-07 13:29:37:848,-45.67111933509874,122.34883829004869,0,-43.632232666015625,41.233211517333984,-35.53553009033203
-0.15874555706977844,0.4444463849067688,9.798619270324707,-0.0056552714687564,-0.005127837096204061,0.0048809017259102685,0.5799453258514404,2019-08-07 13:29:37:857,-41.1734745164611,123.45299269675374,0,-43.632232666015625,41.233211517333984,-35.53553009033203
-0.04140282794833183,0.5378416180610657,9.839329719543457,0.0015370192362269886,-0.0021976444326482656,0.006479188491445616,0.590130090713501,2019-08-07 13:29:37:868,-36.7535701118168,124.52047761427438,0,-43.632232666015625,41.233211517333984,-35.53553009033203
0.10467690229415894,0.42768314480781555,9.748329162597656,-0.004856128085988727,-0.0037959311981836125,0.001950709062354473,0.6001100540161133,2019-08-07 13:29:37:878,-39.6040672784481,125.5825473948187,0,-43.632232666015625,41.233211517333984,-35.53553009033203
0.07593990862369537,0.6024998426437378,9.583091735839844,0.007663785430853478,0.006859314685608345,0.00967576254266496,0.6103775501251221,2019-08-07 13:29:37:888,-42.40685999239902,126.59452782189852,0,-43.33235549926758,39.733821868896484,-36.13528823852539
0.1789141446352005,0.3534458875656128,9.824960708618164,-0.003524222448042604,0.003662740634389001,0.008876618639748637,0.6199414730072021,2019-08-07 13:29:37:897,-45.139824727222944,127.62332409962697,0,-43.33235549926758,39.733821868896484,-36.13528823852539
0.16454564034938812,0.4492358863353729,9.616618156433105,0.004733593027372009,0.007392076940786795,0.005413663981088718,0.6299915313720703,2019-08-07 13:29:37:908,-47.82159431665723,128.61469437607195,0,-43.33235549926758,39.733821868896484,-36.13528823852539
0.30583587288856506,0.5114994049072266,9.741145133972168,0.006864642048085805,-0.0019312633050590406,0.007278331874213289,0.6399846076965332,2019-08-07 13:29:37:918,-50.42811308906515,129.57843280855334,0,-43.33235549926758,39.733821868896484,-36.13528823852539
0.33217811584472656,0.44684112071990967,9.63817024230957,-0.0024586979376857053,0.0007325481658889489,0.008077475256980963,0.6499943733215332,2019-08-07 13:29:37:928,-52.98048436808641,130.53515757510868,0,-43.33235549926758,39.733821868896484,-36.13528823852539
0.15496665239334106,0.6240525841712952,9.59745979309082,0.009528453323978052,-6.659528596096748e-05,0.008876618639748637,0.6599957942962646,2019-08-07 13:29:37:938,-55.50233621250865,131.44469768709388,0,-43.33235549926758,39.733821868896484,-36.13528823852539
0.30583587288856506,0.4252883791923523,9.78664493560791,0.0007378757884407334,0.011121412727035939,0.006212807363856391,0.6699686050415039,2019-08-07 13:29:37:948,-57.96271857894279,132.36562495350552,0,-43.33235549926758,39.733821868896484,-36.13528823852539
0.03283441439270973,0.5019204020500183,9.769882202148438,-6.126766340918298e-05,0.0031299783792105513,0.015536147349627901,0.6799893379211426,2019-08-07 13:29:37:958,-60.40137417523562,133.25952808054544,0,-43.33235549926758,39.733821868896484,-36.13528823852539
-0.0629555732011795,0.36781439185142517,9.90638256072998,0.00020511348449834825,0.0009989292934781736,0.015536147349627901,0.6899852752685547,2019-08-07 13:29:37:968,-55.60118961606707,134.15169519352932,0,-43.33235549926758,39.733821868896484,-36.13528823852539
-0.13000856339931488,0.44684112071990967,9.872856140136719,-0.008052702137208073,-0.0016648821774698163,0.017667196370341698,0.6999671459197998,2019-08-07 13:29:37:978,-50.90332155809313,135.0213464081934,0,-43.33235549926758,39.733821868896484,-36.13528823852539
-0.07253457605838776,0.40134090185165405,9.896803855895996,-0.005921652596345625,-0.001132119922291367,0.017400815762901124,0.7099528312683105,2019-08-07 13:29:37:988,-46.29301872236051,135.87779533819264,0,-43.33235549926758,39.733821868896484,-36.13528823852539
-0.08450832217931747,0.3965514004230499,9.961462020874023,-0.0056552714687564,-0.0008657387296835611,0.0166016718599848,0.7199749946594238,2019-08-07 13:29:37:998,-41.776392330918874,136.71782872762395,0,-43.33235549926758,39.733821868896484,-36.13528823852539
-0.23777230083942413,0.31752464175224304,9.851303100585938,-0.004323365830810277,-0.004328693453362062,0.02006462599849607,0.7299885749816895,2019-08-07 13:29:38:008,-37.36608322317626,137.54898094265394,0,-43.33235549926758,39.733821868896484,-36.13528823852539
-0.10366632044315338,0.4779728949069977,9.772276878356934,0.0007378757884407334,0.001531691613675204,0.01606890960480635,0.7399866580963135,2019-08-07 13:29:38:018,-33.0317770886114,138.3415837156129,0,-43.33235549926758,39.733821868896484,-36.13528823852539
0.10467690229415894,0.3869723975658417,9.779460906982422,0.0007378757884407334,0.00765845806837602,0.019798245391055496,0.749967098236084,2019-08-07 13:29:38:028,-35.96316822413765,139.12901840142968,0,-43.33235549926758,39.733821868896484,-36.13528823852539
-0.03661332651972771,0.5713680982589722,9.777066230773926,0.006598260920496581,0.002597216124032102,0.01367147893635468,0.7599539756774902,2019-08-07 13:29:38:038,-31.649652503706488,139.87584718067245,0,-43.33235549926758,39.733821868896484,-36.13528823852539
0.11425590515136719,0.46839389204978943,9.78664493560791,-0.0005940299795425521,-0.0005993576020943366,0.012073192170819333,0.7699828147888184,2019-08-07 13:29:38:048,-34.602944359546555,140.62386245112643,0,-43.33235549926758,39.733821868896484,-36.13528823852539
0.21483539044857025,0.7150530815124512,9.499275207519531,0.019650937212665885,0.0031299783792105513,0.01313871668117623,0.7799901962280273,2019-08-07 13:29:38:058,-37.4867326646648,141.31424724161812,0,-43.33235549926758,39.733821868896484,-36.13528823852539
0.34415188431739807,0.5450258851051331,9.73396110534668,0.006331879792907356,0.0012653104860859794,0.005946426236267168,0.7899904251098633,2019-08-07 13:29:38:068,-40.297210615754665,142.02031146650205,0,-43.33235549926758,39.733821868896484,-36.13528823852539
0.1717298924922943,0.46599912643432617,9.504064559936523,-0.0013931734273288073,0.012453318885130711,0.005413663981088718,0.7999837398529053,2019-08-07 13:29:38:078,-43.07755084000144,142.7245459090621,0,-43.33235549926758,39.733821868896484,-36.13528823852539
0.24836188554763794,0.36302489042282104,9.820171356201172,0.004999974154961233,-0.00805802949968553,0.004614520598321043,0.8099870681762695,2019-08-07 13:29:38:088,-45.78249857822959,143.42490449181088,0,-43.33235549926758,39.733821868896484,-36.13528823852539
0.152571901679039,0.41570937633514404,9.686065673828125,-0.0005940299795425521,0.0031299783792105513,0.00674556961903484,0.819983959197998,2019-08-07 13:29:38:098,-48.45055692459434,144.10758927089913,0,-43.33235549926758,39.733821868896484,-36.13528823852539
0.11665065586566925,0.36302489042282104,9.698039054870605,0.0100612155791565,0.002597216124032102,0.011007667660462434,0.8299825191497803,2019-08-07 13:29:38:108,-51.069221189170285,144.7769141133557,0,-43.33235549926758,39.733821868896484,-36.13528823852539
0.09988740086555481,0.5234731435775757,9.877645492553711,-0.0037906035756318283,-0.001132119922291367,0.008610237512159412,0.83998703956604,2019-08-07 13:29:38:118,-53.63561315135815,145.4228333234888,0,-43.33235549926758,39.733821868896484,-36.13528823852539
-0.00787633191794157,0.6264473795890808,9.748329162597656,0.009528453323978052,0.001531691613675204,0.013405098328914105,0.8499836921691895,2019-08-07 13:29:38:128,-48.964686505406576,146.0354904933256,0,-43.33235549926758,39.733821868896484,-36.13528823852539
-0.06535032391548157,0.3390774130821228,9.769882202148438,-0.004056984703221053,-0.005127837096204061,0.016335291252544227,0.8599743843078613,2019-08-07 13:29:38:138,-44.390181047761786,146.67730190961885,0,-42.732601165771484,40.93333435058594,-35.235652923583984
-0.0892978236079216,0.5043151378631592,9.896803855895996,-6.126766340918298e-05,0.0071256958131975705,0.01793357697778227,0.8699865341186523,2019-08-07 13:29:38:148,-39.91672255219024,147.2854479287636,0,-42.732601165771484,40.93333435058594,-35.235652923583984
-0.06774507462978363,0.4061304032802582,9.848908424377441,0.002602543746583887,0.002597216124032102,0.01793357697778227,0.8800020217895508,2019-08-07 13:29:38:158,-35.52773067447474,147.89104906797868,0,-42.732601165771484,40.93333435058594,-35.235652923583984
0.11665065586566925,0.4109198749065399,9.930330276489258,0.0007378757884407334,-0.0008657387296835611,0.022994818922126188,0.8900055885314941,2019-08-07 13:29:38:168,-38.40322943291874,148.48542234888697,0,-42.732601165771484,40.93333435058594,-35.235652923583984
0.054387159645557404,0.3342879116535187,9.832145690917969,0.00020511348449834825,0.001531691613675204,0.02006462599849607,0.8999953269958496,2019-08-07 13:29:38:178,-41.229685361782046,149.0766533086356,0,-42.732601165771484,40.93333435058594,-35.235652923583984
0.18130889534950256,0.5522100925445557,9.777066230773926,0.006598260920496581,0.007392076940786795,0.020863769901412393,0.9099948406219482,2019-08-07 13:29:38:188,-43.987994321353675,149.62676272168414,0,-42.732601165771484,40.93333435058594,-35.235652923583984
0.29865163564682007,0.3342879116535187,9.832145690917969,0.0007378757884407334,0.003662740634389001,0.02406034343248309,0.9199962615966797,2019-08-07 13:29:38:198,-46.675494839428985,150.19486755161176,0,-42.732601165771484,40.93333435058594,-35.235652923583984
0.2962568700313568,0.6096841096878052,9.607038497924805,0.008995691068799602,0.014850748513285082,0.022728438314685614,0.9299991130828857,2019-08-07 13:29:38:208,-49.31500003980136,150.71329272393493,0,-42.732601165771484,40.93333435058594,-35.235652923583984
0.3082306385040283,0.7318163514137268,9.8034086227417,0.010327597226894376,0.0071256958131975705,0.012605954425997783,0.9399938583374023,2019-08-07 13:29:38:218,-51.89668194306501,151.20784769755315,0,-42.732601165771484,40.93333435058594,-35.235652923583984
0.4207838773727417,0.6384211182594299,9.688460350036621,0.004200830512119234,0.004461884017156674,0.01020852479784341,0.9500102996826172,2019-08-07 13:29:38:228,-54.41152024735069,151.70592700251893,0,-42.732601165771484,40.93333435058594,-35.235652923583984
0.1860983967781067,0.6240525841712952,9.647749900817871,0.002602543746583887,0.002064453868853653,0.0048809017259102685,0.9599959850311279,2019-08-07 13:29:38:238,-56.90234619586558,152.19633023548528,0,-42.732601165771484,40.93333435058594,-35.235652923583984
0.18130889534950256,0.4396568834781647,9.736355781555176,0.002602543746583887,0.005527408527513573,0.0022170901899436976,0.969994068145752,2019-08-07 13:29:38:248,-59.346065714485846,152.69923251407738,0,-42.732601165771484,40.93333435058594,-35.235652923583984
0.028044912964105606,0.3917618989944458,9.882434844970703,-0.0032578413204533796,0.008723982578732917,0.003016233572711371,0.9799954891204834,2019-08-07 13:29:38:258,-61.760791667534,153.2016745048264,0,-42.732601165771484,40.93333435058594,-35.235652923583984
0.06875565648078918,0.31034040451049805,9.896803855895996,-0.009917369510183993,0.00019978586194656375,-0.004975200515039691,0.9899940490722656,2019-08-07 13:29:38:268,-64.11772715356236,153.70728736546423,0,-42.732601165771484,40.93333435058594,-35.235652923583984
-0.10606107115745544,0.5091046094894409,9.892014503479004,-0.0037906035756318283,-0.006193361606560959,-0.003909676004682793,1.0000112056732178,2019-08-07 13:29:38:278,-59.24417498784672,154.17634973164033,0,-42.732601165771484,40.93333435058594,-35.235652923583984
-0.11803481727838516,0.4851571321487427,9.889619827270508,0.00020511348449834825,0.00019978586194656375,0.003016233572711371,1.0099866390228271,2019-08-07 13:29:38:288,-54.47307950065407,154.63653746127446,0,-42.732601165771484,40.93333435058594,-35.235652923583984
-0.05816607549786568,0.4181041419506073,9.848908424377441,-0.005921652596345625,0.004728265144745899,0.0011515656795867992,1.0199987888336182,2019-08-07 13:29:38:298,-49.7930435659925,155.09851873419439,0,-42.732601165771484,40.93333435058594,-35.235652923583984
-0.04140282794833183,0.4109198749065399,9.724381446838379,0.00020511348449834825,0.005527408527513573,0.0016843279347652483,1.029994249343872,2019-08-07 13:29:38:308,-45.205163774414075,155.5480394667027,0,-42.732601165771484,40.93333435058594,-35.235652923583984
0.12383490055799484,0.3845776319503784,9.78664493560791,0.0012706381086377639,0.003662740634389001,0.006212807363856391,1.0400090217590332,2019-08-07 13:29:38:318,-47.88862113993602,155.99135722852148,0,-42.732601165771484,40.93333435058594,-35.235652923583984
0.07593990862369537,0.3007614016532898,9.820171356201172,-0.005388890341167176,0.009256744313762716,0.007011950746624065,1.0499937534332275,2019-08-07 13:29:38:328,-50.527177180814824,156.43946644410946,0,-42.732601165771484,40.93333435058594,-35.235652923583984
0.1453876495361328,0.5474206209182739,9.8034086227417,-0.00272507906527493,0.006859314685608345,0.0027498524451221467,1.0599942207336426,2019-08-07 13:29:38:338,-53.10349226825363,156.8482859712712,0,-42.732601165771484,40.93333435058594,-35.235652923583984
0.04480816051363945,0.6336315870285034,9.796224594116211,0.0015370192362269886,-0.007258886116917857,0.007011950746624065,1.0699796676635742,2019-08-07 13:29:38:348,-55.632111091661365,157.23644237967278,0,-42.732601165771484,40.93333435058594,-35.235652923583984
-0.06056082621216774,0.5258678793907166,9.721986770629883,-0.005921652596345625,-0.0005993576020943366,-0.0020450079815210586,1.0799996852874756,2019-08-07 13:29:38:358,-50.92626977655899,157.63312229580134,0,-42.732601165771484,40.93333435058594,-35.235652923583984
-0.012665831483900547,0.47318339347839355,9.77467155456543,-0.0024586979376857053,0.007392076940786795,-0.007639012311080588,1.0899953842163086,2019-08-07 13:29:38:368,-46.3133780915116,158.02641030093258,0,-42.732601165771484,40.93333435058594,-35.235652923583984
-0.0030868323519825935,0.5282626152038574,9.872856140136719,-0.0029914601928641544,0.007392076940786795,-0.008704536821437486,1.1000049114227295,2019-08-07 13:29:38:378,-41.7916234054595,158.40630780215122,0,-42.732601165771484,40.93333435058594,-35.235652923583984
0.06875565648078918,0.5114994049072266,9.777066230773926,-0.005388890341167176,-0.0008657387296835611,-0.011368348097329731,1.1099982261657715,2019-08-07 13:29:38:388,-44.547246815706025,158.78131008012917,0,-42.882537841796875,41.982906341552734,-36.28522491455078
0.09030840545892715,0.47318339347839355,9.801013946533203,-0.004323365830810277,-0.007258886116917857,-0.00950367968405651,1.1200017929077148,2019-08-07 13:29:38:398,-47.241666185701035,159.15283154541623,0,-42.882537841796875,41.982906341552734,-36.28522491455078
-0.022244829684495926,0.4707886278629303,9.741145133972168,-0.0056552714687564,0.002330834996442878,-0.0068398684081642635,1.1299951076507568,2019-08-07 13:29:38:408,-42.70075755021426,159.5176092859355,0,-42.882537841796875,41.982906341552734,-36.28522491455078
0.0352291613817215,0.46120962500572205,9.791434288024902,-0.0013931734273288073,0.008990363706322143,-0.00950367968405651,1.1399955749511719,2019-08-07 13:29:38:418,-45.44766777464959,159.87410277385086,0,-42.882537841796875,41.982906341552734,-36.28522491455078
0.09988740086555481,0.3965514004230499,9.848908424377441,-0.004323365830810277,0.002330834996442878,-0.0009794834711641602,1.1500024795532227,2019-08-07 13:29:38:428,-48.12840263258605,160.23293630885078,0,-42.882537841796875,41.982906341552734,-36.28522491455078
0.13101914525032043,0.48755186796188354,9.880040168762207,0.00020511348449834825,-6.659528596096748e-05,-0.0041760571322720175,1.1599960327148438,2019-08-07 13:29:38:438,-50.75060212272026,160.57166064596976,0,-42.882537841796875,41.982906341552734,-36.28522491455078
0.13820339739322662,0.5043151378631592,9.760302543640137,-0.00032764881944403687,-6.659528596096748e-05,0.0014179468071760237,1.1699953079223633,2019-08-07 13:29:38:448,-53.319327901289554,160.90125450777538,0,-42.882537841796875,41.982906341552734,-36.28522491455078
0.06636090576648712,0.4755781292915344,9.793828964233398,-0.004323365830810277,0.008990363706322143,-0.0031105326219151193,1.1799938678741455,2019-08-07 13:29:38:458,-55.85022433137203,161.23005583932184,0,-42.882537841796875,41.982906341552734,-36.28522491455078
0.04001866281032562,0.4564201235771179,9.738750457763672,-0.005921652596345625,0.003662740634389001,8.60411123386422e-05,1.1899936199188232,2019-08-07 13:29:38:468,-58.33056762550236,161.55511397602072,0,-42.882537841796875,41.982906341552734,-36.28522491455078
0.07593990862369537,0.46839389204978943,9.903987884521484,-0.0005940299795425521,0.0012653104860859794,-0.0041760571322720175,1.200009822845459,2019-08-07 13:29:38:478,-60.75588163354049,161.87019181736306,0,-42.882537841796875,41.982906341552734,-36.28522491455078
0.07115040719509125,0.4779728949069977,9.827356338500977,0.006864642048085805,-0.0005993576020943366,-0.005507962770218141,1.209995985031128,2019-08-07 13:29:38:488,-63.132131603673784,162.17324884340692,0,-42.882537841796875,41.982906341552734,-36.28522491455078
0.054387159645557404,0.3534458875656128,9.765092849731445,-0.0029914601928641544,0.006859314685608345,-0.005507962770218141,1.2199978828430176,2019-08-07 13:29:38:498,-65.466959031772,162.49000576272712,0,-42.882537841796875,41.982906341552734,-36.28522491455078
0.11186115443706512,0.4324726462364197,9.791434288024902,-0.002192316810096481,0.008990363706322143,-0.005507962770218141,1.229994297027588,2019-08-07 13:29:38:508,-67.74957530198493,162.7908557281649,0,-42.882537841796875,41.982906341552734,-36.28522491455078
0.07833465933799744,0.41570937633514404,9.81538200378418,0.00020511348449834825,0.002064453868853653,-0.010036441939234959,1.2399983406066895,2019-08-07 13:29:38:518,-69.98659831687903,163.08641959553557,0,-42.882537841796875,41.982906341552734,-36.28522491455078
0.04720291122794151,0.40134090185165405,9.736355781555176,0.001803400363816213,-0.003529550070594388,-0.002844151494325895,1.2500061988830566,2019-08-07 13:29:38:528,-72.17932747577302,163.37646890796327,0,-42.882537841796875,41.982906341552734,-36.28522491455078
0.06636090576648712,0.3702091574668884,9.796224594116211,-0.0011267922997395827,0.0041955028895674495,-0.003909676004682793,1.2599787712097168,2019-08-07 13:29:38:538,-74.33032777085006,163.66628578477432,0,-42.882537841796875,41.982906341552734,-36.28522491455078
0.0352291613817215,0.4109198749065399,9.781855583190918,-0.0032578413204533796,0.006859314685608345,-0.007372630663342713,1.2699999809265137,2019-08-07 13:29:38:548,-76.44345390548732,163.94668345503837,0,-42.882537841796875,41.982906341552734,-36.28522491455078
0.028044912964105606,0.42768314480781555,9.899198532104492,-0.0011267922997395827,0.003662740634389001,-0.010036441939234959,1.2800037860870361,2019-08-07 13:29:38:558,-78.51339580768443,164.21890556241974,0,-42.882537841796875,41.982906341552734,-36.28522491455078
-0.02463958039879799,0.44684112071990967,9.793828964233398,-0.005122509213577951,-0.004328693453362062,-0.011101966449591856,1.2899887561798096,2019-08-07 13:29:38:568,-73.34358390857243,164.4851535153313,0,-42.882537841796875,41.982906341552734,-36.28522491455078
-0.012665831483900547,0.4755781292915344,9.710013389587402,-0.005921652596345625,0.0041955028895674495,-0.017228732904292672,1.2999842166900635,2019-08-07 13:29:38:578,-68.28056167223696,164.74269396662302,0,-42.882537841796875,41.982906341552734,-36.28522491455078
-0.0030868323519825935,0.5138941407203674,9.73396110534668,0.0028689248741731116,0.007392076940786795,-0.019626163572744344,1.3099889755249023,2019-08-07 13:29:38:588,-63.31946644773283,164.98578713876583,0,-42.882537841796875,41.982906341552734,-36.28522491455078
0.02325541339814663,0.4492358863353729,9.851303100585938,-0.0011267922997395827,0.0031299783792105513,-0.01935978296530377,1.319990634918213,2019-08-07 13:29:38:598,-65.65212979599227,165.2344847041581,0,-42.882537841796875,41.982906341552734,-36.28522491455078
0.04720291122794151,0.4779728949069977,9.875250816345215,-0.005921652596345625,-0.0005993576020943366,-0.02468740551708826,1.329988718032837,2019-08-07 13:29:38:608,-67.93327338269913,165.47769906005075,0,-42.882537841796875,41.982906341552734,-36.28522491455078
-0.0030868323519825935,0.46839389204978943,9.812987327575684,-0.0037906035756318283,-0.005127837096204061,-0.02388826161417194,1.339993953704834,2019-08-07 13:29:38:618,-62.97208760009297,165.71561920734544,0,-42.882537841796875,41.982906341552734,-36.28522491455078
-0.08211357146501541,0.43486738204956055,9.781855583190918,-0.002192316810096481,-0.001132119922291367,-0.023621881006731363,1.349985122680664,2019-08-07 13:29:38:628,-58.1216298629378,165.95162680668358,0,-42.882537841796875,41.982906341552734,-36.28522491455078
-0.06535032391548157,0.3773933947086334,9.784250259399414,-0.006454414851524075,0.002597216124032102,-0.02468740551708826,1.3599739074707031,2019-08-07 13:29:38:638,-53.368307574042916,166.1920365461999,0,-42.732601165771484,41.233211517333984,-34.93577575683594
0.004097416531294584,0.3654196560382843,9.753118515014648,-0.005388890341167176,0.0009989292934781736,-0.02015892478762549,1.369990348815918,2019-08-07 13:29:38:648,-55.90102182763718,166.42831274945374,0,-42.732601165771484,41.233211517333984,-34.93577575683594
0.03043966367840767,0.4109198749065399,9.834540367126465,-0.002192316810096481,-0.004328693453362062,-0.018027875766911696,1.3799352645874023,2019-08-07 13:29:38:657,-58.37703742148347,166.65311835858222,0,-42.732601165771484,41.233211517333984,-34.93577575683594
0.008886916562914848,0.38936713337898254,9.726776123046875,-0.0013931734273288073,0.003929121761978225,-0.0169623522968521,1.3899519443511963,2019-08-07 13:29:38:668,-60.81065957836965,166.87499253380008,0,-42.732601165771484,41.233211517333984,-34.93577575683594
-0.005481582134962082,0.3606301546096802,9.77467155456543,-0.00032764881944403687,0.002597216124032102,-0.015097683883578876,1.3999526500701904,2019-08-07 13:29:38:678,-55.99654744614245,167.0954180265853,0,-42.732601165771484,41.233211517333984,-34.93577575683594
0.020860664546489716,0.36781439185142517,9.781855583190918,-0.005921652596345625,-0.0013985010498805918,-0.012700254255424506,1.409963846206665,2019-08-07 13:29:38:688,-58.47338659985237,167.31377030540537,0,-42.732601165771484,41.233211517333984,-34.93577575683594
0.008886916562914848,0.3510511517524719,9.822566032409668,0.0020697814914054373,0.00019978586194656375,-0.0012458645987533845,1.419964075088501,2019-08-07 13:29:38:698,-60.90299428890461,167.5253959519205,0,-42.732601165771484,41.233211517333984,-34.93577575683594
0.025650164112448692,0.3534458875656128,9.765092849731445,-0.0029914601928641544,-0.004328693453362062,-0.0004467211834764202,1.4299840927124023,2019-08-07 13:29:38:708,-63.27948898983944,167.73511297265674,0,-42.732601165771484,41.233211517333984,-34.93577575683594
-0.027034329250454903,0.3773933947086334,9.75790786743164,0.0007378757884407334,-0.001132119922291367,0.003548996087964146,1.4399633407592773,2019-08-07 13:29:38:718,-58.4164396017786,167.9357003082552,0,-42.732601165771484,41.233211517333984,-34.93577575683594
-0.03182382881641388,0.3606301546096802,9.762697219848633,0.0020697814914054373,0.0052610273999243486,0.0038153772155533703,1.449970006942749,2019-08-07 13:29:38:728,-53.65480220932457,168.13351291914694,0,-42.732601165771484,41.233211517333984,-34.93577575683594
-0.01745533011853695,0.4396568834781647,9.86567211151123,0.00047149462834221814,0.002330834996442878,0.01020852479784341,1.459977388381958,2019-08-07 13:29:38:738,-48.985043357796684,168.31954454833902,0,-42.732601165771484,41.233211517333984,-34.93577575683594
-0.029429078102111816,0.48036763072013855,9.875250816345215,0.004999974154961233,-0.0037959311981836125,0.015269766742187328,1.469973087310791,2019-08-07 13:29:38:748,-44.40662691191305,168.49464984330825,0,-42.732601165771484,41.233211517333984,-34.93577575683594
-0.04619232565164566,0.5043151378631592,9.805803298950195,-6.126766340918298e-05,-0.0016648821774698163,0.012605954425997783,1.4799838066101074,2019-08-07 13:29:38:758,-39.9229565821329,168.66590841363944,0,-42.28278350830078,42.28278350830078,-35.38559341430664
-0.0629555732011795,0.4228936433792114,9.772276878356934,-6.126766340918298e-05,0.001531691613675204,0.01367147893635468,1.4899694919586182,2019-08-07 13:29:38:768,-35.5327384490737,168.84306621354511,0,-42.28278350830078,42.28278350830078,-35.38559341430664
-0.09648206830024719,0.4372621476650238,9.820171356201172,-0.004056984703221053,0.0009989292934781736,0.013405098328914105,1.4999659061431885,2019-08-07 13:29:38:778,-31.23390250470301,169.0174916338434,0,-42.28278350830078,42.28278350830078,-35.38559341430664
-0.04858707636594772,0.3582353889942169,9.798619270324707,-0.003524222448042604,-0.006992504989328633,0.01793357697778227,1.5099763870239258,2019-08-07 13:29:38:788,-27.010976106193354,169.1972469472304,0,-42.28278350830078,42.28278350830078,-35.38559341430664
-0.15156131982803345,0.3702091574668884,9.875250816345215,0.001803400363816213,0.0009989292934781736,0.023793962825042515,1.520406723022461,2019-08-07 13:29:38:798,-22.888927283148,169.36930718158237,0,-42.28278350830078,42.28278350830078,-35.38559341430664
-0.015060581266880035,0.25047165155410767,9.827356338500977,-0.007253558754440398,-0.00033297644199582136,0.02938796598426758,1.5300729274749756,2019-08-07 13:29:38:808,-18.832724145155016,169.556658109632,0,-42.28278350830078,42.28278350830078,-35.38559341430664
-0.07732407003641129,0.40852513909339905,9.712408065795898,0.003668068256940785,0.005793789655102798,0.023261201610161368,1.5415313243865967,2019-08-07 13:29:38:819,-14.868920178441233,169.7149936361377,0,-42.28278350830078,42.28278350830078,-35.38559341430664
0.025650164112448692,0.5114994049072266,9.762697219848633,0.009794834971715925,-0.0037959311981836125,0.03924406718492024,1.551469326019287,2019-08-07 13:29:38:829,-18.166412848049664,169.85524468207936,0,-42.28278350830078,42.28278350830078,-35.38559341430664
0.008886916562914848,0.5378416180610657,9.75790786743164,0.004467211899782784,-0.00805802949968553,0.030187109887183903,1.5599727630615234,2019-08-07 13:29:38:838,-21.39819351844138,169.99290949663904,0,-42.28278350830078,42.28278350830078,-35.38559341430664
-0.06535032391548157,0.5282626152038574,9.712408065795898,0.0012706381086377639,-0.0013985010498805918,0.025658631238315736,1.569951057434082,2019-08-07 13:29:38:848,-17.377156318350302,170.13007383771352,0,-42.28278350830078,42.28278350830078,-35.38559341430664
-0.0030868323519825935,0.5498153567314148,9.85609245300293,0.004200830512119234,0.0009989292934781736,0.025125867942839983,1.5799765586853027,2019-08-07 13:29:38:858,-13.430534409393397,170.26124965477644,0,-42.28278350830078,42.28278350830078,-35.38559341430664
-0.03900807723402977,0.5114994049072266,9.887224197387695,-6.126766340918298e-05,-0.006459742734150184,0.01367147893635468,1.589989423751831,2019-08-07 13:29:38:868,-9.562812876781841,170.39682983665827,0,-42.28278350830078,42.28278350830078,-35.38559341430664
-0.03900807723402977,0.4492358863353729,9.925540924072266,0.00047149462834221814,-0.003263168943005164,0.004348139470731819,1.6000208854675293,2019-08-07 13:29:38:878,-5.774222095766669,170.53679821408568,0,-42.28278350830078,42.28278350830078,-35.38559341430664
0.04480816051363945,0.4516306221485138,9.851303100585938,-0.00672079649926195,-0.004595074841025611,-0.004442438259861242,1.609938383102417,2019-08-07 13:29:38:887,-9.25096670831836,170.67730736721643,0,-43.78217315673828,40.78339385986328,-34.78583526611328
0.1453876495361328,0.5114994049072266,9.810592651367188,0.0012706381086377639,0.0004661670057904337,-0.014564921628400425,1.6199469566345215,2019-08-07 13:29:38:897,-12.649228747637629,170.80335606291928,0,-43.78217315673828,40.78339385986328,-34.78583526611328
0.20286163687705994,0.4971308708190918,9.812987327575684,0.0055327364101396825,-0.006726123861739408,-0.030015028068872754,1.6299633979797363,2019-08-07 13:29:38:908,-15.968775377409997,170.92617413760775,0,-43.78217315673828,40.78339385986328,-34.78583526611328
0.24117763340473175,0.5953156352043152,9.875250816345215,-0.0011267922997395827,-0.008857173402601856,-0.03401074550285977,1.6399807929992676,2019-08-07 13:29:38:918,-19.21643744551314,171.0392880341299,0,-43.78217315673828,40.78339385986328,-34.78583526611328
0.19567739963531494,0.5474206209182739,9.822566032409668,-0.0005940299795425521,-0.009389935657780304,-0.04306770488119071,1.6499271392822266,2019-08-07 13:29:38:927,-22.40403954317634,171.15503709830716,0,-43.78217315673828,40.78339385986328,-34.78583526611328
0.20286163687705994,0.597710371017456,9.77467155456543,0.002336162618994662,-0.003263168943005164,-0.03933836805464427,1.6599574089050293,2019-08-07 13:29:38:938,-25.530342244973422,171.26063630209026,0,-43.78217315673828,40.78339385986328,-34.78583526611328
0.22680914402008057,0.5809471011161804,9.765092849731445,0.001803400363816213,-0.0016648821774698163,-0.03134693318667023,1.669952154159546,2019-08-07 13:29:38:948,-28.592190213120148,171.3663186916624,0,-43.78217315673828,40.78339385986328,-34.78583526611328
0.2627303898334503,0.49234136939048767,9.834540367126465,-0.002192316810096481,-0.0019312633050590406,-0.02308911771125561,1.6799607276916504,2019-08-07 13:29:38:958,-31.588655147112725,171.4829048464688,0,-43.78217315673828,40.78339385986328,-34.78583526611328
0.2818883955478668,0.4564201235771179,9.796224594116211,-0.0011267922997395827,0.002064453868853653,-0.009770061331794384,1.689993143081665,2019-08-07 13:29:38:968,-34.52508012729074,171.60053022743577,0,-43.78217315673828,40.78339385986328,-34.78583526611328
0.23638813197612762,0.4636043906211853,9.784250259399414,0.002602543746583887,0.004728265144745899,0.0022170901899436976,1.699965476989746,2019-08-07 13:29:38:978,-37.40954608264438,171.7128063229676,0,-43.78217315673828,40.78339385986328,-34.78583526611328
0.18130889534950256,0.45402538776397705,9.8034086227417,-0.00032764881944403687,0.0052610273999243486,0.012605954425997783,1.7099671363830566,2019-08-07 13:29:38:988,-40.243119019556175,171.82570129316423,0,-43.78217315673828,40.78339385986328,-34.78583526611328
0.08312415331602097,0.3342879116535187,9.77467155456543,-0.004323365830810277,0.004728265144745899,0.011806811563378757,1.7199633121490479,2019-08-07 13:29:38:998,-43.03116586641984,171.9524395442512,0,-43.78217315673828,40.78339385986328,-34.78583526611328
0.01367641519755125,0.39415663480758667,9.829751014709473,-0.0011267922997395827,0.008191220323554469,0.017400815762901124,1.7299506664276123,2019-08-07 13:29:39:008,-45.773541747657724,172.06809794327947,0,-42.43272399902344,41.233211517333984,-35.53553009033203
-0.050981827080249786,0.35584065318107605,9.779460906982422,-0.0019259356825072562,0.0052610273999243486,0.010474905405283983,1.7399661540985107,2019-08-07 13:29:39:018,-41.26700332689277,172.1861415637836,0,-42.43272399902344,41.233211517333984,-35.53553009033203
-0.07492932677268982,0.36302489042282104,9.820171356201172,-0.00032764881944403687,0.004994646272335123,0.009143000287486512,1.7499773502349854,2019-08-07 13:29:39:028,-36.85321421928327,172.30026082688832,0,-42.43272399902344,41.233211517333984,-35.53553009033203
-0.07732407003641129,0.4228936433792114,9.805803298950195,-0.0008604111071317767,0.005793789655102798,-0.0004467211834764202,1.759979248046875,2019-08-07 13:29:39:038,-32.528439735094715,172.40534966932805,0,-42.43272399902344,41.233211517333984,-35.53553009033203
-0.09887681901454926,0.4444463849067688,9.78664493560791,-0.00032764881944403687,0.002330834996442878,-0.004442438259861242,1.769970417022705,2019-08-07 13:29:39:048,-28.290755611211946,172.50542211315363,0,-42.43272399902344,41.233211517333984,-35.53553009033203
-0.07253457605838776,0.4492358863353729,9.78664493560791,-0.005921652596345625,0.002064453868853653,-0.0148313032761383,1.7799665927886963,2019-08-07 13:29:39:058,-24.134592141974828,172.60607338977215,0,-42.43272399902344,41.233211517333984,-35.53553009033203
0.011281665414571762,0.4372621476650238,9.777066230773926,-0.0032578413204533796,-0.003263168943005164,-0.021224451378576994,1.7899792194366455,2019-08-07 13:29:39:068,-27.24874345996693,172.70456856723624,0,-42.43272399902344,41.233211517333984,-35.53553009033203
0.07354515790939331,0.4396568834781647,9.784250259399414,-0.004056984703221053,-0.0021976444326482656,-0.023621881006731363,1.7999413013458252,2019-08-07 13:29:39:077,-30.29392596749151,172.80128926038537,0,-42.43272399902344,41.233211517333984,-35.53553009033203
0.08312415331602097,0.4851571321487427,9.762697219848633,-0.0037906035756318283,0.004994646272335123,-0.025486549420004584,1.8099472522735596,2019-08-07 13:29:39:087,-33.28109698061987,172.8904937064114,0,-42.43272399902344,41.233211517333984,-35.53553009033203
0.10946640372276306,0.48036763072013855,9.827356338500977,0.0007378757884407334,0.0009989292934781736,-0.02415464222161251,1.8199396133422852,2019-08-07 13:29:39:097,-36.20327174455953,172.976301273243,0,-42.43272399902344,41.233211517333984,-35.53553009033203
0.08791365474462509,0.4564201235771179,9.805803298950195,-0.007519939882029623,-0.0037959311981836125,-0.0169623522968521,1.8299391269683838,2019-08-07 13:29:39:107,-39.06680160426478,173.0676982535798,0,-42.43272399902344,41.233211517333984,-35.53553009033203
0.09988740086555481,0.5091046094894409,9.777066230773926,-0.002192316810096481,-0.003263168943005164,-0.014032159373221978,1.8399403095245361,2019-08-07 13:29:39:117,-41.8719262508155,173.14795993738213,0,-42.43272399902344,41.233211517333984,-35.53553009033203
0.2435723841190338,0.5498153567314148,9.762697219848633,-0.004056984703221053,0.0009989292934781736,-0.007905393438669812,1.8499400615692139,2019-08-07 13:29:39:127,-44.60646475645861,173.222811125774,0,-42.43272399902344,41.233211517333984,-35.53553009033203
0.205256387591362,0.5402363538742065,9.710013389587402,0.003135306001762336,0.005527408527513573,-0.0033769137495043436,1.8599462509155273,2019-08-07 13:29:39:137,-47.29322153510662,173.292903660444,0,-43.482295989990234,41.68302917480469,-35.38559341430664
-0.03900807723402977,0.48755186796188354,9.769882202148438,-0.005388890341167176,-0.0008657387296835611,-0.00018034003963255039,1.8699424266815186,2019-08-07 13:29:39:147,-42.751446436635185,173.37293242124755,0,-43.482295989990234,41.68302917480469,-35.38559341430664
-0.02463958039879799,0.4755781292915344,9.824960708618164,-0.0037906035756318283,0.003929121761978225,0.0027498524451221467,1.8799419403076172,2019-08-07 13:29:39:157,-38.301497381654755,173.45217719901595,0,-43.482295989990234,41.68302917480469,-35.38559341430664
-0.07253457605838776,0.4061304032802582,9.789039611816406,0.00047149462834221814,0.0031299783792105513,0.006212807363856391,1.8899457454681396,2019-08-07 13:29:39:167,-33.94571640209357,173.53535399492378,0,-43.482295989990234,41.68302917480469,-35.38559341430664
-0.09169257432222366,0.3965514004230499,9.77467155456543,-0.0037906035756318283,0.003662740634389001,0.007011950746624065,1.8999412059783936,2019-08-07 13:29:39:177,-29.67960685886883,173.620310875319,0,-43.482295989990234,41.68302917480469,-35.38559341430664
-0.055771324783563614,0.3606301546096802,9.793828964233398,-0.0005940299795425521,0.0009989292934781736,0.0022170901899436976,1.909947156906128,2019-08-07 13:29:39:187,-25.493101341504993,173.70606234557948,0,-43.482295989990234,41.68302917480469,-35.38559341430664
-0.06535032391548157,0.34865638613700867,9.729170799255371,-0.002192316810096481,0.0004661670057904337,-0.00257777036673667,1.9199409484863281,2019-08-07 13:29:39:197,-21.391197842757908,173.79212363728305,0,-43.482295989990234,41.68302917480469,-35.38559341430664
-0.012665831483900547,0.4228936433792114,9.858488082885742,-0.0024586979376857053,0.0009989292934781736,-0.0020450079815210586,1.9299399852752686,2019-08-07 13:29:39:207,-17.365406959707514,173.86853605135377,0,-43.482295989990234,41.68302917480469,-35.38559341430664
-0.000692082685418427,0.4228936433792114,9.805803298950195,-0.0019259356825072562,-0.0016648821774698163,-0.010569204194413408,1.9399423599243164,2019-08-07 13:29:39:217,-13.417244646894243,173.9428578450133,0,-43.482295989990234,41.68302917480469,-35.38559341430664
0.01607116498053074,0.3917618989944458,9.796224594116211,-0.00032764881944403687,0.0041955028895674495,-0.008171774566259036,1.949936866760254,2019-08-07 13:29:39:227,-16.74937430258069,174.01838253105794,0,-43.482295989990234,41.68302917480469,-35.38559341430664
0.04480816051363945,0.4372621476650238,9.750723838806152,-0.00272507906527493,0.0007325481658889489,-0.008438155693848261,1.9599437713623047,2019-08-07 13:29:39:237,-20.009532559009187,174.0881929506551,0,-43.482295989990234,41.68302917480469,-35.38559341430664
0.04001866281032562,0.44684112071990967,9.824960708618164,-0.0016595545549180318,0.002597216124032102,-0.008438155693848261,1.9699387550354004,2019-08-07 13:29:39:247,-23.20613203485216,174.15527988715027,0,-43.482295989990234,41.68302917480469,-35.38559341430664
0.01607116498053074,0.4444463849067688,9.772276878356934,-0.0016595545549180318,0.0009989292934781736,-0.008171774566259036,1.979943037033081,2019-08-07 13:29:39:257,-26.3406859983978,174.22102579514498,0,-43.18241882324219,41.982906341552734,-34.78583526611328
0.06396616250276566,0.4133146405220032,9.810592651367188,0.0007378757884407334,-0.0005993576020943366,-0.0041760571322720175,1.9899425506591797,2019-08-07 13:29:39:267,-29.406064364245495,174.28794274826507,0,-43.18241882324219,41.982906341552734,-34.78583526611328
0.049597661942243576,0.4372621476650238,9.760302543640137,-0.00032764881944403687,0.0007325481658889489,-0.0031105326219151193,1.9999480247497559,2019-08-07 13:29:39:278,-32.412531626598685,174.35106518421597,0,-43.18241882324219,41.982906341552734,-34.78583526611328
0.04720291122794151,0.48755186796188354,9.765092849731445,0.002602543746583887,0.0007325481658889489,-0.003909676004682793,2.0099501609802246,2019-08-07 13:29:39:288,-35.35915327552128,174.40541640299162,0,-43.18241882324219,41.982906341552734,-34.78583526611328
0.054387159645557404,0.52107834815979,9.738750457763672,-0.0016595545549180318,0.005527408527513573,-0.009770061331794384,2.0199391841888428,2019-08-07 13:29:39:297,-38.24867100615911,174.45698432042408,0,-43.18241882324219,41.982906341552734,-34.78583526611328
0.06636090576648712,0.4779728949069977,9.853697776794434,-0.0013931734273288073,0.0004661670057904337,-0.006307106152985815,2.0299489498138428,2019-08-07 13:29:39:308,-41.07624240491651,174.5130863188406,0,-43.18241882324219,41.982906341552734,-34.78583526611328
0.05917666107416153,0.4779728949069977,9.822566032409668,-0.00272507906527493,-6.659528596096748e-05,-0.007639012311080588,2.039933443069458,2019-08-07 13:29:39:317,-43.847776665290105,174.56863524738495,0,-43.18241882324219,41.982906341552734,-34.78583526611328
-0.21861431002616882,0.4827623665332794,9.839329719543457,-0.004589746958399502,-0.004328693453362062,-0.010835585842151283,2.0501160621643066,2019-08-07 13:29:39:328,-39.39380242959829,174.6237079516842,0,-43.18241882324219,41.982906341552734,-34.78583526611328
-0.005481582134962082,0.42049887776374817,9.81538200378418,-0.00672079649926195,-0.001132119922291367,-0.005774343897807364,2.059957504272461,2019-08-07 13:29:39:338,-35.00594073422796,174.6858857281433,0,-43.18241882324219,41.982906341552734,-34.78583526611328
0.1334138959646225,0.4516306221485138,9.726776123046875,0.00047149462834221814,0.00019978586194656375,-0.010569204194413408,2.070114850997925,2019-08-07 13:29:39:348,-37.890219302436826,174.7387304974106,0,-43.18241882324219,41.982906341552734,-34.78583526611328
0.05678191035985947,0.45402538776397705,9.81538200378418,0.002602543746583887,0.0004661670057904337,-0.011101966449591856,2.0799362659454346,2019-08-07 13:29:39:357,-40.72604295498604,174.78955235202642,0,-43.18241882324219,41.982906341552734,-34.78583526611328
0.13101914525032043,0.4851571321487427,9.724381446838379,-0.0016595545549180318,-0.00033297644199582136,-0.011901110352508182,2.089932441711426,2019-08-07 13:29:39:367,-43.49589691397526,174.83756950877455,0,-43.18241882324219,41.982906341552734,-34.78583526611328
0.21483539044857025,0.5258678793907166,9.714802742004395,-0.0005940299795425521,0.0052610273999243486,-0.011901110352508182,2.099897623062134,2019-08-07 13:29:39:377,-46.20358583760239,174.8791819098913,0,-43.18241882324219,41.982906341552734,-34.78583526611328
0.15017715096473694,0.4636043906211853,9.772276878356934,0.004200830512119234,0.005793789655102798,-0.010569204194413408,2.1099517345428467,2019-08-07 13:29:39:388,-48.86517625998911,174.92490435227614,0,-44.08205032348633,41.08327102661133,-34.78583526611328
0.1334138959646225,0.4324726462364197,9.801013946533203,-6.126766340918298e-05,-0.0013985010498805918,-0.0068398684081642635,2.119936943054199,2019-08-07 13:29:39:397,-51.47149110856717,174.97590952925768,0,-44.08205032348633,41.08327102661133,-34.78583526611328
0.04720291122794151,0.44684112071990967,9.750723838806152,0.003668068256940785,0.003929121761978225,-0.0009794834711641602,2.1299474239349365,2019-08-07 13:29:39:407,-54.0387225014627,175.02185302800908,0,-44.08205032348633,41.08327102661133,-34.78583526611328
0.042413413524627686,0.4228936433792114,9.841724395751953,-0.0019259356825072562,0.0052610273999243486,-0.00950367968405651,2.139939069747925,2019-08-07 13:29:39:417,-56.55596129214023,175.0732873643652,0,-44.08205032348633,41.08327102661133,-34.78583526611328
0.03762391209602356,0.40852513909339905,9.793828964233398,0.002336162618994662,0.0031299783792105513,0.0016843279347652483,2.1499483585357666,2019-08-07 13:29:39:428,-59.02219905687322,175.12273733021726,0,-44.08205032348633,41.08327102661133,-34.78583526611328
0.03043966367840767,0.4396568834781647,9.8034086227417,0.0010042569160299579,0.0052610273999243486,0.001950709062354473,2.1599385738372803,2019-08-07 13:29:39:437,-61.44114817919009,175.1683623832277,0,-44.08205032348633,41.08327102661133,-34.78583526611328
-0.02463958039879799,0.4636043906211853,9.743539810180664,0.005266355282550457,0.0028635972516213265,0.011806811563378757,2.169942855834961,2019-08-07 13:29:39:447,-56.616831608990445,175.20755444828643,0,-44.08205032348633,41.08327102661133,-34.78583526611328
-0.07732407003641129,0.43486738204956055,9.726776123046875,0.0015370192362269886,0.0028635972516213265,0.005946426236267168,2.180114984512329,2019-08-07 13:29:39:458,-51.89523994879964,175.2513276541927,0,-44.08205032348633,41.08327102661133,-34.78583526611328
-0.04858707636594772,0.4396568834781647,9.810592651367188,0.002336162618994662,0.006592933558019122,0.005680045108677942,2.1899359226226807,2019-08-07 13:29:39:467,-47.26664589985041,175.29369353116022,0,-44.08205032348633,41.08327102661133,-34.78583526611328
-0.01745533011853695,0.45402538776397705,9.827356338500977,-6.126766340918298e-05,-6.659528596096748e-05,0.008876618639748637,2.199960470199585,2019-08-07 13:29:39:478,-42.7233108676742,175.33495028750113,0,-44.08205032348633,41.08327102661133,-34.78583526611328
-0.04140282794833183,0.44205164909362793,9.8034086227417,0.0015370192362269886,-0.0019312633050590406,0.005680045108677942,2.209960460662842,2019-08-07 13:29:39:488,-38.272599776966715,175.37575202708777,0,-44.08205032348633,41.08327102661133,-34.78583526611328
-0.022244829684495926,0.5067098736763,9.765092849731445,0.004200830512119234,-0.0005993576020943366,0.004081758343142595,2.2199466228485107,2019-08-07 13:29:39:497,-33.90942209376256,175.4064733050452,0,-44.08205032348633,41.08327102661133,-34.78583526611328
-0.0030868323519825935,0.4636043906211853,9.789039611816406,-0.002192316810096481,0.002064453868853653,-0.0020450079815210586,2.2300167083740234,2019-08-07 13:29:39:508,-29.632762312085596,175.4453539366873,0,-42.28278350830078,41.38315200805664,-36.28522491455078
0.03043966367840767,0.5162888765335083,9.77467155456543,-0.004323365830810277,0.003929121761978225,-0.0068398684081642635,2.23994517326355,2019-08-07 13:29:39:517,-32.638728954025844,175.47838707456395,0,-42.28278350830078,41.38315200805664,-36.28522491455078
0.06636090576648712,0.5186836123466492,9.798619270324707,0.00047149462834221814,-0.006726123861739408,-0.01296663486286508,2.249945878982544,2019-08-07 13:29:39:527,-35.57441683277973,175.50795282637105,0,-42.28278350830078,41.38315200805664,-36.28522491455078
0.10228215157985687,0.5186836123466492,9.743539810180664,-6.126766340918298e-05,0.0017980727412644285,-0.022023593200898715,2.2599611282348633,2019-08-07 13:29:39:538,-38.45191092136369,175.536884546523,0,-42.28278350830078,41.38315200805664,-36.28522491455078
0.15017715096473694,0.48755186796188354,9.796224594116211,0.0012706381086377639,0.0012653104860859794,-0.022023593200898715,2.2699358463287354,2019-08-07 13:29:39:547,-41.26601574656591,175.56845072657205,0,-42.28278350830078,41.38315200805664,-36.28522491455078
0.049597661942243576,0.559394359588623,9.793828964233398,0.003668068256940785,0.00019978586194656375,-0.02788397904815896,2.279946804046631,2019-08-07 13:29:39:557,-44.035004666787685,175.58963958818597,0,-42.28278350830078,41.38315200805664,-36.28522491455078
0.2651251256465912,0.4252883791923523,9.868066787719727,-0.004056984703221053,-0.0021976444326482656,-0.03427712611030034,2.28995943069458,2019-08-07 13:29:39:568,-46.722289157500015,175.63077218238732,0,-42.28278350830078,41.38315200805664,-36.28522491455078
0.107071653008461,0.5354468822479248,9.810592651367188,-0.004323365830810277,-0.004328693453362062,-0.030547791364348504,2.299957513809204,2019-08-07 13:29:39:578,-49.37290739347595,175.65810353719576,0,-42.28278350830078,41.38315200805664,-36.28522491455078
0.46388936042785645,0.5138941407203674,9.678881645202637,-0.004056984703221053,-0.0008657387296835611,-0.04093665586047691,2.3099606037139893,2019-08-07 13:29:39:588,-51.93008354657165,175.68643556794618,0,-42.28278350830078,41.38315200805664,-36.28522491455078
0.3680993616580963,0.43486738204956055,9.657328605651855,0.00047149462834221814,0.0004661670057904337,-0.052657423393808196,2.3199644088745117,2019-08-07 13:29:39:598,-54.448087068417905,175.7208765193473,0,-42.28278350830078,41.38315200805664,-36.28522491455078
0.3297833800315857,0.5330521464347839,9.77467155456543,0.0028689248741731116,-0.008857173402601856,-0.05745228681130613,2.3299264907836914,2019-08-07 13:29:39:607,-56.9155240070839,175.74242465323647,0,-42.28278350830078,41.38315200805664,-36.28522491455078
0.2579408884048462,0.4779728949069977,9.681276321411133,0.0028689248741731116,-0.005127837096204061,-0.05079275706112957,2.339953660964966,2019-08-07 13:29:39:618,-59.343802709597,175.76943195242163,0,-42.28278350830078,41.38315200805664,-36.28522491455078
0.1789141446352005,0.34386688470840454,9.70522403717041,-6.126766340918298e-05,0.0004661670057904337,-0.05612038169350867,2.349943161010742,2019-08-07 13:29:39:627,-61.73606576740217,175.81349359168166,0,-42.28278350830078,41.38315200805664,-36.28522491455078
0.08551890403032303,0.4324726462364197,9.683670997619629,0.002336162618994662,0.0041955028895674495,-0.05079275706112957,2.35994815826416,2019-08-07 13:29:39:638,-64.09358179630253,175.84476871732068,0,-43.18241882324219,41.68302917480469,-35.985347747802734
0.1334138959646225,0.33668264746665955,9.748329162597656,-0.008319083264797297,0.0009989292934781736,-0.03987112926952541,2.369938850402832,2019-08-07 13:29:39:647,-66.39658871817873,175.89297884627885,0,-43.18241882324219,41.68302917480469,-35.985347747802734
0.09749265760183334,0.32949841022491455,9.75790786743164,-0.005921652596345625,-0.0037959311981836125,-0.030547791364348504,2.3799679279327393,2019-08-07 13:29:39:658,-68.65507070985122,175.9397741344304,0,-43.18241882324219,41.68302917480469,-35.985347747802734
-0.012665831483900547,0.43486738204956055,9.755513191223145,-0.0011267922997395827,0.005793789655102798,-0.019093400277268593,2.3899381160736084,2019-08-07 13:29:39:667,-63.68670057284149,175.9705622572827,0,-43.18241882324219,41.68302917480469,-35.985347747802734
-0.03661332651972771,0.4133146405220032,9.808197975158691,-0.005122509213577951,0.0033963595067997765,-0.008171774566259036,2.3999440670013428,2019-08-07 13:29:39:677,-58.81915235148818,176.0057690049601,0,-43.18241882324219,41.68302917480469,-35.985347747802734
-0.12282431870698929,0.4181041419506073,9.848908424377441,-0.0008604111071317767,-0.0019312633050590406,0.00035242226430983473,2.409949541091919,2019-08-07 13:29:39:688,-54.05597411667876,176.03751999144947,0,-43.18241882324219,41.68302917480469,-35.985347747802734
-0.180298313498497,0.4252883791923523,9.851303100585938,0.0012706381086377639,0.0041955028895674495,0.01420424223183043,2.419931411743164,2019-08-07 13:29:39:697,-49.398176311153776,176.06661805899756,0,-43.18241882324219,41.68302917480469,-35.985347747802734
-0.21143005788326263,0.4324726462364197,9.899198532104492,-0.0032578413204533796,0.0009989292934781736,0.01020852479784341,2.429952621459961,2019-08-07 13:29:39:708,-44.835245961052,176.09708831392427,0,-43.18241882324219,41.68302917480469,-35.985347747802734
-0.22340381145477295,0.4564201235771179,9.784250259399414,0.0034016871293515603,0.0041955028895674495,0.017400815762901124,2.4399423599243164,2019-08-07 13:29:39:717,-40.36705454171577,176.11982200079945,0,-43.18241882324219,41.68302917480469,-35.985347747802734
-0.18987730145454407,0.4588148891925812,9.84411907196045,-0.00032764881944403687,0.006592933558019122,0.020863769901412393,2.449946641921997,2019-08-07 13:29:39:727,-35.985517096514556,176.1442393814285,0,-43.18241882324219,41.68302917480469,-35.985347747802734
-0.21621955931186676,0.49952563643455505,9.74593448638916,-0.00032764881944403687,0.00019978586194656375,0.01606890960480635,2.4599409103393555,2019-08-07 13:29:39:737,-31.691337543118433,176.16285617319062,0,-43.18241882324219,41.68302917480469,-35.985347747802734
-0.2066405564546585,0.49234136939048767,9.791434288024902,0.006331879792907356,0.006326551910281247,0.011540429915640882,2.469942569732666,2019-08-07 13:29:39:747,-27.485243794182214,176.17847168672188,0,-43.18241882324219,41.68302917480469,-35.985347747802734
-0.16592980921268463,0.49952563643455505,9.822566032409668,-6.126766340918298e-05,0.004728265144745899,0.0075447130018025145,2.4799485206604004,2019-08-07 13:29:39:758,-23.357551197214015,176.1967114096214,0,-42.882537841796875,41.38315200805664,-35.38559341430664
0.03283441439270973,0.5019204020500183,9.640565872192383,0.008196547686031928,0.009256744313762716,0.006479188491445616,2.4899418354034424,2019-08-07 13:29:39:767,-26.491691535252798,176.20857149147162,0,-42.882537841796875,41.38315200805664,-35.38559341430664
0.061571408063173294,0.4707886278629303,9.767487525939941,-6.126766340918298e-05,0.0033963595067997765,0.003016233572711371,2.4999513626098633,2019-08-07 13:29:39:778,-29.55654314887373,176.22924457832158,0,-42.882537841796875,41.38315200805664,-35.38559341430664
0.10946640372276306,0.5306573510169983,9.642960548400879,0.008995691068799602,0.002597216124032102,0.005680045108677942,2.5099449157714844,2019-08-07 13:29:39:787,-32.55386186157644,176.23661505920975,0,-42.882537841796875,41.38315200805664,-35.38559341430664
0.15736140310764313,0.5474206209182739,9.834540367126465,-6.126766340918298e-05,-0.002996787815415939,0.005680045108677942,2.5199310779571533,2019-08-07 13:29:39:797,-35.48277015528794,176.2481976972886,0,-42.882537841796875,41.38315200805664,-35.38559341430664
0.24596713483333588,0.4827623665332794,9.736355781555176,0.0015370192362269886,0.001531691613675204,0.0008851845519975746,2.529942750930786,2019-08-07 13:29:39:807,-38.34503297439845,176.265597717736,0,-42.882537841796875,41.38315200805664,-35.38559341430664
0.054387159645557404,0.4971308708190918,9.812987327575684,-0.0013931734273288073,-0.004062312325772837,-0.0004467211834764202,2.5399441719055176,2019-08-07 13:29:39:817,-41.16949999026498,176.28306506714287,0,-42.882537841796875,41.38315200805664,-35.38559341430664
0.1262296438217163,0.46120962500572205,9.880040168762207,-0.006454414851524075,-0.002996787815415939,0.0048809017259102685,2.549948215484619,2019-08-07 13:29:39:828,-43.92978693567427,176.30757575680536,0,-42.882537841796875,41.38315200805664,-35.38559341430664
-0.04140282794833183,0.4324726462364197,9.805803298950195,-0.0024586979376857053,-0.0019312633050590406,-0.0033769137495043436,2.5599441528320312,2019-08-07 13:29:39:837,-39.454945581279965,176.33229779799157,0,-42.882537841796875,41.38315200805664,-35.38559341430664
-0.005481582134962082,0.41570937633514404,9.944698333740234,-0.004323365830810277,-0.0005993576020943366,-0.012167492000246055,2.569946050643921,2019-08-07 13:29:39:847,-35.066141703339355,176.36020604908907,0,-42.882537841796875,41.38315200805664,-35.38559341430664
-0.04858707636594772,0.4324726462364197,9.93511962890625,-0.0024586979376857053,0.001531691613675204,-0.006573487280575038,2.579942226409912,2019-08-07 13:29:39:857,-30.77128256642425,176.38453207874693,0,-42.882537841796875,41.38315200805664,-35.38559341430664
-0.10127156972885132,0.38218289613723755,9.875250816345215,-0.0061880337239348495,-0.0048614559686148365,-0.005241581642628916,2.5899457931518555,2019-08-07 13:29:39:867,-26.564877294276734,176.41599119653026,0,-42.882537841796875,41.38315200805664,-35.38559341430664
0.2387828826904297,0.4228936433792114,9.875250816345215,-0.006454414851524075,0.002064453868853653,-0.007905393438669812,2.5999438762664795,2019-08-07 13:29:39:877,-29.607035952539118,176.4422525735086,0,-42.882537841796875,41.38315200805664,-35.38559341430664
0.18849314749240875,0.46599912643432617,9.714802742004395,0.003668068256940785,0.007924839195965244,-0.010302823586972834,2.6099507808685303,2019-08-07 13:29:39:888,-32.59711705549441,176.4564213686319,0,-44.981685638427734,41.982906341552734,-36.28522491455078
0.18370364606380463,0.4181041419506073,9.827356338500977,-0.00272507906527493,-0.0027304066878267143,-0.011901110352508182,2.619941473007202,2019-08-07 13:29:39:897,-35.52222481420698,176.48009813545156,0,-44.981685638427734,41.982906341552734,-36.28522491455078
0.02325541339814663,0.52107834815979,9.78664493560791,0.0010042569160299579,-6.659528596096748e-05,-0.010569204194413408,2.629929304122925,2019-08-07 13:29:39:907,-38.40902000536727,176.4889776055558,0,-44.981685638427734,41.982906341552734,-36.28522491455078
0.09270315617322922,0.4492358863353729,9.870461463928223,-0.006987177626851173,-0.0037959311981836125,-0.013765778765781403,2.639944553375244,2019-08-07 13:29:39:917,-41.22794284732075,176.51100905483793,0,-44.981685638427734,41.982906341552734,-36.28522491455078
0.06875565648078918,0.5138941407203674,9.765092849731445,-0.005122509213577951,-0.0005993576020943366,-0.015630446138757324,2.649939775466919,2019-08-07 13:29:39:927,-43.994979396858454,176.52341483214505,0,-44.981685638427734,41.982906341552734,-36.28522491455078
0.08551890403032303,0.4492358863353729,9.896803855895996,-0.0024586979376857053,0.006060170782692022,-0.016695970649114225,2.65994930267334,2019-08-07 13:29:39:938,-46.708584146282654,176.5423486673722,0,-44.981685638427734,41.982906341552734,-36.28522491455078
0.011281665414571762,0.4372621476650238,9.903987884521484,-0.00032764881944403687,-0.0027304066878267143,-0.017495114552030545,2.6699397563934326,2019-08-07 13:29:39:947,-49.37157549159507,176.56112602785197,0,-44.981685638427734,41.982906341552734,-36.28522491455078
-0.0030868323519825935,0.41570937633514404,9.681276321411133,-0.0016595545549180318,-0.004328693453362062,-0.012700254255424506,2.6799442768096924,2019-08-07 13:29:39:957,-44.78207769769811,176.5816609066637,0,-44.981685638427734,41.982906341552734,-36.28522491455078
0.03043966367840767,0.42768314480781555,9.836935043334961,-0.006987177626851173,0.004461884017156674,-0.014298541020959853,2.6899468898773193,2019-08-07 13:29:39:967,-47.48539620098459,176.60416207187666,0,-44.981685638427734,41.982906341552734,-36.28522491455078
0.01607116498053074,0.48755186796188354,9.731565475463867,0.0010042569160299579,0.006326551910281247,-0.011101966449591856,2.699942111968994,2019-08-07 13:29:39:977,-50.13734651278606,176.6141527498177,0,-44.981685638427734,41.982906341552734,-36.28522491455078
0.107071653008461,0.4636043906211853,9.836935043334961,0.003135306001762336,0.006060170782692022,-0.005774343897807364,2.710479974746704,2019-08-07 13:29:39:988,-52.72571297858086,176.62604867204482,0,-44.981685638427734,41.982906341552734,-36.28522491455078
0.06636090576648712,0.4636043906211853,9.805803298950195,-0.004056984703221053,0.004461884017156674,0.0008851845519975746,2.720372438430786,2019-08-07 13:29:39:998,-55.265922238502434,176.64164425177665,0,-44.981685638427734,41.982906341552734,-36.28522491455078
-0.029429078102111816,0.4971308708190918,9.760302543640137,0.0015370192362269886,0.0031299783792105513,-0.003909676004682793,2.7299373149871826,2019-08-07 13:29:40:007,-50.56573993268382,176.64967025894433,0,-43.03247833251953,42.13284683227539,-35.83540725708008
-0.08450832217931747,0.43486738204956055,9.714802742004395,0.00020511348449834825,0.004994646272335123,0.003548996087964146,2.7400190830230713,2019-08-07 13:29:40:018,-45.96722053305251,176.66529990885232,0,-43.03247833251953,42.13284683227539,-35.83540725708008
-0.08211357146501541,0.4300778806209564,9.712408065795898,-0.0011267922997395827,0.007392076940786795,0.005413663981088718,2.74996018409729,2019-08-07 13:29:40:028,-41.4616902313019,176.68191339205475,0,-43.03247833251953,42.13284683227539,-35.83540725708008
-0.0701398253440857,0.49952563643455505,9.841724395751953,0.002602543746583887,0.00019978586194656375,0.004081758343142595,2.7599661350250244,2019-08-07 13:29:40:038,-37.04073522538899,176.68870081389161,0,-43.03247833251953,42.13284683227539,-35.83540725708008
-0.1419823169708252,0.4516306221485138,9.8034086227417,-0.0037906035756318283,-0.0013985010498805918,0.005147282853499493,2.769946336746216,2019-08-07 13:29:40:047,-32.71573190175675,176.70429742121874,0,-43.03247833251953,42.13284683227539,-35.83540725708008
-0.10606107115745544,0.4779728949069977,9.748329162597656,-0.0032578413204533796,0.002064453868853653,-0.0031105326219151193,2.7799735069274902,2019-08-07 13:29:40:058,-28.475046582837415,176.71590498713346,0,-43.03247833251953,42.13284683227539,-35.83540725708008
-0.12521906197071075,0.4252883791923523,9.726776123046875,0.003668068256940785,0.004994646272335123,-0.003643294877093568,2.7900218963623047,2019-08-07 13:29:40:068,-24.323115004553166,176.72944579436464,0,-43.03247833251953,42.13284683227539,-35.83540725708008
-0.0629555732011795,0.4444463849067688,9.805803298950195,-6.126766340918298e-05,0.0028635972516213265,-0.002844151494325895,2.7999467849731445,2019-08-07 13:29:40:077,-20.245605480877217,176.74298811306875,0,-43.03247833251953,42.13284683227539,-35.83540725708008
-0.05816607549786568,0.4492358863353729,9.801013946533203,-0.0005940299795425521,-0.005394218223793286,-0.004975200515039691,2.809990167617798,2019-08-07 13:29:40:088,-16.244451970315005,176.7559762903184,0,-43.03247833251953,42.13284683227539,-35.83540725708008
-0.03421857953071594,0.45402538776397705,9.834540367126465,-0.005122509213577951,-0.003263168943005164,-0.007372630663342713,2.8201098442077637,2019-08-07 13:29:40:098,-12.321695853280286,176.7709022005174,0,-43.03247833251953,42.13284683227539,-35.83540725708008
-0.0629555732011795,0.5282626152038574,9.78664493560791,0.001803400363816213,0.008723982578732917,-0.0020450079815210586,2.82995343208313,2019-08-07 13:29:40:108,-8.487455171258404,176.77269323053218,0,-43.03247833251953,42.13284683227539,-35.83540725708008
0.07354515790939331,0.4516306221485138,9.793828964233398,-0.005921652596345625,-0.0021976444326482656,-0.00257777036673667,2.839984655380249,2019-08-07 13:29:40:118,-11.907863336504153,176.78776963930994,0,-43.03247833251953,42.13284683227539,-35.83540725708008
-0.000692082685418427,0.5114994049072266,9.75790786743164,0.003135306001762336,0.002064453868853653,0.004614520598321043,2.8503589630126953,2019-08-07 13:29:40:128,-8.070989921528806,176.79017510101428,0,-43.03247833251953,42.13284683227539,-35.83540725708008
0.107071653008461,0.4707886278629303,9.74593448638916,-0.00272507906527493,-0.0027304066878267143,0.004614520598321043,2.859933376312256,2019-08-07 13:29:40:137,-11.49551339759677,176.80052482646636,0,-43.632232666015625,40.63345718383789,-35.83540725708008
0.09988740086555481,0.49234136939048767,9.62619686126709,0.003668068256940785,0.004728265144745899,0.008876618639748637,2.869941473007202,2019-08-07 13:29:40:147,-14.85636988814278,176.80389508481784,0,-43.632232666015625,40.63345718383789,-35.83540725708008
0.1405981481075287,0.48755186796188354,9.753118515014648,0.003668068256940785,-0.003529550070594388,0.01020852479784341,2.8799495697021484,2019-08-07 13:29:40:158,-18.140741003158055,176.80851999115552,0,-43.632232666015625,40.63345718383789,-35.83540725708008
0.1453876495361328,0.38218289613723755,9.767487525939941,-0.005388890341167176,0.0012653104860859794,0.015003385094449453,2.8900997638702393,2019-08-07 13:29:40:168,-21.361591794539624,176.8306062928388,0,-43.632232666015625,40.63345718383789,-35.83540725708008
0.061571408063173294,0.4588148891925812,9.817776679992676,0.004733593027372009,-0.001132119922291367,0.013405098328914105,2.8999505043029785,2019-08-07 13:29:40:178,-24.526547338484214,176.8378627086697,0,-43.632232666015625,40.63345718383789,-35.83540725708008
-0.010271081700921059,0.5162888765335083,9.810592651367188,0.009262072716537477,0.0009989292934781736,0.01953186478361492,2.909937620162964,2019-08-07 13:29:40:187,-20.437776268559254,176.83566253192353,0,-43.632232666015625,40.63345718383789,-35.83540725708008
-0.1539560705423355,0.5043151378631592,9.71719741821289,-0.0013931734273288073,0.001531691613675204,0.018199959665817448,2.9199559688568115,2019-08-07 13:29:40:198,-16.44803635371244,176.8403141466617,0,-43.632232666015625,40.63345718383789,-35.83540725708008
-0.03182382881641388,0.3989461362361908,9.801013946533203,0.006598260920496581,0.005527408527513573,0.012073192170819333,2.9300122261047363,2019-08-07 13:29:40:208,-12.525917486611482,176.85316383122324,0,-43.632232666015625,40.63345718383789,-35.83540725708008
-0.134798064827919,0.42049887776374817,9.927935600280762,-0.005388890341167176,-0.004595074841025611,0.015536147349627901,2.9399445056915283,2019-08-07 13:29:40:217,-8.688394369624753,176.87059952088882,0,-43.632232666015625,40.63345718383789,-35.83540725708008
-0.12282431870698929,0.46599912643432617,9.834540367126465,-0.0061880337239348495,-0.00805802949968553,0.016335291252544227,2.949957847595215,2019-08-07 13:29:40:228,-4.924406555481747,176.88240934257075,0,-43.632232666015625,40.63345718383789,-35.83540725708008
-0.1539560705423355,0.4707886278629303,9.8848295211792,0.0012706381086377639,-0.0013985010498805918,0.01367147893635468,2.9599390029907227,2019-08-07 13:29:40:237,-1.2429808227873007,176.8895132810568,0,-43.632232666015625,40.63345718383789,-35.83540725708008
0.06636090576648712,0.35584065318107605,9.796224594116211,-0.0013931734273288073,0.0017980727412644285,0.01074128705302186,2.9701011180877686,2019-08-07 13:29:40:248,-4.811384725874672,176.91091171384696,0,-43.632232666015625,40.63345718383789,-35.83540725708008
0.09749265760183334,0.5378416180610657,9.901593208312988,-6.126766340918298e-05,-6.659528596096748e-05,0.011274049308200309,2.9799461364746094,2019-08-07 13:29:40:257,-8.303837715612058,176.91054381895333,0,-42.882537841796875,40.78339385986328,-35.985347747802734
0.2962568700313568,0.4827623665332794,9.796224594116211,0.007930166558442704,-0.0037959311981836125,0.008343856384570188,2.990121841430664,2019-08-07 13:29:40:268,-11.70094794569081,176.91137633833645,0,-42.882537841796875,40.78339385986328,-35.985347747802734
0.18849314749240875,0.5569996237754822,9.652539253234863,0.01059397783433495,0.0033963595067997765,0.012605954425997783,2.9999547004699707,2019-08-07 13:29:40:278,-15.04642976208263,176.90124793996054,0,-42.882537841796875,40.78339385986328,-35.985347747802734
0.42557334899902344,0.45402538776397705,9.721986770629883,0.0055327364101396825,0.004994646272335123,0.007811094129391739,3.0099172592163086,2019-08-07 13:29:40:287,-18.298165482119458,176.90665157067843,0,-42.882537841796875,40.78339385986328,-35.985347747802734
0.32020437717437744,0.559394359588623,9.678881645202637,0.006065498665318131,0.0041955028895674495,0.0027498524451221467,3.0199410915374756,2019-08-07 13:29:40:297,-21.49666729632811,176.8989496535473,0,-42.882537841796875,40.78339385986328,-35.985347747802734
0.3106253743171692,0.5067098736763,9.767487525939941,0.0034016871293515603,-0.0016648821774698163,0.007278331874213289,3.0299129486083984,2019-08-07 13:29:40:307,-24.62937165364699,176.89967234722457,0,-42.882537841796875,40.78339385986328,-35.985347747802734
0.3369676172733307,0.42768314480781555,9.645355224609375,0.006331879792907356,0.007392076940786795,-0.0007131023435749355,3.039949893951416,2019-08-07 13:29:40:318,-27.700933062968456,176.90733282484842,0,-42.882537841796875,40.78339385986328,-35.985347747802734
0.20286163687705994,0.46839389204978943,9.748329162597656,0.004200830512119234,0.002064453868853653,0.0011515656795867992,3.0499119758605957,2019-08-07 13:29:40:327,-30.724226260717316,176.91181898682035,0,-42.882537841796875,40.78339385986328,-35.985347747802734
0.1860983967781067,0.4324726462364197,9.801013946533203,-0.0011267922997395827,0.0028635972516213265,0.0038153772155533703,3.0599279403686523,2019-08-07 13:29:40:337,-33.68959655814897,176.92368522269186,0,-42.882537841796875,40.78339385986328,-35.985347747802734
0.01367641519755125,0.4755781292915344,9.834540367126465,-0.007519939882029623,-0.006459742734150184,0.0027498524451221467,3.0699234008789062,2019-08-07 13:29:40:347,-36.61058556892186,176.93406105284637,0,-42.882537841796875,40.78339385986328,-35.985347747802734
-0.022244829684495926,0.4133146405220032,9.84411907196045,-0.0061880337239348495,0.0012653104860859794,8.60411123386422e-05,3.079923391342163,2019-08-07 13:29:40:357,-32.28167375662669,176.9507702934731,0,-42.882537841796875,40.78339385986328,-35.985347747802734
-0.08211357146501541,0.44205164909362793,9.880040168762207,-0.0037906035756318283,0.002064453868853653,0.0048809017259102685,3.089958906173706,2019-08-07 13:29:40:368,-28.046727136242936,176.96265460922004,0,-42.882537841796875,40.78339385986328,-35.985347747802734
-0.050981827080249786,0.4252883791923523,9.8848295211792,0.00047149462834221814,-0.0016648821774698163,0.008343856384570188,3.0999114513397217,2019-08-07 13:29:40:377,-23.890772302833398,176.9738661420289,0,-42.882537841796875,40.78339385986328,-35.985347747802734
-0.03900807723402977,0.5067098736763,9.810592651367188,0.00020511348449834825,0.004461884017156674,-0.0015122457263426093,3.1099255084991455,2019-08-07 13:29:40:387,-19.820021992347908,176.97514033615042,0,-43.18241882324219,42.28278350830078,-35.38559341430664
0.0352291613817215,0.46120962500572205,9.75790786743164,-0.00032764881944403687,0.0052610273999243486,0.005413663981088718,3.1199464797973633,2019-08-07 13:29:40:397,-23.022444704278787,176.98170022012567,0,-43.18241882324219,42.28278350830078,-35.38559341430664
0.10946640372276306,0.4971308708190918,9.779460906982422,0.00393444938453001,0.008723982578732917,0.0032826149603749208,3.129948139190674,2019-08-07 13:29:40:408,-26.154068855959295,176.98165508105794,0,-43.18241882324219,42.28278350830078,-35.38559341430664
0.107071653008461,0.4300778806209564,9.769882202148438,0.006598260920496581,0.0071256958131975705,0.0038153772155533703,3.139951467514038,2019-08-07 13:29:40:418,-29.222431880674183,176.987904274541,0,-43.18241882324219,42.28278350830078,-35.38559341430664
0.09030840545892715,0.43486738204956055,9.762697219848633,0.0007378757884407334,0.002064453868853653,0.0008851845519975746,3.150111675262451,2019-08-07 13:29:40:428,-32.22856117963616,176.99671554873777,0,-43.18241882324219,42.28278350830078,-35.38559341430664
0.04720291122794151,0.3989461362361908,9.78664493560791,-0.00272507906527493,0.001531691613675204,0.0008851845519975746,3.1599411964416504,2019-08-07 13:29:40:437,-35.1793084037299,177.01159863483468,0,-43.18241882324219,42.28278350830078,-35.38559341430664
0.07833465933799744,0.4636043906211853,9.808197975158691,-0.00272507906527493,-0.0016648821774698163,8.60411123386422e-05,3.169936180114746,2019-08-07 13:29:40:447,-38.06563604160475,177.01877227913417,0,-43.18241882324219,42.28278350830078,-35.38559341430664
0.07354515790939331,0.4707886278629303,9.750723838806152,-0.0019259356825072562,-0.0016648821774698163,0.0011515656795867992,3.1801064014434814,2019-08-07 13:29:40:458,-40.89472963646612,177.02421199707825,0,-43.18241882324219,42.28278350830078,-35.38559341430664
0.04480816051363945,0.4324726462364197,9.736355781555176,0.0012706381086377639,0.0052610273999243486,-0.0015122457263426093,3.189945697784424,2019-08-07 13:29:40:467,-43.6744679935279,177.03215954164767,0,-43.18241882324219,42.28278350830078,-35.38559341430664
0.05199240893125534,0.4636043906211853,9.796224594116211,-0.0005940299795425521,-0.00246402556023749,0.0016843279347652483,3.199981451034546,2019-08-07 13:29:40:478,-46.39350837332373,177.03766129282602,0,-43.18241882324219,42.28278350830078,-35.38559341430664
0.06636090576648712,0.4228936433792114,9.805803298950195,-0.0008604111071317767,-0.0008657387296835611,0.00035242226430983473,3.2099406719207764,2019-08-07 13:29:40:487,-49.05739919626861,177.0480000641408,0,-43.18241882324219,42.28278350830078,-35.38559341430664
0.05678191035985947,0.5162888765335083,9.73396110534668,0.00020511348449834825,-0.004062312325772837,0.00061880342440835,3.219937324523926,2019-08-07 13:29:40:497,-51.66728650584765,177.04620251658824,0,-43.18241882324219,42.28278350830078,-35.38559341430664
0.03762391209602356,0.4827623665332794,9.789039611816406,0.0015370192362269886,0.00019978586194656375,-0.0031105326219151193,3.229919672012329,2019-08-07 13:29:40:507,-54.22964848294042,177.04795001812374,0,-43.03247833251953,41.53308868408203,-37.03491973876953
0.07115040719509125,0.3726038932800293,9.767487525939941,-0.0016595545549180318,-0.002996787815415939,-0.005774343897807364,3.2399566173553467,2019-08-07 13:29:40:518,-56.73501943014734,177.06423382583574,0,-43.03247833251953,41.53308868408203,-37.03491973876953
0.0352291613817215,0.42768314480781555,9.8034086227417,-0.005921652596345625,0.002330834996442878,-0.005241581642628916,3.2499372959136963,2019-08-07 13:29:40:527,-59.197507371966616,177.0763077322872,0,-43.03247833251953,41.53308868408203,-37.03491973876953
0.054387159645557404,0.4396568834781647,9.781855583190918,0.00047149462834221814,0.002064453868853653,-0.006307106152985815,3.2601187229156494,2019-08-07 13:29:40:538,-61.60836621334588,177.08304216147698,0,-43.03247833251953,41.53308868408203,-37.03491973876953
0.054387159645557404,0.42768314480781555,9.796224594116211,-0.0032578413204533796,0.0004661670057904337,-0.003909676004682793,3.269951343536377,2019-08-07 13:29:40:548,-63.97009437507539,177.09318338938985,0,-43.03247833251953,41.53308868408203,-37.03491973876953
0.06396616250276566,0.4444463849067688,9.798619270324707,-0.0016595545549180318,-6.659528596096748e-05,-0.010569204194413408,3.279926061630249,2019-08-07 13:29:40:557,-66.28317466749728,177.1003082931993,0,-43.03247833251953,41.53308868408203,-37.03491973876953
0.02325541339814663,0.4851571321487427,9.937514305114746,-0.0032578413204533796,-6.659528596096748e-05,-0.010036441939234959,3.2899363040924072,2019-08-07 13:29:40:567,-68.55479211714908,177.104233173121,0,-43.03247833251953,41.53308868408203,-37.03491973876953
0.10228215157985687,0.44684112071990967,9.848908424377441,-0.0008604111071317767,-6.659528596096748e-05,-0.01296663486286508,3.2999141216278076,2019-08-07 13:29:40:577,-70.77175891499053,177.11067644371155,0,-43.03247833251953,41.53308868408203,-37.03491973876953
0.09270315617322922,0.5330521464347839,9.8034086227417,-0.0005940299795425521,-0.003263168943005164,-0.017495114552030545,3.3099617958068848,2019-08-07 13:29:40:588,-72.94364703344318,177.10655114705838,0,-43.03247833251953,41.53308868408203,-37.03491973876953
0.08791365474462509,0.48036763072013855,9.762697219848633,-0.0011267922997395827,0.002597216124032102,-0.0158968277864952,3.319946527481079,2019-08-07 13:29:40:597,-75.07591144201808,177.1087132020422,0,-43.03247833251953,41.53308868408203,-37.03491973876953
0.11186115443706512,0.4228936433792114,9.812987327575684,-0.0061880337239348495,0.0009989292934781736,-0.016695970649114225,3.3299386501312256,2019-08-07 13:29:40:607,-77.16189160268692,177.12065773388633,0,-43.03247833251953,41.53308868408203,-37.03491973876953
0.06636090576648712,0.4300778806209564,9.81538200378418,-0.002192316810096481,-0.003263168943005164,-0.02415464222161251,3.339961528778076,2019-08-07 13:29:40:618,-79.20907000060737,177.12930020773084,0,-43.03247833251953,41.53308868408203,-37.03491973876953
0.12383490055799484,0.42049887776374817,9.85609245300293,-0.0008604111071317767,0.0009989292934781736,-0.022023593200898715,3.3499372005462646,2019-08-07 13:29:40:627,-81.21105126397339,177.13833660422284,0,-43.03247833251953,41.53308868408203,-37.03491973876953
0.09030840545892715,0.3989461362361908,9.820171356201172,-0.0061880337239348495,0.003662740634389001,-0.022023593200898715,3.359985589981079,2019-08-07 13:29:40:638,-83.17835902557249,177.15253382672148,0,-42.58266067504883,41.08327102661133,-35.68547058105469
0.1334138959646225,0.5043151378631592,9.736355781555176,-0.0008604111071317767,-0.0016648821774698163,-0.022023593200898715,3.369935989379883,2019-08-07 13:29:40:647,-85.09816055277109,177.15066174901617,0,-42.58266067504883,41.08327102661133,-35.68547058105469
0.0807294100522995,0.4971308708190918,9.772276878356934,-0.0037906035756318283,0.0028635972516213265,-0.019093400277268593,3.3799610137939453,2019-08-07 13:29:40:658,-86.9883430040494,177.15153796602655,0,-42.58266067504883,41.08327102661133,-35.68547058105469
0.4590998589992523,0.4181041419506073,9.623802185058594,-0.005921652596345625,0.004728265144745899,-0.02282273710381504,3.3899388313293457,2019-08-07 13:29:40:667,-88.79660110890795,177.16207204579752,0,-42.58266067504883,41.08327102661133,-35.68547058105469
0.1405981481075287,0.6719475984573364,9.73396110534668,0.011393121737251273,0.0031299783792105513,-0.018027875766911696,3.39998197555542,2019-08-07 13:29:40:678,-90.60588359815978,177.13342707910112,0,-42.58266067504883,41.08327102661133,-35.68547058105469
-0.20424580574035645,0.2816033959388733,9.805803298950195,-0.01444584919934946,-0.008324410627274756,-0.028416740263040103,3.409935235977173,2019-08-07 13:29:40:687,-85.2129785378484,177.16593254925445,0,-42.58266067504883,41.08327102661133,-35.68547058105469
-0.10606107115745544,0.5162888765335083,10.011751174926758,-0.012581181826373541,-0.007258886116917857,-0.02308911771125561,3.4199559688568115,2019-08-07 13:29:40:698,-79.91677364613572,177.17065225321815,0,-42.58266067504883,41.08327102661133,-35.68547058105469
-0.13240331411361694,0.4564201235771179,9.868066787719727,-0.00911822664756497,-0.00805802949968553,-0.02228997588893389,3.4299514293670654,2019-08-07 13:29:40:708,-74.72928988349717,177.17939334719478,0,-42.58266067504883,41.08327102661133,-35.68547058105469
0.03283441439270973,0.3582353889942169,9.901593208312988,-0.008585464392386522,-0.010455460168137204,-0.024953786124528834,3.4399523735046387,2019-08-07 13:29:40:718,-76.82503287808878,177.19918600324507,0,-42.58266067504883,41.08327102661133,-35.68547058105469
-0.04858707636594772,0.36781439185142517,9.863277435302734,-0.003524222448042604,0.002597216124032102,-0.023621881006731363,3.449967622756958,2019-08-07 13:29:40:728,-71.69563757865701,177.21447126225965,0,-42.58266067504883,41.08327102661133,-35.68547058105469
-0.07971882075071335,0.38218289613723755,9.942303657531738,-0.0029914601928641544,-0.002996787815415939,-0.02282273710381504,3.459935188293457,2019-08-07 13:29:40:737,-66.66923551165235,177.22782868583806,0,-42.58266067504883,41.08327102661133,-35.68547058105469
-0.04140282794833183,0.3151299059391022,9.839329719543457,-0.00911822664756497,-0.004595074841025611,-0.02575293002744516,3.46995210647583,2019-08-07 13:29:40:748,-61.73808816759443,177.25171228536095,0,-42.58266067504883,41.08327102661133,-35.68547058105469
-0.18508781492710114,0.3726038932800293,9.92314624786377,-0.00672079649926195,-6.659528596096748e-05,-0.02069168808310124,3.479950189590454,2019-08-07 13:29:40:758,-56.92466030679273,177.26744329238574,0,-41.83296585083008,41.53308868408203,-35.235652923583984
-0.09408731758594513,0.4779728949069977,9.951883316040039,-0.004323365830810277,-0.004062312325772837,-0.016163208393935775,3.489933490753174,2019-08-07 13:29:40:767,-52.19472334480051,177.26952371989327,0,-41.83296585083008,41.53308868408203,-35.235652923583984
-0.03900807723402977,0.3797881305217743,9.769882202148438,-0.0056552714687564,0.0033963595067997765,-0.012167492000246055,3.499943494796753,2019-08-07 13:29:40:777,-47.55731309441735,177.28278868007502,0,-41.83296585083008,41.53308868408203,-35.235652923583984
-0.06774507462978363,0.3606301546096802,9.85609245300293,0.005266355282550457,0.0004661670057904337,-0.0148313032761383,3.509955406188965,2019-08-07 13:29:40:788,-43.014305132908355,177.29226247393785,0,-41.83296585083008,41.53308868408203,-35.235652923583984
-0.06535032391548157,0.5354468822479248,9.808197975158691,0.0020697814914054373,0.0033963595067997765,-0.003643294877093568,3.5199365615844727,2019-08-07 13:29:40:797,-38.56355741180762,177.2827617104426,0,-41.83296585083008,41.53308868408203,-35.235652923583984
-0.02463958039879799,0.3989461362361908,9.817776679992676,-0.00032764881944403687,-0.0037959311981836125,-0.004442438259861242,3.5299532413482666,2019-08-07 13:29:40:808,-34.19302718560552,177.29075199013434,0,-41.83296585083008,41.53308868408203,-35.235652923583984
-0.08690307289361954,0.38936713337898254,9.714802742004395,-0.0019259356825072562,0.002597216124032102,-0.0012458645987533845,3.5399363040924072,2019-08-07 13:29:40:817,-29.92087293771605,177.3001130560567,0,-41.83296585083008,41.53308868408203,-35.235652923583984
-0.12042956799268723,0.45402538776397705,9.777066230773926,0.001803400363816213,0.002597216124032102,0.005680045108677942,3.5499484539031982,2019-08-07 13:29:40:828,-25.738029750642387,177.2999213675161,0,-41.83296585083008,41.53308868408203,-35.235652923583984
-0.07732407003641129,0.44205164909362793,9.841724395751953,0.00047149462834221814,0.002330834996442878,0.003548996087964146,3.5599377155303955,2019-08-07 13:29:40:837,-21.633579509844893,177.30222301914236,0,-41.83296585083008,41.53308868408203,-35.235652923583984
-0.09169257432222366,0.4396568834781647,9.743539810180664,0.004200830512119234,0.004728265144745899,0.003548996087964146,3.569936990737915,2019-08-07 13:29:40:847,-17.614346078788383,177.3021479718348,0,-41.83296585083008,41.53308868408203,-35.235652923583984
-0.0892978236079216,0.4492358863353729,9.78664493560791,0.0020697814914054373,0.002064453868853653,0.005147282853499493,3.5799365043640137,2019-08-07 13:29:40:857,-13.673673856562647,177.30237887999712,0,-41.83296585083008,41.53308868408203,-35.235652923583984
-0.050981827080249786,0.43486738204956055,9.779460906982422,-0.0029914601928641544,0.002597216124032102,0.003016233572711371,3.5899360179901123,2019-08-07 13:29:40:867,-9.807632421133011,177.30708855939105,0,-41.83296585083008,41.53308868408203,-35.235652923583984
-0.07732407003641129,0.46599912643432617,9.805803298950195,0.0015370192362269886,0.00019978586194656375,0.0011515656795867992,3.5999491214752197,2019-08-07 13:29:40:878,-6.020628076986879,177.30566645782204,0,-41.83296585083008,41.53308868408203,-35.235652923583984
-0.07253457605838776,0.46599912643432617,9.793828964233398,-0.0037906035756318283,0.0033963595067997765,-0.00257777036673667,3.6099328994750977,2019-08-07 13:29:40:887,-2.3106061417854526,177.30719549813315,0,-42.882537841796875,40.78339385986328,-35.08571243286133
0.05678191035985947,0.47318339347839355,9.78664493560791,0.004467211899782784,0.003929121761978225,-0.006307106152985815,3.619936466217041,2019-08-07 13:29:40:897,-5.859952498547617,177.303180558586,0,-42.882537841796875,40.78339385986328,-35.08571243286133
0.16694039106369019,0.5162888765335083,9.75790786743164,0.0010042569160299579,-0.0037959311981836125,-0.007106249535753488,3.6299362182617188,2019-08-07 13:29:40:907,-9.32101943266748,177.29597939897698,0,-42.882537841796875,40.78339385986328,-35.08571243286133
0.020860664546489716,0.4899466335773468,9.767487525939941,-0.00272507906527493,-0.004062312325772837,-0.012433872607686629,3.639939069747925,2019-08-07 13:29:40:917,-12.729870054221635,177.29415827619462,0,-42.882537841796875,40.78339385986328,-35.08571243286133
0.05917666107416153,0.48755186796188354,9.808197975158691,0.002336162618994662,-0.001132119922291367,-0.015630446138757324,3.649937868118286,2019-08-07 13:29:40:927,-16.067723376582595,177.29004849445647,0,-42.882537841796875,40.78339385986328,-35.08571243286133
0.07593990862369537,0.5354468822479248,9.779460906982422,0.0015370192362269886,-0.00033297644199582136,-0.017761495159471122,3.659945011138916,2019-08-07 13:29:40:937,-19.33728367337168,177.28070507093634,0,-42.882537841796875,40.78339385986328,-35.08571243286133
0.09509790688753128,0.44684112071990967,9.858488082885742,-0.0037906035756318283,-0.003529550070594388,-0.011634728704770307,3.6699352264404297,2019-08-07 13:29:40:947,-22.53750460189482,177.2853136073701,0,-42.882537841796875,40.78339385986328,-35.08571243286133
0.09030840545892715,0.4827623665332794,9.834540367126465,-0.002192316810096481,-0.007258886116917857,-0.018027875766911696,3.6799323558807373,2019-08-07 13:29:40:957,-25.672157431932533,177.2846318590758,0,-42.882537841796875,40.78339385986328,-35.08571243286133
0.19567739963531494,0.5354468822479248,9.714802742004395,0.0055327364101396825,-0.00246402556023749,-0.02228997588893389,3.6899383068084717,2019-08-07 13:29:40:967,-28.734251784422316,177.27273561897766,0,-42.882537841796875,40.78339385986328,-35.08571243286133
0.42557334899902344,0.5306573510169983,9.688460350036621,0.003668068256940785,-0.0027304066878267143,-0.015630446138757324,3.6999361515045166,2019-08-07 13:29:40:977,-31.70773103929613,177.26252017922596,0,-42.882537841796875,40.78339385986328,-35.08571243286133
0.4016258716583252,0.44205164909362793,9.793828964233398,0.0020697814914054373,0.00019978586194656375,-0.02735121575268321,3.709937572479248,2019-08-07 13:29:40:987,-34.62672315984862,177.26442077112753,0,-42.882537841796875,40.78339385986328,-35.08571243286133
-0.1683245599269867,0.40852513909339905,9.944698333740234,-0.004589746958399502,-0.003529550070594388,-0.019626163572744344,3.7199454307556152,2019-08-07 13:29:40:997,-30.35159928572719,177.27466411159904,0,-42.882537841796875,40.78339385986328,-35.08571243286133
0.04480816051363945,0.3917618989944458,9.944698333740234,-0.009917369510183993,-0.011254603030756228,-0.019892544180184917,3.7299349308013916,2019-08-07 13:29:41:007,-33.33309133578049,177.2896146511445,0,-42.882537841796875,41.982906341552734,-35.08571243286133
0.04720291122794151,0.4588148891925812,9.736355781555176,-0.00672079649926195,0.0007325481658889489,-0.02415464222161251,3.7399346828460693,2019-08-07 13:29:41:017,-36.2612853438402,177.29363590931882,0,-42.882537841796875,41.982906341552734,-35.08571243286133
0.02325541339814663,0.4372621476650238,9.777066230773926,-0.008319083264797297,-0.0037959311981836125,-0.017228732904292672,3.749939203262329,2019-08-07 13:29:41:027,-39.1312016306683,177.30122151865334,0,-42.882537841796875,41.982906341552734,-35.08571243286133
0.2651251256465912,0.4396568834781647,9.834540367126465,-6.126766340918298e-05,0.0007325481658889489,-0.0169623522968521,3.7599334716796875,2019-08-07 13:29:41:037,-41.91810392422134,177.30403696325104,0,-42.882537841796875,41.982906341552734,-35.08571243286133
0.14778240025043488,0.4444463849067688,9.750723838806152,0.007397404303264255,-0.0013985010498805918,-0.010036441939234959,3.7699460983276367,2019-08-07 13:29:41:047,-44.66158938021895,177.30160165551982,0,-42.882537841796875,41.982906341552734,-35.08571243286133
0.08791365474462509,0.4707886278629303,9.772276878356934,-0.0008604111071317767,0.004461884017156674,-0.0068398684081642635,3.77993106842041,2019-08-07 13:29:41:057,-47.36055052628982,177.3008891047179,0,-42.882537841796875,41.982906341552734,-35.08571243286133
0.042413413524627686,0.40134090185165405,9.846513748168945,-0.0037906035756318283,0.002597216124032102,-0.010302823586972834,3.789937973022461,2019-08-07 13:29:41:067,-50.00986290685045,177.31031988040718,0,-42.882537841796875,41.982906341552734,-35.08571243286133
0.0352291613817215,0.4588148891925812,9.839329719543457,0.002336162618994662,0.003929121761978225,-0.0031105326219151193,3.7999353408813477,2019-08-07 13:29:41:077,-52.60776839636076,177.3094059027397,0,-42.882537841796875,41.982906341552734,-35.08571243286133
0.03283441439270973,0.46599912643432617,9.839329719543457,0.004999974154961233,0.001531691613675204,-0.0017786268539318336,3.809945583343506,2019-08-07 13:29:41:087,-55.15264997944162,177.30617640497974,0,-42.882537841796875,41.982906341552734,-35.08571243286133
0.020860664546489716,0.38936713337898254,9.77467155456543,0.0007378757884407334,0.005527408527513573,0.004614520598321043,3.8199355602264404,2019-08-07 13:29:41:097,-57.65025194359475,177.31401635888972,0,-42.882537841796875,41.982906341552734,-35.08571243286133
-0.03182382881641388,0.4636043906211853,9.767487525939941,0.0015370192362269886,0.006859314685608345,0.004081758343142595,3.829937219619751,2019-08-07 13:29:41:107,-52.90483257838558,177.3125238627746,0,-42.882537841796875,41.982906341552734,-35.08571243286133
-0.027034329250454903,0.44684112071990967,9.796224594116211,-0.0011267922997395827,0.00765845806837602,0.007278331874213289,3.839937210083008,2019-08-07 13:29:41:117,-48.254198475259,177.3146729413358,0,-42.882537841796875,41.982906341552734,-35.08571243286133
0.1789141446352005,0.3582353889942169,9.724381446838379,-0.004589746958399502,0.002597216124032102,0.0014179468071760237,3.849937915802002,2019-08-07 13:29:41:127,-50.869492179170955,177.3287616269827,0,-42.882537841796875,41.982906341552734,-35.08571243286133
0.04720291122794151,0.5450258851051331,9.731565475463867,0.0100612155791565,0.005527408527513573,-0.00018034003963255039,3.859945297241211,2019-08-07 13:29:41:137,-53.44965004444806,177.31242171299166,0,-43.03247833251953,40.93333435058594,-35.235652923583984
-0.09408731758594513,0.4133146405220032,9.784250259399414,0.003668068256940785,0.0052610273999243486,-0.002844151494325895,3.869936943054199,2019-08-07 13:29:41:147,-48.794627650467646,177.31573740326954,0,-43.03247833251953,40.93333435058594,-35.235652923583984
-0.12042956799268723,0.5138941407203674,9.760302543640137,-0.007519939882029623,0.0028635972516213265,0.0014179468071760237,3.8799376487731934,2019-08-07 13:29:41:157,-44.23448152255964,177.31336692454357,0,-43.03247833251953,40.93333435058594,-35.235652923583984
-0.0629555732011795,0.49952563643455505,9.973435401916504,-0.005921652596345625,0.002330834996442878,-0.005507962770218141,3.88993763923645,2019-08-07 13:29:41:167,-39.75833394796773,177.3130786168161,0,-43.03247833251953,40.93333435058594,-35.235652923583984
-0.06535032391548157,0.4037356376647949,9.875250816345215,-0.0016595545549180318,-0.0021976444326482656,-0.008438155693848261,3.89994740486145,2019-08-07 13:29:41:177,-35.36951517414613,177.3209267329298,0,-43.03247833251953,40.93333435058594,-35.235652923583984
-0.07492932677268982,0.4516306221485138,9.810592651367188,-0.008319083264797297,0.00019978586194656375,-0.005774343897807364,3.90993595123291,2019-08-07 13:29:41:187,-31.070988789906163,177.32645899630356,0,-43.03247833251953,40.93333435058594,-35.235652923583984
-0.01745533011853695,0.4947361350059509,9.808197975158691,0.0028689248741731116,0.001531691613675204,-0.006573487280575038,3.9199349880218506,2019-08-07 13:29:41:197,-26.852468320482437,177.32056679650245,0,-43.03247833251953,40.93333435058594,-35.235652923583984
-0.000692082685418427,0.4827623665332794,9.793828964233398,-0.0005940299795425521,-6.659528596096748e-05,-0.007905393438669812,3.9299371242523193,2019-08-07 13:29:41:207,-22.715462529253468,177.31804971012258,0,-43.03247833251953,40.93333435058594,-35.235652923583984
0.05199240893125534,0.4899466335773468,9.84411907196045,-0.002192316810096481,0.002330834996442878,-0.004442438259861242,3.939936876296997,2019-08-07 13:29:41:217,-25.856409829188532,177.315933909573,0,-43.03247833251953,40.93333435058594,-35.235652923583984
-0.010271081700921059,0.49952563643455505,9.784250259399414,0.001803400363816213,-0.003529550070594388,-0.005241581642628916,3.949944496154785,2019-08-07 13:29:41:227,-21.738501216971652,177.3101489679424,0,-43.03247833251953,40.93333435058594,-35.235652923583984
0.028044912964105606,0.4300778806209564,9.8034086227417,-0.003524222448042604,0.00019978586194656375,-0.007106249535753488,3.9599366188049316,2019-08-07 13:29:41:237,-24.900565136676665,177.31568389858748,0,-43.03247833251953,40.93333435058594,-35.235652923583984
0.042413413524627686,0.4516306221485138,9.841724395751953,-0.003524222448042604,0.001531691613675204,-0.006573487280575038,3.9699385166168213,2019-08-07 13:29:41:247,-27.998475688777386,177.31880095275378,0,-43.03247833251953,40.93333435058594,-35.235652923583984
0.01607116498053074,0.49234136939048767,9.824960708618164,-0.0013931734273288073,-6.659528596096748e-05,-0.006573487280575038,3.979938268661499,2019-08-07 13:29:41:257,-31.03659435470261,177.31583187454706,0,-42.28278350830078,40.78339385986328,-35.68547058105469
0.061571408063173294,0.47318339347839355,9.791434288024902,0.0010042569160299579,-0.0008657387296835611,-0.008171774566259036,3.9899344444274902,2019-08-07 13:29:41:267,-34.00817078433927,177.3136167997016,0,-42.28278350830078,40.78339385986328,-35.68547058105469
0.05917666107416153,0.46839389204978943,9.777066230773926,-0.0061880337239348495,-6.659528596096748e-05,-0.006573487280575038,3.9999454021453857,2019-08-07 13:29:41:277,-36.92103425167843,177.3159669401895,0,-42.28278350830078,40.78339385986328,-35.68547058105469
0.01607116498053074,0.4444463849067688,9.772276878356934,-0.00032764881944403687,0.0028635972516213265,-0.004442438259861242,4.009939908981323,2019-08-07 13:29:41:287,-39.78233605598337,177.3177507437926,0,-42.28278350830078,40.78339385986328,-35.68547058105469
0.03043966367840767,0.4324726462364197,9.791434288024902,0.0015370192362269886,0.0028635972516213265,0.00061880342440835,4.019935131072998,2019-08-07 13:29:41:297,-42.58473405549548,177.3199526462514,0,-42.28278350830078,40.78339385986328,-35.68547058105469
0.0807294100522995,0.4588148891925812,9.829751014709473,-0.0005940299795425521,0.002597216124032102,-0.007639012311080588,4.02993631362915,2019-08-07 13:29:41:307,-45.325086959210914,177.32043904952536,0,-42.28278350830078,40.78339385986328,-35.68547058105469
0.061571408063173294,0.4300778806209564,9.824960708618164,-6.126766340918298e-05,-0.0013985010498805918,-0.005774343897807364,4.0399370193481445,2019-08-07 13:29:41:317,-48.01061873820426,177.3239353600361,0,-42.28278350830078,40.78339385986328,-35.68547058105469
0.042413413524627686,0.46120962500572205,9.820171356201172,-6.126766340918298e-05,-0.0005993576020943366,-0.0031105326219151193,4.04994797706604,2019-08-07 13:29:41:328,-50.64512026662894,177.3237120687466,0,-42.28278350830078,40.78339385986328,-35.68547058105469
0.07354515790939331,0.4396568834781647,9.827356338500977,0.002602543746583887,-0.0021976444326482656,0.0011515656795867992,4.059937238693237,2019-08-07 13:29:41:337,-53.222409663642566,177.3245461902463,0,-42.28278350830078,40.78339385986328,-35.68547058105469
0.06396616250276566,0.46120962500572205,9.812987327575684,0.003135306001762336,-0.003263168943005164,-0.00018034003963255039,4.0699357986450195,2019-08-07 13:29:41:347,-55.748659900430894,177.3224767129603,0,-42.28278350830078,40.78339385986328,-35.68547058105469
-0.012665831483900547,0.4947361350059509,9.824960708618164,0.005266355282550457,0.004728265144745899,0.00967576254266496,4.079937696456909,2019-08-07 13:29:41:357,-51.037819375046915,177.3154156555429,0,-42.28278350830078,40.78339385986328,-35.68547058105469
0.08551890403032303,0.3845776319503784,9.796224594116211,0.0012706381086377639,-0.001132119922291367,0.006479188491445616,4.089937448501587,2019-08-07 13:29:41:367,-53.606423980457464,177.32343093200956,0,-42.28278350830078,40.78339385986328,-35.68547058105469
0.0017026669811457396,0.5258678793907166,9.683670997619629,0.0071310231756750294,0.006060170782692022,0.011274049308200309,4.099945068359375,2019-08-07 13:29:41:377,-56.137499386553685,177.31078777721933,0,-42.28278350830078,40.78339385986328,-35.68547058105469
0.14778240025043488,0.4252883791923523,9.796224594116211,0.0034016871293515603,0.003662740634389001,0.009942143150105534,4.1099348068237305,2019-08-07 13:29:41:387,-58.599518343743135,177.31294695322723,0,-43.03247833251953,40.93333435058594,-35.53553009033203
0.08551890403032303,0.5043151378631592,9.642960548400879,0.003668068256940785,0.006859314685608345,0.017400815762901124,4.119937896728516,2019-08-07 13:29:41:397,-61.0212183401638,177.30475231722113,0,-43.03247833251953,40.93333435058594,-35.53553009033203
0.18849314749240875,0.4372621476650238,9.741145133972168,0.008995691068799602,0.005527408527513573,0.015269766742187328,4.129937410354614,2019-08-07 13:29:41:407,-63.381726520987094,177.30220290470703,0,-43.03247833251953,40.93333435058594,-35.53553009033203
0.20286163687705994,0.4109198749065399,9.609434127807617,0.007663785430853478,0.007392076940786795,0.026191392453196884,4.139934301376343,2019-08-07 13:29:41:417,-65.6940538828558,177.30288502301596,0,-43.03247833251953,40.93333435058594,-35.53553009033203
0.07354515790939331,0.5546048879623413,9.765092849731445,0.0055327364101396825,0.001531691613675204,0.027789680259029535,4.149939060211182,2019-08-07 13:29:41:427,-67.97240303211346,177.28870720361883,0,-43.03247833251953,40.93333435058594,-35.53553009033203
0.018465915694832802,0.3869723975658417,9.829751014709473,-0.0029914601928641544,0.005527408527513573,0.02459310672795884,4.159937143325806,2019-08-07 13:29:41:437,-70.21390532408736,177.29952392740913,0,-43.03247833251953,40.93333435058594,-35.53553009033203
-0.12042956799268723,0.4707886278629303,9.78664493560791,0.0028689248741731116,-0.0005993576020943366,0.025658631238315736,4.169946193695068,2019-08-07 13:29:41:447,-65.22339072817864,177.29683904378095,0,-43.03247833251953,40.93333435058594,-35.53553009033203
-0.04140282794833183,0.4181041419506073,9.949487686157227,-0.004589746958399502,0.0041955028895674495,0.026191392453196884,4.17993688583374,2019-08-07 13:29:41:457,-60.326044963943616,177.30535087151705,0,-43.03247833251953,40.93333435058594,-35.53553009033203
-0.3072200417518616,0.3654196560382843,9.927935600280762,-0.009384607255005544,0.0033963595067997765,0.025658631238315736,4.189935922622681,2019-08-07 13:29:41:467,-55.55687998639504,177.32235386139524,0,-43.03247833251953,40.93333435058594,-35.53553009033203
-0.1946668028831482,0.4300778806209564,9.999777793884277,-6.126766340918298e-05,0.0028635972516213265,0.025658631238315736,4.199937343597412,2019-08-07 13:29:41:477,-50.869655371902496,177.32668715507836,0,-43.03247833251953,40.93333435058594,-35.53553009033203
-0.20424580574035645,0.46599912643432617,9.999777793884277,-0.004323365830810277,0.0012653104860859794,0.022728438314685614,4.2099363803863525,2019-08-07 13:29:41:487,-46.27637477758169,177.32921859477756,0,-43.03247833251953,40.93333435058594,-35.53553009033203
-0.12761381268501282,0.4109198749065399,9.824960708618164,-0.0032578413204533796,0.0031299783792105513,0.021396533196888144,4.219947576522827,2019-08-07 13:29:41:497,-41.767489885527354,177.336566603121,0,-43.03247833251953,40.93333435058594,-35.53553009033203
-0.012665831483900547,0.5713680982589722,9.908777236938477,-0.006987177626851173,0.0007325481658889489,0.02006462599849607,4.22993803024292,2019-08-07 13:29:41:507,-37.33401577847049,177.32775117446602,0,-43.632232666015625,43.632232666015625,-35.53553009033203
0.0017026669811457396,0.40852513909339905,9.726776123046875,0.002602543746583887,-0.0005993576020943366,0.019798245391055496,4.239938020706177,2019-08-07 13:29:41:517,-40.186798332832176,177.33163457869193,0,-43.632232666015625,43.632232666015625,-35.53553009033203
0.12862439453601837,0.5761576294898987,9.700433731079102,0.008729310461359028,0.005793789655102798,0.0166016718599848,4.249937534332275,2019-08-07 13:29:41:527,-42.971121859155026,177.31211879598027,0,-43.632232666015625,43.632232666015625,-35.53553009033203
0.25554612278938293,0.48036763072013855,9.738750457763672,-6.126766340918298e-05,0.0017980727412644285,0.012605954425997783,4.2599358558654785,2019-08-07 13:29:41:537,-45.68264678701564,177.30943385958247,0,-43.632232666015625,43.632232666015625,-35.53553009033203
0.2627303898334503,0.4827623665332794,9.62619686126709,0.007397404303264255,0.0052610273999243486,0.011540429915640882,4.269943475723267,2019-08-07 13:29:41:547,-48.34068214091469,177.30166780253396,0,-43.632232666015625,43.632232666015625,-35.53553009033203
0.2651251256465912,0.4779728949069977,9.75790786743164,-0.0011267922997395827,0.005527408527513573,0.002483471317532922,4.279931545257568,2019-08-07 13:29:41:557,-50.94584123404433,177.30018067639497,0,-43.632232666015625,43.632232666015625,-35.53553009033203
0.37767836451530457,0.41570937633514404,9.712408065795898,0.008995691068799602,0.004728265144745899,-0.0017786268539318336,4.289938688278198,2019-08-07 13:29:41:567,-53.48504339020962,177.30010495761255,0,-43.632232666015625,43.632232666015625,-35.53553009033203
0.2770988941192627,0.4707886278629303,9.714802742004395,0.006331879792907356,0.001531691613675204,-0.004442438259861242,4.299934148788452,2019-08-07 13:29:41:577,-55.983525662372315,177.29506037617594,0,-43.632232666015625,43.632232666015625,-35.53553009033203
0.26033562421798706,0.3654196560382843,9.736355781555176,0.0010042569160299579,0.008723982578732917,0.0008851845519975746,4.309948205947876,2019-08-07 13:29:41:588,-58.43812776540861,177.30560677769355,0,-43.632232666015625,43.632232666015625,-35.53553009033203
0.1405981481075287,0.49234136939048767,9.817776679992676,-0.0019259356825072562,0.002064453868853653,-0.0031105326219151193,4.319934129714966,2019-08-07 13:29:41:597,-60.854113491455465,177.30315731203385,0,-43.632232666015625,43.632232666015625,-35.53553009033203
0.13820339739322662,0.3845776319503784,9.93511962890625,-0.007253558754440398,0.002064453868853653,-0.003909676004682793,4.329936504364014,2019-08-07 13:29:41:607,-63.22225134854334,177.31683298985047,0,-43.632232666015625,43.632232666015625,-35.53553009033203
-0.01745533011853695,0.4181041419506073,9.925540924072266,-0.008851844999827095,-0.0019312633050590406,-0.0012458645987533845,4.339937925338745,2019-08-07 13:29:41:617,-58.35873700245967,177.32722523187556,0,-43.632232666015625,43.632232666015625,-35.53553009033203
0.0017026669811457396,0.42049887776374817,9.954277992248535,-0.004856128085988727,0.0017980727412644285,-0.0041760571322720175,4.349937200546265,2019-08-07 13:29:41:627,-60.79237579718439,177.33502905351475,0,-43.632232666015625,43.632232666015625,-35.53553009033203
0.01607116498053074,0.4588148891925812,9.959067344665527,-0.005388890341167176,0.0009989292934781736,-0.010302823586972834,4.359946250915527,2019-08-07 13:29:41:637,-63.17524049884535,177.33860196102518,0,-42.58266067504883,42.28278350830078,-36.88498306274414
0.03283441439270973,0.4636043906211853,9.872856140136719,-0.006454414851524075,0.001531691613675204,-0.005507962770218141,4.369935512542725,2019-08-07 13:29:41:647,-65.50878382085345,177.3416803707629,0,-42.58266067504883,42.28278350830078,-36.88498306274414
0.1453876495361328,0.52107834815979,9.812987327575684,0.0034016871293515603,0.002597216124032102,-0.007372630663342713,4.3799355030059814,2019-08-07 13:29:41:657,-67.78309001648978,177.3321446818536,0,-42.58266067504883,42.28278350830078,-36.88498306274414
0.07833465933799744,0.48036763072013855,9.729170799255371,0.0007378757884407334,0.003662740634389001,-0.01296663486286508,4.389936923980713,2019-08-07 13:29:41:667,-70.02025896392925,177.32855493776802,0,-42.58266067504883,42.28278350830078,-36.88498306274414
0.152571901679039,0.5019204020500183,9.74593448638916,-0.0019259356825072562,0.005527408527513573,-0.0158968277864952,4.3999552726745605,2019-08-07 13:29:41:678,-72.20502535111545,177.3241041115557,0,-42.58266067504883,42.28278350830078,-36.88498306274414
0.02325541339814663,0.5019204020500183,9.834540367126465,0.005266355282550457,0.003929121761978225,-0.0158968277864952,4.409934759140015,2019-08-07 13:29:41:687,-74.36041681115782,177.31623823518507,0,-42.58266067504883,42.28278350830078,-36.88498306274414
0.05199240893125534,0.5067098736763,9.817776679992676,-0.00032764881944403687,-0.0008657387296835611,-0.017228732904292672,4.419956684112549,2019-08-07 13:29:41:698,-76.46665288182228,177.31100789122502,0,-42.58266067504883,42.28278350830078,-36.88498306274414
0.04480816051363945,0.46839389204978943,9.78664493560791,-0.0008604111071317767,-0.001132119922291367,-0.020958068690541815,4.429934024810791,2019-08-07 13:29:41:707,-78.5314390421537,177.31046746347317,0,-42.58266067504883,42.28278350830078,-36.88498306274414
-0.005481582134962082,0.45402538776397705,9.726776123046875,-0.0056552714687564,0.001531691613675204,-0.019093400277268593,4.439938068389893,2019-08-07 13:29:41:717,-73.36231643926335,177.3139847003271,0,-42.58266067504883,42.28278350830078,-36.88498306274414
-0.010271081700921059,0.4755781292915344,9.765092849731445,-0.007253558754440398,0.002064453868853653,-0.0148313032761383,4.449934482574463,2019-08-07 13:29:41:727,-68.29743417485464,177.31601225570964,0,-42.58266067504883,42.28278350830078,-36.88498306274414
-0.04140282794833183,0.48036763072013855,9.750723838806152,-0.002192316810096481,-0.0005993576020943366,-0.013233016510602954,4.459948778152466,2019-08-07 13:29:41:738,-63.336014147566246,177.314517035566,0,-42.58266067504883,42.28278350830078,-36.88498306274414
-0.1156400665640831,0.4827623665332794,9.793828964233398,-0.005122509213577951,-0.004595074841025611,-0.00950367968405651,4.469937562942505,2019-08-07 13:29:41:747,-58.480246333049884,177.3146603822686,0,-42.58266067504883,42.28278350830078,-36.88498306274414
-0.11803481727838516,0.5019204020500183,9.77467155456543,-0.007519939882029623,-0.003263168943005164,-0.014032159373221978,4.4799370765686035,2019-08-07 13:29:41:757,-53.72264615213347,177.3137993275957,0,-43.78217315673828,40.78339385986328,-36.88498306274414
-0.12282431870698929,0.4492358863353729,9.798619270324707,-0.007519939882029623,0.00019978586194656375,-0.008704536821437486,4.489936590194702,2019-08-07 13:29:41:767,-49.06266854215456,177.31924570783033,0,-43.78217315673828,40.78339385986328,-36.88498306274414
-0.12521906197071075,0.42049887776374817,9.784250259399414,-0.004323365830810277,-0.0008657387296835611,-0.00604072502539659,4.499944448471069,2019-08-07 13:29:41:777,-44.49559333191768,177.32607240325373,0,-43.78217315673828,40.78339385986328,-36.88498306274414
-0.0701398253440857,0.48755186796188354,9.846513748168945,-0.004589746958399502,0.00019978586194656375,-0.003909676004682793,4.5099687576293945,2019-08-07 13:29:41:788,-40.013956497850685,177.3254404466414,0,-43.78217315673828,40.78339385986328,-36.88498306274414
0.01607116498053074,0.4755781292915344,9.73396110534668,-0.0016595545549180318,-0.0016648821774698163,-0.0015122457263426093,4.5199363231658936,2019-08-07 13:29:41:797,-42.81085361944031,177.32391823392766,0,-43.78217315673828,40.78339385986328,-36.88498306274414
0.04480816051363945,0.3318931460380554,9.820171356201172,-0.007253558754440398,-0.005127837096204061,0.0032826149603749208,4.529937744140625,2019-08-07 13:29:41:807,-45.54652823733478,177.3427994428156,0,-43.78217315673828,40.78339385986328,-36.88498306274414
0.04480816051363945,0.4228936433792114,9.769882202148438,-0.0013931734273288073,0.0004661670057904337,0.004348139470731819,4.5399370193481445,2019-08-07 13:29:41:817,-48.230603865450725,177.34715514594896,0,-43.78217315673828,40.78339385986328,-36.88498306274414
0.02325541339814663,0.3845776319503784,9.81538200378418,-0.004589746958399502,-0.00246402556023749,0.008077475256980963,4.549943208694458,2019-08-07 13:29:41:827,-50.861892392074786,177.35791547601315,0,-43.78217315673828,40.78339385986328,-36.88498306274414
