ACCELEROMETER X (m/s²),ACCELEROMETER Y (m/s²),ACCELEROMETER Z (m/s²),GYROSCOPE X (rad/s),GYROSCOPE Y (rad/s),GYROSCOPE Z (rad/s),Time since start in ms ,YYYY-MO-DD HH-MI-SS_SSS,Pitch (Deg),Roll (Deg),Heading (Deg),MagX,MagY,MagZ
0.21749356389045715,0.021318061277270317,9.77807903289795,-0.0004235460253761578,-0.008034321644348672,-0.00030660471036448813,0.0,2019-07-26 14:31:35:733,-3.5745156308361863,3.5975016912846955,0,-32.38681411743164,39.88376235961914,-17.39291763305664
0.22467781603336334,0.02371281199157238,9.732579231262207,-0.002021832888439377,-0.0016411741920957937,-0.0019048915084091261,0.010001182556152344,2019-07-26 14:31:35:743,-7.0756547843408715,7.123895102995558,0,-32.38681411743164,39.88376235961914,-17.39291763305664
0.23904630541801453,0.11950279772281647,9.732579231262207,0.0027730276682409903,-0.0011084119369173448,0.003689112431038915,0.020006418228149414,2019-07-26 14:31:35:753,-10.505379294622923,10.565789761070283,0,-32.38681411743164,39.88376235961914,-17.39291763305664
0.265388548374176,0.10513430088758469,9.72060489654541,0.0014411220302948675,0.001289018341422839,-0.0048350839118905965,0.03000020980834961,2019-07-26 14:31:35:763,-13.86471742524599,13.941271983819707,0,-32.38681411743164,39.88376235961914,-17.39291763305664
0.22946731746196747,-0.0026294351555407047,9.756525993347168,-0.0004235460253761578,-0.0008420308093281202,0.002090825535466405,0.03999733924865723,2019-07-26 14:31:35:773,-17.16000417155709,10.062993126673538,0,-32.38681411743164,39.88376235961914,-17.39291763305664
0.24383580684661865,0.07400255650281906,9.811605453491211,0.0009083597100978372,-0.004571366985688751,0.0012916821526987312,0.05000162124633789,2019-07-26 14:31:35:783,-20.385763997363007,13.452580271118329,0,-32.38681411743164,39.88376235961914,-17.39291763305664
0.1959408074617386,0.06442355364561081,9.794842720031738,0.004371314693850663,0.001289018341422839,-4.022355432963424e-05,0.06000256538391113,2019-07-26 14:31:35:793,-23.555852170943737,16.773537032426116,0,-32.38681411743164,39.88376235961914,-17.39291763305664
0.23665155470371246,0.0069495635107159615,9.811605453491211,0.0009083597100978372,-0.0011084119369173448,0.003689112431038915,0.07000422477722168,2019-07-26 14:31:35:803,-26.656479036476334,20.03674451213009,0,-32.38681411743164,39.88376235961914,-17.39291763305664
0.22228306531906128,0.06681830435991287,9.849921226501465,-0.0017554517608501525,-0.0035058422152575287,-0.0027040348911768,0.0800015926361084,2019-07-26 14:31:35:813,-29.69552597211484,23.229221688394215,0,-32.38681411743164,39.88376235961914,-17.39291763305664
0.1815723180770874,-0.016997933387756348,9.859500885009766,-0.006017549802277746,-0.002173936447274243,-0.0040359407891972475,0.08999919891357422,2019-07-26 14:31:35:823,-32.679294315292736,19.169990866252668,0,-33.43638610839844,38.83418655395508,-19.042245864868164
0.21749356389045715,0.05963405594229698,9.792448043823242,0.001973884285473317,-0.0016411741920957937,0.002090825535466405,0.1000051498413086,2019-07-26 14:31:35:833,-35.59933937670891,22.37850374484487,0,-33.43638610839844,38.83418655395508,-19.042245864868164
0.22228306531906128,0.028502311557531357,9.802026748657227,0.0009083597100978372,-0.0037722233428467535,-0.0011057481256414525,0.11000347137451172,2019-07-26 14:31:35:843,-38.45925307892315,25.527091631404804,0,-33.43638610839844,38.83418655395508,-19.042245864868164
0.21270406246185303,0.09555530548095703,9.763710975646973,0.0003755974224100973,-0.007501559389170223,0.003156350175860466,0.12000203132629395,2019-07-26 14:31:35:853,-41.2608964955098,28.60512446429633,0,-33.43638610839844,38.83418655395508,-19.042245864868164
0.2007303088903427,0.07400255650281906,9.825974464416504,0.005170458076618337,-0.004038604470435978,0.003689112431038915,0.1300063133239746,2019-07-26 14:31:35:863,-44.01000379723099,31.62148743302224,0,-33.43638610839844,38.83418655395508,-19.042245864868164
0.2150988131761551,0.05723930895328522,9.734973907470703,0.0035721710510086637,-0.004304985598025202,0.003156350175860466,0.1399998664855957,2019-07-26 14:31:35:873,-46.70207261301615,34.58031557740099,0,-33.43638610839844,38.83418655395508,-19.042245864868164
0.23665155470371246,0.047660309821367264,9.782868385314941,0.0027730276682409903,-0.002173936447274243,-0.0037695596616080236,0.15000104904174805,2019-07-26 14:31:35:883,-49.339095596232525,37.481569387637435,0,-33.43638610839844,38.83418655395508,-19.042245864868164
0.2270725667476654,0.07879205793142319,9.7373685836792,-0.000689927185474673,-0.004304985598025202,0.0012916821526987312,0.1600043773651123,2019-07-26 14:31:35:893,-51.923178064617254,40.32305329652017,0,-33.43638610839844,38.83418655395508,-19.042245864868164
0.19115132093429565,0.03568655997514725,9.852315902709961,-0.005218406419510072,-0.0035058422152575287,0.0012916821526987312,0.17000031471252441,2019-07-26 14:31:35:903,-54.460516897404716,43.11537050898706,0,-33.43638610839844,38.83418655395508,-19.042245864868164
0.2150988131761551,0.02371281199157238,9.905000686645508,-0.0017554517608501525,-0.005104129240867201,-0.0029704160187660244,0.18000268936157227,2019-07-26 14:31:35:913,-56.94355891469455,45.851305672159526,0,-33.43638610839844,38.83418655395508,-19.042245864868164
0.15762482583522797,0.05963405594229698,9.849921226501465,-0.00015716488153228781,-0.005370510368456426,-0.0024376537635875752,0.1900029182434082,2019-07-26 14:31:35:923,-59.38333601396024,48.527430214085115,0,-33.43638610839844,38.83418655395508,-19.042245864868164
0.1887565702199936,0.04287080839276314,9.739763259887695,0.001174740902705643,-0.003239461087668304,-0.0040359407891972475,0.20000672340393066,2019-07-26 14:31:35:933,-61.77164458899959,51.15117788255623,0,-33.43638610839844,38.83418655395508,-19.042245864868164
0.1815723180770874,0.06442355364561081,9.785263061523438,-0.0036201196539747244,-0.004571366985688751,-0.0059006089423961445,0.20999932289123535,2019-07-26 14:31:35:943,-64.11238596471284,53.722641220249784,0,-33.13650894165039,38.53430938720703,-19.64200210571289
0.265388548374176,0.0069495635107159615,9.768500328063965,-0.002288214016028602,0.00075625608624439,-0.005634227814806921,0.2200005054473877,2019-07-26 14:31:35:953,-66.3994385962964,56.24865814302025,0,-33.13650894165039,38.53430938720703,-19.64200210571289
0.21749356389045715,0.07639730721712112,9.775684356689453,-0.00015716488153228781,-0.004571366985688751,-0.007498895707931493,0.23000526428222656,2019-07-26 14:31:35:963,-68.64339117670309,58.71481808284552,0,-33.13650894165039,38.53430938720703,-19.64200210571289
0.23665155470371246,0.05005505681037903,9.782868385314941,-0.001489070633260928,0.002620923979368962,-0.008830800825728966,0.24000310897827148,2019-07-26 14:31:35:973,-70.84427992341648,61.135494507772336,0,-33.13650894165039,38.53430938720703,-19.64200210571289
0.23904630541801453,0.07639730721712112,9.77807903289795,0.0003755974224100973,0.0010226372138336143,-0.006699752325163819,0.2499988079071045,2019-07-26 14:31:35:983,-72.99995947964375,63.503620816765306,0,-33.13650894165039,38.53430938720703,-19.64200210571289
0.2677833139896393,0.05723930895328522,9.845131874084473,0.0017075031578840923,-0.0064360348788133235,-0.007765276835520717,0.26000308990478516,2019-07-26 14:31:35:993,-75.10518419397006,65.82592698450699,0,-33.13650894165039,38.53430938720703,-19.64200210571289
0.2079145610332489,0.021318061277270317,9.739763259887695,-0.0004235460253761578,0.0004898749261458747,-0.0048350839118905965,0.27004194259643555,2019-07-26 14:31:36:003,-77.17889851691957,68.1071390524169,0,-33.13650894165039,38.53430938720703,-19.64200210571289
0.2749675512313843,0.06681830435991287,9.833158493041992,-0.0030873573987962753,0.0010226372138336143,-0.007765276835520717,0.2800009250640869,2019-07-26 14:31:36:013,-79.20385716862124,70.33893609898988,0,-33.13650894165039,38.53430938720703,-19.64200210571289
0.265388548374176,0.05005505681037903,9.739763259887695,-0.000689927185474673,-0.002706698832489855,-0.006433371197574595,0.28999996185302734,2019-07-26 14:31:36:023,-81.18704424116027,72.5266556405537,0,-33.13650894165039,38.53430938720703,-19.64200210571289
0.22946731746196747,0.05723930895328522,9.725394248962402,0.001973884285473317,0.0036864487498001856,-0.0029704160187660244,0.300001859664917,2019-07-26 14:31:36:033,-83.13834121830688,74.66826971668418,0,-33.13650894165039,38.53430938720703,-19.64200210571289
0.2725728154182434,0.06681830435991287,9.828369140625,-0.002820976271207051,-0.002706698832489855,-0.007232514580342268,0.3100013732910156,2019-07-26 14:31:36:043,-85.04228281757682,76.76869781658452,0,-33.13650894165039,38.53430938720703,-19.64200210571289
0.23665155470371246,0.0907658040523529,9.79005241394043,0.0006419785825086126,-0.003239461087668304,-0.005367846167069046,0.31999969482421875,2019-07-26 14:31:36:053,-86.9119240851394,78.82233971080247,0,-33.13650894165039,38.53430938720703,-19.64200210571289
0.23186205327510834,0.06921305507421494,9.883447647094727,-0.007615837087961743,-0.0005756496817388956,-0.008830800825728966,0.3300004005432129,2019-07-26 14:31:36:063,-88.74648452512068,80.84214486933051,0,-33.13650894165039,38.53430938720703,-19.64200210571289
0.23665155470371246,0.018923312425613403,9.785263061523438,0.0014411220302948675,-0.002173936447274243,-0.005367846167069046,0.34000110626220703,2019-07-26 14:31:36:073,-90.54262610808802,82.82227669113848,0,-33.88620376586914,39.58388137817383,-19.791940689086914
0.23186205327510834,0.12189754843711853,9.811605453491211,-0.0004235460253761578,-0.002173936447274243,-0.008031657963109942,0.35000109672546387,2019-07-26 14:31:36:083,-92.30347836481147,84.75183306935544,0,-33.88620376586914,39.58388137817383,-19.791940689086914
0.2605990469455719,0.05005505681037903,9.730184555053711,0.00010921627043890474,0.0004898749261458747,-0.007232514580342268,0.3600029945373535,2019-07-26 14:31:36:093,-94.02700071987303,86.65084018191618,0,-33.88620376586914,39.58388137817383,-19.791940689086914
0.26299381256103516,0.08118680119514465,9.780473709106445,-0.001489070633260928,-0.0013747930645065694,-0.00616699006998537,0.370006799697876,2019-07-26 14:31:36:103,-95.71488258662347,88.50914788746375,0,-33.88620376586914,39.58388137817383,-19.791940689086914
0.27017804980278015,0.004554813727736473,9.766105651855469,0.0009083597100978372,-0.007501559389170223,-0.003503178534018799,0.3800044059753418,2019-07-26 14:31:36:113,-97.36468030500703,90.33792056556373,0,-33.88620376586914,39.58388137817383,-19.791940689086914
0.2342568039894104,0.028502311557531357,9.806816101074219,0.0017075031578840923,-0.005370510368456426,-0.005101465039479822,0.3900001049041748,2019-07-26 14:31:36:123,-98.98700501823548,92.12687335179025,0,-33.88620376586914,39.58388137817383,-19.791940689086914
0.21988831460475922,0.07639730721712112,9.794842720031738,-0.0033537385263855,-0.005104129240867201,-0.0029704160187660244,0.39999818801879883,2019-07-26 14:31:36:133,-100.5786787116934,93.87728097153969,0,-33.88620376586914,39.58388137817383,-19.791940689086914
0.2558095455169678,0.040476057678461075,9.847526550292969,-0.001489070633260928,0.004751973000082759,-0.0040359407891972475,0.4100046157836914,2019-07-26 14:31:36:143,-102.14001428213932,95.59586199719492,0,-33.88620376586914,39.58388137817383,-19.791940689086914
0.1959408074617386,0.03089706040918827,9.809210777282715,0.0017075031578840923,-0.004304985598025202,-4.022355432963424e-05,0.42000317573547363,2019-07-26 14:31:36:153,-103.67191026793859,97.27937674065792,0,-33.88620376586914,39.58388137817383,-19.791940689086914
0.22946731746196747,0.033291809260845184,9.74934196472168,-0.0036201196539747244,-0.002973079960079079,0.002090825535466405,0.43000364303588867,2019-07-26 14:31:36:163,-105.1698365138316,98.9319089643856,0,-33.88620376586914,39.58388137817383,-19.791940689086914
0.23665155470371246,0.08837105333805084,9.797237396240234,-0.0012226895056717034,-0.0037722233428467535,0.003156350175860466,0.4400005340576172,2019-07-26 14:31:36:173,-106.63664821770863,100.54362123510026,0,-33.88620376586914,39.58388137817383,-19.791940689086914
0.2534148097038269,0.05963405594229698,9.833158493041992,-0.0038865007815639487,-0.0005756496817388956,0.000226157593577897,0.45000219345092773,2019-07-26 14:31:36:183,-108.0740665956399,102.12798201657168,0,-33.88620376586914,39.58388137817383,-19.791940689086914
0.22946731746196747,0.01652856171131134,9.804421424865723,0.005170458076618337,0.00075625608624439,0.0028899690482712416,0.4600074291229248,2019-07-26 14:31:36:193,-109.48619546758076,103.68058583703932,0,-33.43638610839844,39.733821868896484,-19.042245864868164
0.2677833139896393,0.08597630262374878,9.780473709106445,0.001174740902705643,-0.0037722233428467535,0.0007589198975202821,0.4700028896331787,2019-07-26 14:31:36:203,-110.86298779839086,105.19624176993008,0,-33.43638610839844,39.733821868896484,-19.042245864868164
0.23186205327510834,0.07879205793142319,9.74934196472168,-0.000689927185474673,-0.0013747930645065694,0.0007589198975202821,0.48000097274780273,2019-07-26 14:31:36:213,-112.21770884122056,106.68344341489885,0,-33.43638610839844,39.733821868896484,-19.042245864868164
0.21749356389045715,0.07879205793142319,9.794842720031738,-0.0009563083130638975,-0.006968797133991773,0.0023572067930927925,0.49000000953674316,2019-07-26 14:31:36:223,-113.54400130369658,108.1410936403901,0,-33.43638610839844,39.733821868896484,-19.042245864868164
0.2270725667476654,0.03568655997514725,9.775684356689453,-0.00015716488153228781,0.00022349378230200473,-0.0027040348911768,0.5000004768371582,2019-07-26 14:31:36:233,-114.8466338850808,109.57417682356453,0,-33.43638610839844,39.733821868896484,-19.042245864868164
0.21030931174755096,0.054844558238983154,9.823579788208008,0.0006419785825086126,-0.0037722233428467535,0.0004925387374217668,0.5100009441375732,2019-07-26 14:31:36:243,-116.12305428273581,110.97593527676796,0,-33.43638610839844,39.733821868896484,-19.042245864868164
0.19833555817604065,0.047660309821367264,9.814000129699707,0.002240265413062541,-0.0024403177049006305,0.0018244444078771805,0.5200026035308838,2019-07-26 14:31:36:253,-117.37606756127822,112.34959352254401,0,-33.43638610839844,39.733821868896484,-19.042245864868164
0.22946731746196747,0.014133812859654427,9.8187894821167,-0.001489070633260928,-4.288736560552649e-05,0.0050210183290593634,0.5300023555755615,2019-07-26 14:31:36:263,-118.60174669841881,113.70178823719266,0,-33.43638610839844,39.733821868896484,-19.042245864868164
0.2007303088903427,0.054844558238983154,9.861895561218262,-0.000689927185474673,-0.005370510368456426,-0.0008393669980522279,0.540001630783081,2019-07-26 14:31:36:273,-119.80337555351063,115.02176716952921,0,-33.43638610839844,39.733821868896484,-19.042245864868164
0.1887565702199936,0.033291809260845184,9.739763259887695,0.001174740902705643,0.0023545428517797373,0.0023572067930927925,0.5500023365020752,2019-07-26 14:31:36:283,-120.98642514880079,116.31675528717129,0,-33.43638610839844,39.733821868896484,-19.042245864868164
0.20312505960464478,0.03089706040918827,9.833158493041992,0.0009083597100978372,0.003153686234547411,0.0012916821526987312,0.5599992275238037,2019-07-26 14:31:36:293,-122.14479889826514,117.58630969357365,0,-33.43638610839844,39.733821868896484,-19.042245864868164
0.1959408074617386,0.03808131068944931,9.821184158325195,0.0006419785825086126,-0.004571366985688751,-0.0005729858704630034,0.5700039863586426,2019-07-26 14:31:36:303,-123.27647594416207,118.8297796312331,0,-33.43638610839844,39.733821868896484,-19.042245864868164
0.2270725667476654,0.054844558238983154,9.74934196472168,0.00010921627043890474,-0.0003092685216403804,-4.022355432963424e-05,0.580000638961792,2019-07-26 14:31:36:313,-124.38408805852332,120.04667649709363,0,-33.43638610839844,39.733821868896484,-19.042245864868164
0.21749356389045715,0.0907658040523529,9.758920669555664,0.003838552178597889,-0.0024403177049006305,0.0015580632802879558,0.590001106262207,2019-07-26 14:31:36:323,-125.46950161563008,121.23292989611794,0,-33.13650894165039,39.733821868896484,-18.742368698120117
0.2414410561323166,0.06681830435991287,9.816394805908203,0.0014411220302948675,-0.003239461087668304,0.004221874686217364,0.6000032424926758,2019-07-26 14:31:36:333,-126.53011333233789,122.39966203153674,0,-33.13650894165039,39.733821868896484,-18.742368698120117
0.23665155470371246,0.07639730721712112,9.792448043823242,0.0027730276682409903,-0.006702416006402549,-0.001372129253230677,0.6100001335144043,2019-07-26 14:31:36:343,-127.56806118240084,123.54117236630853,0,-33.13650894165039,39.733821868896484,-18.742368698120117
0.21749356389045715,0.05005505681037903,9.74934196472168,0.0033057899234194394,-0.0019075553196850185,-0.0011057481256414525,0.6200032234191895,2019-07-26 14:31:36:353,-128.5900690763059,124.66260884249087,0,-33.13650894165039,39.733821868896484,-18.742368698120117
0.2270725667476654,0.028502311557531357,9.816394805908203,-0.00015716488153228781,-0.0037722233428467535,0.002623587920682017,0.6300058364868164,2019-07-26 14:31:36:363,-129.58964648243358,125.76611773222923,0,-33.13650894165039,39.733821868896484,-18.742368698120117
0.18396706879138947,0.05005505681037903,9.794842720031738,0.0014411220302948675,-0.004304985598025202,0.003156350175860466,0.6399998664855957,2019-07-26 14:31:36:373,-130.57391765704318,126.84413069592044,0,-33.13650894165039,39.733821868896484,-18.742368698120117
0.23186205327510834,0.09316055476665497,9.751736640930176,0.0006419785825086126,-0.006702416006402549,0.000226157593577897,0.6500236988067627,2019-07-26 14:31:36:383,-131.53142622110803,127.89593989395495,0,-33.13650894165039,39.733821868896484,-18.742368698120117
0.22467781603336334,0.07400255650281906,9.79005241394043,0.00010921627043890474,-0.002173936447274243,-0.00030660471036448813,0.6600043773651123,2019-07-26 14:31:36:393,-132.47328570049183,128.9292981314351,0,-33.13650894165039,39.733821868896484,-18.742368698120117
0.1959408074617386,0.07879205793142319,9.74934196472168,0.0049040769490291125,0.002088161724190513,0.002623587920682017,0.669999361038208,2019-07-26 14:31:36:403,-133.401964559314,129.93869907903533,0,-33.13650894165039,39.733821868896484,-18.742368698120117
0.22467781603336334,0.08837105333805084,9.794842720031738,-0.002288214016028602,-0.0005756496817388956,-0.0016385103808199016,0.6800007820129395,2019-07-26 14:31:36:413,-134.30732115814385,130.9308717072214,0,-33.13650894165039,39.733821868896484,-18.742368698120117
0.21270406246185303,0.05723930895328522,9.821184158325195,0.0006419785825086126,-4.288736560552649e-05,-0.003503178534018799,0.6900031566619873,2019-07-26 14:31:36:423,-135.1963366542762,131.90521522802138,0,-33.13650894165039,39.733821868896484,-18.742368698120117
0.2677833139896393,0.06442355364561081,9.804421424865723,-0.0004235460253761578,0.00075625608624439,-0.0024376537635875752,0.6999990940093994,2019-07-26 14:31:36:433,-136.06154433855156,132.8598190962674,0,-33.13650894165039,39.733821868896484,-18.742368698120117
0.25102004408836365,0.03089706040918827,9.809210777282715,0.0009083597100978372,-0.0008420308093281202,-4.022355432963424e-05,0.7100038528442383,2019-07-26 14:31:36:443,-136.910522572863,133.79850303492034,0,-32.68669128417969,38.38437271118164,-18.292551040649414
0.23665155470371246,0.071607805788517,9.780473709106445,-0.0004235460253761578,-0.0035058422152575287,-0.001372129253230677,0.7200014591217041,2019-07-26 14:31:36:453,-137.74262252606135,134.7143810588113,0,-32.68669128417969,38.38437271118164,-18.292551040649414
0.2270725667476654,0.071607805788517,9.742157936096191,0.004104933306187114,-0.0003092685216403804,0.0012916821526987312,0.729999303817749,2019-07-26 14:31:36:463,-138.56089201741227,135.60936634564285,0,-32.68669128417969,38.38437271118164,-18.292551040649414
0.23186205327510834,0.03568655997514725,9.821184158325195,-0.002554595143617826,-0.004038604470435978,0.000226157593577897,0.7400007247924805,2019-07-26 14:31:36:473,-139.36035802029022,136.49444980807613,0,-32.68669128417969,38.38437271118164,-18.292551040649414
0.2605990469455719,0.06681830435991287,9.768500328063965,-0.0030873573987962753,-0.003239461087668304,-0.0024376537635875752,0.7499997615814209,2019-07-26 14:31:36:483,-140.1407691821228,137.35845604481176,0,-32.68669128417969,38.38437271118164,-18.292551040649414
0.2079145610332489,0.054844558238983154,9.792448043823242,-0.0030873573987962753,-0.004038604470435978,0.000226157593577897,0.760002851486206,2019-07-26 14:31:36:493,-140.9113588495132,138.2066031448471,0,-32.68669128417969,38.38437271118164,-18.292551040649414
0.21030931174755096,0.071607805788517,9.785263061523438,-0.005751168674688521,0.0004898749261458747,-0.001372129253230677,0.7700116634368896,2019-07-26 14:31:36:503,-141.66878223255856,139.03731762809838,0,-32.68669128417969,38.38437271118164,-18.292551040649414
0.23904630541801453,0.08358155190944672,9.756525993347168,0.001973884285473317,-0.0008420308093281202,0.004488256073880914,0.7800018787384033,2019-07-26 14:31:36:513,-142.40686359439448,139.84564751405162,0,-32.68669128417969,38.38437271118164,-18.292551040649414
0.1887565702199936,0.054844558238983154,9.701447486877441,0.0014411220302948675,-0.002973079960079079,-0.0019048915084091261,0.7899980545043945,2019-07-26 14:31:36:523,-143.13476484443066,140.64144762455382,0,-32.68669128417969,38.38437271118164,-18.292551040649414
0.21988831460475922,0.05723930895328522,9.79005241394043,-0.0004235460253761578,0.00022349378230200473,0.000226157593577897,0.8000037670135498,2019-07-26 14:31:36:533,-143.84646173571497,141.42215690239024,0,-32.68669128417969,38.38437271118164,-18.292551040649414
0.22467781603336334,0.040476057678461075,9.773289680480957,0.0003755974224100973,-0.0013747930645065694,-4.022355432963424e-05,0.8099992275238037,2019-07-26 14:31:36:543,-144.54242213269472,142.1887571828783,0,-32.68669128417969,38.38437271118164,-18.292551040649414
0.24383580684661865,0.07879205793142319,9.814000129699707,-0.00015716488153228781,-0.0011084119369173448,-0.0027040348911768,0.8200013637542725,2019-07-26 14:31:36:553,-145.22248595451012,142.935870478497,0,-32.68669128417969,38.38437271118164,-18.292551040649414
0.24623055756092072,0.018923312425613403,9.754131317138672,0.0033057899234194394,-0.0061696537512241,0.003156350175860466,0.83003830909729,2019-07-26 14:31:36:563,-145.88563815461663,143.6730669061753,0,-32.68669128417969,38.38437271118164,-18.292551040649414
0.21030931174755096,0.040476057678461075,9.761316299438477,-0.0017554517608501525,-0.0019075553196850185,0.0004925387374217668,0.8399982452392578,2019-07-26 14:31:36:573,-146.5421734550299,144.39583570185812,0,-34.336021423339844,39.43394470214844,-18.742368698120117
0.20312505960464478,0.04287080839276314,9.766105651855469,-0.0030873573987962753,-0.0008420308093281202,0.0010253010251095067,0.8500018119812012,2019-07-26 14:31:36:583,-147.1870265758775,145.104622897049,0,-34.336021423339844,39.43394470214844,-18.742368698120117
0.21988831460475922,0.04287080839276314,9.823579788208008,-0.0012226895056717034,-0.0024403177049006305,0.0028899690482712416,0.8600056171417236,2019-07-26 14:31:36:593,-147.8162697102404,145.7982164125741,0,-34.336021423339844,39.43394470214844,-18.742368698120117
0.18636181950569153,0.06681830435991287,9.811605453491211,0.00010921627043890474,-0.002173936447274243,0.0018244444078771805,0.8700025081634521,2019-07-26 14:31:36:603,-148.43696110769613,146.4743870656015,0,-34.336021423339844,39.43394470214844,-18.742368698120117
0.18396706879138947,0.08597630262374878,9.821184158325195,0.0017075031578840923,-0.002173936447274243,0.000226157593577897,0.880000114440918,2019-07-26 14:31:36:613,-149.04553912571706,147.1339095109816,0,-34.336021423339844,39.43394470214844,-18.742368698120117
0.1887565702199936,0.03808131068944931,9.758920669555664,-0.000689927185474673,-0.002706698832489855,0.002623587920682017,0.8900027275085449,2019-07-26 14:31:36:623,-149.64094665793576,147.7871472401221,0,-34.336021423339844,39.43394470214844,-18.742368698120117
0.16480906307697296,0.07639730721712112,9.835553169250488,-0.002021832888439377,0.00022349378230200473,0.0007589198975202821,0.9000034332275391,2019-07-26 14:31:36:633,-150.22905353201458,148.42363895251884,0,-34.336021423339844,39.43394470214844,-18.742368698120117
0.19833555817604065,0.05963405594229698,9.79005241394043,-0.000689927185474673,0.001289018341422839,-0.0024376537635875752,0.9100015163421631,2019-07-26 14:31:36:643,-150.8019843062904,149.04857347365078,0,-34.336021423339844,39.43394470214844,-18.742368698120117
0.21030931174755096,0.0452655591070652,9.802026748657227,0.00010921627043890474,0.001289018341422839,-0.004302321916786473,0.9200000762939453,2019-07-26 14:31:36:653,-151.36208565249365,149.66224891107265,0,-34.336021423339844,39.43394470214844,-18.742368698120117
0.21988831460475922,-0.0074189347214996815,9.814000129699707,-0.004419263036742399,-0.005370510368456426,0.0018244444078771805,0.9300014972686768,2019-07-26 14:31:36:663,-151.90615737419293,143.07235195518533,0,-34.336021423339844,39.43394470214844,-18.742368698120117
0.1887565702199936,0.028502311557531357,9.84034252166748,0.0009083597100978372,-0.002706698832489855,-0.0027040348911768,0.94000244140625,2019-07-26 14:31:36:673,-152.44453612045965,143.80707571797313,0,-34.336021423339844,39.43394470214844,-18.742368698120117
0.23904630541801453,0.0452655591070652,9.785263061523438,0.005170458076618337,-0.005903272623634875,0.0004925387374217668,0.9499990940093994,2019-07-26 14:31:36:683,-152.9643435753182,144.52273112759525,0,-34.336021423339844,39.43394470214844,-18.742368698120117
0.23186205327510834,0.021318061277270317,9.756525993347168,-0.0004235460253761578,-0.0013747930645065694,-0.0032367971463552496,0.9600059986114502,2019-07-26 14:31:36:693,-153.4770568771843,145.23001066208045,0,-34.336021423339844,40.03369903564453,-18.44249153137207
0.2414410561323166,0.00934431329369545,9.775684356689453,0.003039408795830215,-0.002973079960079079,-0.002171272635998351,0.9699993133544922,2019-07-26 14:31:36:703,-153.97755126354468,145.92260961635273,0,-34.336021423339844,40.03369903564453,-18.44249153137207
0.23904630541801453,0.08597630262374878,9.768500328063965,0.0003755974224100973,-0.002706698832489855,0.0007589198975202821,0.9800028800964355,2019-07-26 14:31:36:713,-154.46844362708782,146.59386107096526,0,-34.336021423339844,40.03369903564453,-18.44249153137207
0.24623055756092072,0.02371281199157238,9.809210777282715,-0.002820976271207051,-0.0005756496817388956,-0.0037695596616080236,0.9900012016296387,2019-07-26 14:31:36:723,-154.94999287786337,147.26079742404605,0,-34.336021423339844,40.03369903564453,-18.44249153137207
0.2007303088903427,0.033291809260845184,9.825974464416504,-0.002554595143617826,-0.004038604470435978,0.003689112431038915,1.0000035762786865,2019-07-26 14:31:36:733,-155.4253186844614,147.91313370654242,0,-34.336021423339844,40.03369903564453,-18.44249153137207
0.19115132093429565,0.040476057678461075,9.821184158325195,0.002240265413062541,-0.004571366985688751,-0.0032367971463552496,1.0100023746490479,2019-07-26 14:31:36:743,-155.89194547506807,148.54889064106933,0,-34.336021423339844,40.03369903564453,-18.44249153137207
0.21030931174755096,0.05723930895328522,9.86907958984375,-0.00015716488153228781,-0.0008420308093281202,-4.022355432963424e-05,1.0199995040893555,2019-07-26 14:31:36:753,-156.34921822618696,149.17135497194053,0,-34.336021423339844,40.03369903564453,-18.44249153137207
0.21270406246185303,0.06921305507421494,9.785263061523438,0.0035721710510086637,-0.004571366985688751,0.000226157593577897,1.0300006866455078,2019-07-26 14:31:36:763,-156.79476168598188,149.77781671905404,0,-34.336021423339844,40.03369903564453,-18.44249153137207
0.24623055756092072,0.047660309821367264,9.742157936096191,-0.002288214016028602,-0.004837748113277977,0.006086542839416261,1.0399994850158691,2019-07-26 14:31:36:773,-157.22719383024605,150.3779390881868,0,-34.336021423339844,40.03369903564453,-18.44249153137207
0.20312505960464478,0.06442355364561081,9.804421424865723,0.0003755974224100973,-0.0019075553196850185,-0.001372129253230677,1.050004482269287,2019-07-26 14:31:36:783,-157.65784098931707,150.96263975249846,0,-34.336021423339844,40.03369903564453,-18.44249153137207
0.22946731746196747,0.054844558238983154,9.825974464416504,0.003838552178597889,-0.0019075553196850185,-0.00030660471036448813,1.0600004196166992,2019-07-26 14:31:36:793,-158.07685765563107,151.53483652698432,0,-34.336021423339844,40.03369903564453,-18.44249153137207
0.24383580684661865,0.047660309821367264,9.85710620880127,-0.0012226895056717034,-0.0064360348788133235,-0.002171272635998351,1.0700178146362305,2019-07-26 14:31:36:803,-158.48335959099495,152.0992869308163,0,-34.336021423339844,40.03369903564453,-18.44249153137207
0.21030931174755096,0.05723930895328522,9.787657737731934,0.005436839204207561,-0.004837748113277977,-0.0032367971463552496,1.0800037384033203,2019-07-26 14:31:36:813,-158.88636111029766,152.64755134636502,0,-34.336021423339844,40.03369903564453,-18.44249153137207
0.23904630541801453,0.07400255650281906,9.706236839294434,0.003838552178597889,-0.0037722233428467535,0.0012916821526987312,1.0900037288665771,2019-07-26 14:31:36:823,-159.27829975611238,153.1837084279485,0,-32.086936950683594,39.88376235961914,-18.292551040649414
0.24623055756092072,0.08597630262374878,9.722999572753906,-0.00015716488153228781,-0.004304985598025202,-0.0011057481256414525,1.1000044345855713,2019-07-26 14:31:36:833,-159.6613027552637,153.7099899389515,0,-32.086936950683594,39.88376235961914,-18.292551040649414
0.2007303088903427,0.11231855303049088,9.802026748657227,0.002240265413062541,-0.005903272623634875,-0.0011057481256414525,1.11000394821167,2019-07-26 14:31:36:843,-160.04129888692998,154.22140215896826,0,-32.086936950683594,39.88376235961914,-18.292551040649414
0.2079145610332489,0.0979500487446785,9.763710975646973,-0.0009563083130638975,-0.002706698832489855,0.0010253010251095067,1.1200029850006104,2019-07-26 14:31:36:853,-160.4145550928473,154.7260155316057,0,-32.086936950683594,39.88376235961914,-18.292551040649414
0.1815723180770874,0.06921305507421494,9.828369140625,-0.002288214016028602,-0.0005756496817388956,-0.0024376537635875752,1.1299986839294434,2019-07-26 14:31:36:863,-160.78477331395607,155.22470989739628,0,-32.086936950683594,39.88376235961914,-18.292551040649414
0.19833555817604065,0.08118680119514465,9.85710620880127,0.0009083597100978372,-0.004304985598025202,0.0004925387374217668,1.1400060653686523,2019-07-26 14:31:36:873,-161.14360487892407,155.71026730566828,0,-32.086936950683594,39.88376235961914,-18.292551040649414
0.2342568039894104,0.05723930895328522,9.775684356689453,-0.002288214016028602,-0.004038604470435978,0.0004925387374217668,1.15000581741333,2019-07-26 14:31:36:883,-161.491010601904,156.19063718384308,0,-32.086936950683594,39.88376235961914,-18.292551040649414
0.20312505960464478,0.08837105333805084,9.751736640930176,0.002506646540651766,-0.0035058422152575287,0.0007589198975202821,1.160001516342163,2019-07-26 14:31:36:893,-161.83535716505813,156.65503346820287,0,-32.086936950683594,39.88376235961914,-18.292551040649414
0.21988831460475922,0.05005505681037903,9.828369140625,0.0017075031578840923,-0.0019075553196850185,0.0015580632802879558,1.1699981689453125,2019-07-26 14:31:36:903,-162.17194620581407,157.11513835787866,0,-32.086936950683594,39.88376235961914,-18.292551040649414
0.23904630541801453,0.07879205793142319,9.802026748657227,0.0003755974224100973,-0.0019075553196850185,0.0028899690482712416,1.1800000667572021,2019-07-26 14:31:36:913,-162.4994955832367,157.56341358851432,0,-32.086936950683594,39.88376235961914,-18.292551040649414
0.20551981031894684,0.0452655591070652,9.823579788208008,-0.002021832888439377,0.0010226372138336143,0.002090825535466405,1.1900036334991455,2019-07-26 14:31:36:923,-162.82610980113282,158.00800081097876,0,-32.086936950683594,39.88376235961914,-18.292551040649414
0.22946731746196747,0.08597630262374878,9.744552612304688,-0.00015716488153228781,0.00022349378230200473,0.0015580632802879558,1.2000043392181396,2019-07-26 14:31:36:933,-163.1427337663609,158.4378188844248,0,-32.086936950683594,39.88376235961914,-18.292551040649414
0.21270406246185303,0.09555530548095703,9.825974464416504,0.0009083597100978372,-0.007501559389170223,0.002090825535466405,1.21000075340271,2019-07-26 14:31:36:943,-163.4508665856484,158.85740923682792,0,-33.28644561767578,38.984127044677734,-17.39291763305664
0.2079145610332489,0.040476057678461075,9.730184555053711,0.0009083597100978372,0.003153686234547411,0.005287399456648588,1.2200002670288086,2019-07-26 14:31:36:953,-163.75913776232562,159.2749842306369,0,-33.28644561767578,38.984127044677734,-17.39291763305664
0.23904630541801453,0.011739063076674938,9.780473709106445,-0.0030873573987962753,-0.004038604470435978,-0.00030660471036448813,1.2299995422363281,2019-07-26 14:31:36:963,-164.05368554780495,159.68984257702903,0,-33.28644561767578,38.984127044677734,-17.39291763305664
0.2342568039894104,0.08118680119514465,9.806816101074219,-0.000689927185474673,-0.002973079960079079,0.0010253010251095067,1.2400031089782715,2019-07-26 14:31:36:973,-164.34357441766173,160.08694688582912,0,-33.28644561767578,38.984127044677734,-17.39291763305664
0.22228306531906128,0.08358155190944672,9.744552612304688,-0.000689927185474673,-0.004038604470435978,0.0007589198975202821,1.2500228881835938,2019-07-26 14:31:36:983,-164.62829581610245,160.47576753369708,0,-33.28644561767578,38.984127044677734,-17.39291763305664
0.21270406246185303,0.054844558238983154,9.744552612304688,0.0027730276682409903,0.0034200676222109604,-0.004302321916786473,1.2600042819976807,2019-07-26 14:31:36:993,-164.91263761973474,160.85824862338825,0,-33.28644561767578,38.984127044677734,-17.39291763305664
0.2534148097038269,0.04287080839276314,9.768500328063965,0.0014411220302948675,0.002620923979368962,-4.022355432963424e-05,1.2700228691101074,2019-07-26 14:31:37:003,-165.18613852786,161.23524393586743,0,-33.28644561767578,38.984127044677734,-17.39291763305664
0.2677833139896393,0.07400255650281906,9.780473709106445,-0.002021832888439377,-0.0035058422152575287,0.0028899690482712416,1.280024766921997,2019-07-26 14:31:37:013,-165.4490802350075,161.60300428792948,0,-33.28644561767578,38.984127044677734,-17.39291763305664
0.2079145610332489,0.0907658040523529,9.770895004272461,0.0014411220302948675,-0.0008420308093281202,-0.0008393669980522279,1.2900002002716064,2019-07-26 14:31:37:023,-165.71524677091432,161.95949243381034,0,-33.28644561767578,38.984127044677734,-17.39291763305664
0.22946731746196747,0.08118680119514465,9.780473709106445,-0.00015716488153228781,0.0015553994690120636,-0.00616699006998537,1.3000004291534424,2019-07-26 14:31:37:033,-165.97493492268566,162.310878914919,0,-33.28644561767578,38.984127044677734,-17.39291763305664
0.24383580684661865,0.054844558238983154,9.823579788208008,-0.0009563083130638975,-0.005903272623634875,0.0004925387374217668,1.310044527053833,2019-07-26 14:31:37:043,-166.22366944389546,162.65880314696358,0,-33.28644561767578,38.984127044677734,-17.39291763305664
0.2342568039894104,0.07879205793142319,9.804421424865723,-0.0012226895056717034,-0.002706698832489855,-0.004302321916786473,1.3199989795684814,2019-07-26 14:31:37:053,-166.4703090444322,162.99710168042213,0,-33.28644561767578,38.984127044677734,-17.39291763305664
0.1624143123626709,0.13387130200862885,9.797237396240234,0.004104933306187114,0.001289018341422839,0.0004925387374217668,1.3299996852874756,2019-07-26 14:31:37:063,-166.72263194957878,163.31919753704565,0,-33.28644561767578,38.984127044677734,-17.39291763305664
0.20551981031894684,0.05723930895328522,9.715815544128418,0.003039408795830215,0.004751973000082759,0.0023572067930927925,1.3400046825408936,2019-07-26 14:31:37:073,-166.96661279497604,163.64435519324354,0,-32.68669128417969,38.68424987792969,-19.791940689086914
0.23186205327510834,0.06681830435991287,9.802026748657227,0.00010921627043890474,-0.0008420308093281202,-4.022355432963424e-05,1.3500032424926758,2019-07-26 14:31:37:083,-167.19970680023224,163.9635954347398,0,-32.68669128417969,38.68424987792969,-19.791940689086914
0.2797570526599884,0.0907658040523529,9.8187894821167,-0.002021832888439377,-0.0019075553196850185,-4.022355432963424e-05,1.359999656677246,2019-07-26 14:31:37:093,-167.422001350176,164.27486572670185,0,-32.68669128417969,38.68424987792969,-19.791940689086914
0.21030931174755096,0.03568655997514725,9.730184555053711,-0.0009563083130638975,-0.0061696537512241,0.0023572067930927925,1.3699963092803955,2019-07-26 14:31:37:103,-167.64533413703464,164.58570244115518,0,-32.68669128417969,38.68424987792969,-19.791940689086914
0.1887565702199936,0.0979500487446785,9.780473709106445,0.001973884285473317,-0.004571366985688751,-0.0005729858704630034,1.3799993991851807,2019-07-26 14:31:37:113,-167.86774718909754,164.88140391904088,0,-32.68669128417969,38.68424987792969,-19.791940689086914
0.20312505960464478,0.07639730721712112,9.814000129699707,-0.002288214016028602,0.0004898749261458747,-4.022355432963424e-05,1.3900020122528076,2019-07-26 14:31:37:123,-168.086953203547,165.17614077965808,0,-32.68669128417969,38.68424987792969,-19.791940689086914
0.23186205327510834,0.062028806656599045,9.782868385314941,0.0006419785825086126,-0.002706698832489855,0.0007589198975202821,1.4000189304351807,2019-07-26 14:31:37:133,-168.296537699108,165.4649912416378,0,-32.68669128417969,38.68424987792969,-19.791940689086914
0.20551981031894684,0.062028806656599045,9.809210777282715,0.001973884285473317,-0.005104129240867201,0.000226157593577897,1.4099974632263184,2019-07-26 14:31:37:143,-168.50374174869444,165.74733933145194,0,-32.68669128417969,38.68424987792969,-19.791940689086914
0.1887565702199936,0.10752905160188675,9.744552612304688,0.005703220331796786,-0.0019075553196850185,0.002090825535466405,1.4199988842010498,2019-07-26 14:31:37:153,-168.71040152309718,166.0165453193486,0,-32.68669128417969,38.68424987792969,-19.791940689086914
0.1959408074617386,0.07879205793142319,9.758920669555664,0.0003755974224100973,0.0015553994690120636,-0.0008393669980522279,1.4300000667572021,2019-07-26 14:31:37:163,-168.91406220765222,166.2867517414561,0,-32.68669128417969,38.68424987792969,-19.791940689086914
0.24623055756092072,0.08597630262374878,9.859500885009766,0.00010921627043890474,-0.004837748113277977,-0.0011057481256414525,1.4400050640106201,2019-07-26 14:31:37:173,-169.10445114032882,166.55096305142092,0,-32.68669128417969,38.68424987792969,-19.791940689086914
0.2079145610332489,0.1242922991514206,9.768500328063965,0.0006419785825086126,-0.007501559389170223,-0.002171272635998351,1.450002670288086,2019-07-26 14:31:37:183,-169.29376481381968,166.80500380959117,0,-32.68669128417969,38.68424987792969,-19.791940689086914
0.24383580684661865,0.06442355364561081,9.792448043823242,-0.001489070633260928,-4.288736560552649e-05,0.0015580632802879558,1.4599993228912354,2019-07-26 14:31:37:193,-169.47933759067917,167.06220080732615,0,-34.18608093261719,39.58388137817383,-17.69279670715332
0.2534148097038269,0.07879205793142319,9.770895004272461,0.0014411220302948675,0.0023545428517797373,-0.0019048915084091261,1.4700024127960205,2019-07-26 14:31:37:203,-169.66135988065514,167.31090694158928,0,-34.18608093261719,39.58388137817383,-17.69279670715332
0.22467781603336334,0.07400255650281906,9.768500328063965,-0.002288214016028602,0.0010226372138336143,0.0018244444078771805,1.4800059795379639,2019-07-26 14:31:37:213,-169.8423554139937,167.55729322216888,0,-34.18608093261719,39.58388137817383,-17.69279670715332
0.24383580684661865,0.05723930895328522,9.766105651855469,0.004637695821439887,-0.0016411741920957937,-0.0048350839118905965,1.490004301071167,2019-07-26 14:31:37:223,-170.01598217251916,167.79682758133237,0,-34.18608093261719,39.58388137817383,-17.69279670715332
0.21270406246185303,0.021318061277270317,9.763710975646973,-0.002021832888439377,-0.002973079960079079,-0.006966133452753044,1.500002145767212,2019-07-26 14:31:37:233,-170.18903349550837,168.03952405628058,0,-34.18608093261719,39.58388137817383,-17.69279670715332
0.24383580684661865,0.071607805788517,9.718210220336914,-0.0004235460253761578,0.002088161724190513,-0.00030660471036448813,1.5100030899047852,2019-07-26 14:31:37:243,-170.3576797481082,168.27052798932735,0,-34.18608093261719,39.58388137817383,-17.69279670715332
0.27017804980278015,0.05963405594229698,9.842737197875977,-0.0012226895056717034,-0.004038604470435978,-0.001372129253230677,1.5200037956237793,2019-07-26 14:31:37:253,-170.51681142795616,168.49886135847078,0,-34.18608093261719,39.58388137817383,-17.69279670715332
0.24623055756092072,0.07400255650281906,9.79963207244873,0.0014411220302948675,-0.002173936447274243,-0.0019048915084091261,1.5300016403198242,2019-07-26 14:31:37:263,-170.6764679971715,168.7194218263099,0,-34.18608093261719,39.58388137817383,-17.69279670715332
0.21270406246185303,0.026107560843229294,9.809210777282715,-0.0017554517608501525,-0.004304985598025202,0.0012916821526987312,1.5400006771087646,2019-07-26 14:31:37:273,-170.835677353586,168.94296909101274,0,-34.18608093261719,39.58388137817383,-17.69279670715332
0.19833555817604065,0.07879205793142319,9.806816101074219,-0.00015716488153228781,-0.0037722233428467535,-0.0011057481256414525,1.5500037670135498,2019-07-26 14:31:37:283,-170.99367292260416,169.15499141779839,0,-34.18608093261719,39.58388137817383,-17.69279670715332
0.2558095455169678,0.026107560843229294,9.806816101074219,0.00010921627043890474,-0.0024403177049006305,0.0028899690482712416,1.5600006580352783,2019-07-26 14:31:37:293,-171.14254536999476,169.36877965138424,0,-34.18608093261719,39.58388137817383,-17.69279670715332
0.2414410561323166,0.062028806656599045,9.809210777282715,-0.0004235460253761578,-0.0008420308093281202,0.004488256073880914,1.5700032711029053,2019-07-26 14:31:37:303,-171.29102200125533,169.57439580972243,0,-34.18608093261719,39.58388137817383,-17.69279670715332
0.2342568039894104,0.0452655591070652,9.811605453491211,0.0003755974224100973,-0.0037722233428467535,0.002090825535466405,1.580002784729004,2019-07-26 14:31:37:313,-171.435729476397,169.77741039528647,0,-34.18608093261719,39.58388137817383,-17.69279670715332
0.20312505960464478,0.04287080839276314,9.770895004272461,-0.002554595143617826,-0.0064360348788133235,-0.005367846167069046,1.590001106262207,2019-07-26 14:31:37:323,-171.57958290383596,169.97826855788108,0,-32.086936950683594,39.28400421142578,-19.19218635559082
0.2007303088903427,0.014133812859654427,9.742157936096191,-0.000689927185474673,-0.0016411741920957937,0.003689112431038915,1.6000027656555176,2019-07-26 14:31:37:333,-171.72346213175734,170.17742816393493,0,-32.086936950683594,39.28400421142578,-19.19218635559082
0.19833555817604065,0.0907658040523529,9.821184158325195,0.0009083597100978372,-0.003239461087668304,0.0007589198975202821,1.609999179840088,2019-07-26 14:31:37:343,-171.86403634802528,170.36277967476374,0,-32.086936950683594,39.28400421142578,-19.19218635559082
0.18396706879138947,0.03808131068944931,9.785263061523438,0.0009083597100978372,0.0018217805966012882,-0.0008393669980522279,1.6200058460235596,2019-07-26 14:31:37:353,-172.00623807204957,170.5505541610496,0,-32.086936950683594,39.28400421142578,-19.19218635559082
0.23186205327510834,0.071607805788517,9.814000129699707,-0.0009563083130638975,-0.002706698832489855,0.006086542839416261,1.6300013065338135,2019-07-26 14:31:37:363,-172.1375262367917,170.7317187805501,0,-32.086936950683594,39.28400421142578,-19.19218635559082
0.20551981031894684,0.06921305507421494,9.816394805908203,0.003039408795830215,-0.0003092685216403804,-0.0005729858704630034,1.6399996280670166,2019-07-26 14:31:37:373,-172.27061426308575,170.90729862425223,0,-32.086936950683594,39.28400421142578,-19.19218635559082
0.2079145610332489,0.08358155190944672,9.744552612304688,0.0033057899234194394,-0.002973079960079079,-4.022355432963424e-05,1.6500036716461182,2019-07-26 14:31:37:383,-172.3990858137536,171.07746713083165,0,-32.086936950683594,39.28400421142578,-19.19218635559082
0.21270406246185303,0.062028806656599045,9.782868385314941,0.004371314693850663,-0.0035058422152575287,0.0018244444078771805,1.660001277923584,2019-07-26 14:31:37:393,-172.524224892852,171.24619824602217,0,-32.086936950683594,39.28400421142578,-19.19218635559082
0.18396706879138947,0.08597630262374878,9.802026748657227,-0.00015716488153228781,-0.0011084119369173448,-0.001372129253230677,1.6700050830841064,2019-07-26 14:31:37:403,-172.6516134597413,171.41131167597015,0,-32.086936950683594,39.28400421142578,-19.19218635559082
0.19833555817604065,0.071607805788517,9.804421424865723,0.004637695821439887,-0.0035058422152575287,0.0010253010251095067,1.6799955368041992,2019-07-26 14:31:37:413,-172.7734367548361,171.5721146808841,0,-32.086936950683594,39.28400421142578,-19.19218635559082
0.22228306531906128,0.10034479945898056,9.802026748657227,0.0035721710510086637,-0.0024403177049006305,0.0012916821526987312,1.6899983882904053,2019-07-26 14:31:37:423,-172.89061562645466,171.7269355483086,0,-32.086936950683594,39.28400421142578,-19.19218635559082
0.26299381256103516,0.0907658040523529,9.79005241394043,-0.0012226895056717034,-0.0056368914960456505,-0.002171272635998351,1.7000041007995605,2019-07-26 14:31:37:433,-172.99886064461586,171.88246002816825,0,-32.086936950683594,39.28400421142578,-19.19218635559082
0.22946731746196747,0.028502311557531357,9.744552612304688,-0.002021832888439377,0.0023545428517797373,0.0015580632802879558,1.7100024223327637,2019-07-26 14:31:37:443,-173.11322594336525,172.04259415929448,0,-32.68669128417969,39.28400421142578,-19.19218635559082
0.21749356389045715,0.07400255650281906,9.744552612304688,-0.00015716488153228781,-0.0035058422152575287,-0.003503178534018799,1.7200040817260742,2019-07-26 14:31:37:453,-173.22342055237812,172.19312833787,0,-32.68669128417969,39.28400421142578,-19.19218635559082
0.22946731746196747,0.03808131068944931,9.732579231262207,0.0014411220302948675,-0.0008420308093281202,0.000226157593577897,1.7300004959106445,2019-07-26 14:31:37:463,-173.33146699395414,172.3439731958772,0,-32.68669128417969,39.28400421142578,-19.19218635559082
0.23186205327510834,0.06442355364561081,9.739763259887695,0.0006419785825086126,0.00075625608624439,0.000226157593577897,1.7400023937225342,2019-07-26 14:31:37:473,-173.4379881799632,172.4891536583075,0,-32.68669128417969,39.28400421142578,-19.19218635559082
0.20551981031894684,0.033291809260845184,9.792448043823242,0.0017075031578840923,-0.002973079960079079,0.003689112431038915,1.7500004768371582,2019-07-26 14:31:37:483,-173.54351288836418,172.6345162044272,0,-32.68669128417969,39.28400421142578,-19.19218635559082
0.24383580684661865,0.028502311557531357,9.792448043823242,-0.00015716488153228781,-0.004837748113277977,-0.0019048915084091261,1.7600033283233643,2019-07-26 14:31:37:493,-173.64139761331217,172.77857881262602,0,-32.68669128417969,39.28400421142578,-19.19218635559082
0.22467781603336334,0.05723930895328522,9.751736640930176,0.003838552178597889,-0.0035058422152575287,-0.0008393669980522279,1.770005226135254,2019-07-26 14:31:37:503,-173.74020379481092,172.91412543601623,0,-32.68669128417969,39.28400421142578,-19.19218635559082
0.1959408074617386,0.10273955017328262,9.825974464416504,0.002506646540651766,0.001289018341422839,0.000226157593577897,1.7800002098083496,2019-07-26 14:31:37:513,-173.84327534070863,173.04245499572997,0,-32.68669128417969,39.28400421142578,-19.19218635559082
0.2534148097038269,0.047660309821367264,9.792448043823242,0.0014411220302948675,-0.003239461087668304,-0.008031657963109942,1.7899997234344482,2019-07-26 14:31:37:523,-173.93494289969118,173.17521956553585,0,-32.68669128417969,39.28400421142578,-19.19218635559082
0.2414410561323166,0.07400255650281906,9.804421424865723,0.00010921627043890474,-0.004571366985688751,-0.0024376537635875752,1.7999982833862305,2019-07-26 14:31:37:533,-174.02546428674836,173.30300479380927,0,-32.68669128417969,39.28400421142578,-19.19218635559082
0.2677833139896393,0.05963405594229698,9.825974464416504,0.0017075031578840923,0.0018217805966012882,0.0028899690482712416,1.810002326965332,2019-07-26 14:31:37:543,-174.1147568950504,173.42903104792077,0,-32.68669128417969,39.28400421142578,-19.19218635559082
0.2677833139896393,0.033291809260845184,9.739763259887695,0.002506646540651766,-0.004837748113277977,-0.0005729858704630034,1.8200030326843262,2019-07-26 14:31:37:553,-174.19824751247006,173.5551259720136,0,-32.68669128417969,39.28400421142578,-19.19218635559082
0.23904630541801453,0.062028806656599045,9.849921226501465,-0.002288214016028602,-0.005104129240867201,0.0012916821526987312,1.82999849319458,2019-07-26 14:31:37:563,-174.2836133007319,173.67809151508808,0,-32.68669128417969,39.28400421142578,-19.19218635559082
0.2725728154182434,0.06442355364561081,9.744552612304688,0.0017075031578840923,-0.003239461087668304,0.0007589198975202821,1.840001106262207,2019-07-26 14:31:37:573,-174.36407662423431,173.7959948635737,0,-32.236873626708984,38.234432220458984,-19.042245864868164
0.2270725667476654,0.05005505681037903,9.768500328063965,-0.0036201196539747244,-0.0037722233428467535,-0.0037695596616080236,1.8500146865844727,2019-07-26 14:31:37:583,-174.4480416623496,173.91623865099,0,-32.236873626708984,38.234432220458984,-19.042245864868164
0.23904630541801453,0.047660309821367264,9.79963207244873,0.001174740902705643,0.002088161724190513,0.000226157593577897,1.8600075244903564,2019-07-26 14:31:37:593,-174.53230525892215,174.0316816419182,0,-32.236873626708984,38.234432220458984,-19.042245864868164
0.22946731746196747,0.0452655591070652,9.794842720031738,0.0014411220302948675,-0.004837748113277977,0.0015580632802879558,1.8700001239776611,2019-07-26 14:31:37:603,-174.61210390642862,174.1449437615132,0,-32.236873626708984,38.234432220458984,-19.042245864868164
0.21749356389045715,0.028502311557531357,9.806816101074219,0.00010921627043890474,-0.004837748113277977,-0.0019048915084091261,1.8799986839294434,2019-07-26 14:31:37:613,-174.691736114064,174.25865311619438,0,-32.236873626708984,38.234432220458984,-19.042245864868164
0.21030931174755096,0.05005505681037903,9.804421424865723,-0.004419263036742399,-0.0003092685216403804,-0.001372129253230677,1.890000820159912,2019-07-26 14:31:37:623,-174.7731510576799,174.37011173850922,0,-32.236873626708984,38.234432220458984,-19.042245864868164
0.21749356389045715,0.03568655997514725,9.809210777282715,0.00010921627043890474,0.0010226372138336143,-0.002171272635998351,1.9000051021575928,2019-07-26 14:31:37:633,-174.85285897650144,174.47847925409803,0,-32.236873626708984,38.234432220458984,-19.042245864868164
0.2342568039894104,0.09316055476665497,9.758920669555664,-0.0004235460253761578,0.0015553994690120636,-0.0008393669980522279,1.9100024700164795,2019-07-26 14:31:37:643,-174.9291732141883,174.5782086261121,0,-32.236873626708984,38.234432220458984,-19.042245864868164
0.21030931174755096,0.07879205793142319,9.811605453491211,0.002506646540651766,-0.0016411741920957937,-0.00030660471036448813,1.92000150680542,2019-07-26 14:31:37:653,-175.0051096678723,174.67603503782985,0,-32.236873626708984,38.234432220458984,-19.042245864868164
0.21749356389045715,0.047660309821367264,9.809210777282715,0.0017075031578840923,0.00075625608624439,0.003156350175860466,1.9300041198730469,2019-07-26 14:31:37:663,-175.08002870693343,174.77598767483215,0,-32.236873626708984,38.234432220458984,-19.042245864868164
0.22467781603336334,0.05005505681037903,9.763710975646973,-0.004152881909153174,0.00075625608624439,0.0004925387374217668,1.94000244140625,2019-07-26 14:31:37:673,-175.15248809340494,174.8769247192484,0,-32.236873626708984,38.234432220458984,-19.042245864868164
0.22467781603336334,-0.0026294351555407047,9.79963207244873,0.00010921627043890474,0.002620923979368962,0.0010253010251095067,1.9500033855438232,2019-07-26 14:31:37:683,-175.22464211786232,167.7796323661019,0,-32.236873626708984,38.234432220458984,-19.042245864868164
0.2270725667476654,0.05723930895328522,9.816394805908203,-0.000689927185474673,-0.003239461087668304,-0.0016385103808199016,1.9600045680999756,2019-07-26 14:31:37:693,-175.2918275468122,168.01774541009516,0,-32.236873626708984,38.234432220458984,-19.042245864868164
0.23665155470371246,0.03568655997514725,9.751736640930176,0.0033057899234194394,-0.004304985598025202,-0.001372129253230677,1.9700024127960205,2019-07-26 14:31:37:703,-175.35577107271195,168.25134123666362,0,-32.236873626708984,38.234432220458984,-19.042245864868164
0.25102004408836365,0.05244980752468109,9.727788925170898,0.0003755974224100973,-4.288736560552649e-05,-0.004568702784301372,1.9800028800964355,2019-07-26 14:31:37:713,-175.41906843136184,168.47992507393326,0,-32.236873626708984,38.234432220458984,-19.042245864868164
0.21988831460475922,0.05005505681037903,9.804421424865723,0.003039408795830215,-0.0019075553196850185,0.004754637201470138,1.9900007247924805,2019-07-26 14:31:37:723,-175.4839205301697,168.7027700607518,0,-32.236873626708984,38.234432220458984,-19.042245864868164
0.2342568039894104,0.03089706040918827,9.794842720031738,0.00010921627043890474,-0.003239461087668304,0.0034227313034496903,2.0000059604644775,2019-07-26 14:31:37:733,-175.54502132913763,168.92503861409645,0,-32.236873626708984,38.234432220458984,-19.042245864868164
0.2270725667476654,0.054844558238983154,9.852315902709961,-0.0030873573987962753,-0.003239461087668304,-0.001372129253230677,2.0100083351135254,2019-07-26 14:31:37:743,-175.60589554989417,169.14189293625188,0,-32.236873626708984,38.234432220458984,-19.042245864868164
0.2079145610332489,0.05005505681037903,9.775684356689453,0.0027730276682409903,-0.004038604470435978,-0.00030660471036448813,2.0200014114379883,2019-07-26 14:31:37:753,-175.66714325717422,169.3516316512967,0,-32.236873626708984,38.234432220458984,-19.042245864868164
0.23186205327510834,0.08597630262374878,9.770895004272461,0.0033057899234194394,-0.0013747930645065694,-0.00030660471036448813,2.0300047397613525,2019-07-26 14:31:37:763,-175.72584086678924,169.55265929515133,0,-32.236873626708984,38.234432220458984,-19.042245864868164
0.21988831460475922,0.054844558238983154,9.727788925170898,-0.0004235460253761578,-0.0024403177049006305,-0.0032367971463552496,2.040006399154663,2019-07-26 14:31:37:773,-175.7840555594214,169.75538344989295,0,-32.236873626708984,38.234432220458984,-19.042245864868164
0.23665155470371246,0.08597630262374878,9.754131317138672,0.004104933306187114,-0.0003092685216403804,-0.003503178534018799,2.049999713897705,2019-07-26 14:31:37:783,-175.84040453298633,169.94787217071504,0,-32.236873626708984,38.234432220458984,-19.042245864868164
0.21270406246185303,0.05723930895328522,9.775684356689453,0.0003755974224100973,-0.0024403177049006305,0.003689112431038915,2.060002088546753,2019-07-26 14:31:37:793,-175.89729643054926,170.14199420686833,0,-32.236873626708984,38.234432220458984,-19.042245864868164
0.22228306531906128,0.028502311557531357,9.773289680480957,0.0033057899234194394,-0.0019075553196850185,-0.005367846167069046,2.0699996948242188,2019-07-26 14:31:37:803,-175.95222153145545,170.33395669160828,0,-32.236873626708984,38.234432220458984,-19.042245864868164
0.22228306531906128,0.0452655591070652,9.845131874084473,-0.002554595143617826,0.001289018341422839,0.004754637201470138,2.0800018310546875,2019-07-26 14:31:37:813,-176.00803298772647,170.5234436575052,0,-32.236873626708984,38.234432220458984,-19.042245864868164
0.23186205327510834,-0.016997933387756348,9.74934196472168,0.001973884285473317,0.0018217805966012882,0.0010253010251095067,2.090001106262207,2019-07-26 14:31:37:823,-176.06164777641644,163.51386442794302,0,-32.53675079345703,38.53430938720703,-20.541635513305664
0.23665155470371246,0.02371281199157238,9.725394248962402,-0.0038865007815639487,-0.0024403177049006305,0.002090825535466405,2.0999996662139893,2019-07-26 14:31:37:833,-176.11116630392198,163.8429750822572,0,-32.53675079345703,38.53430938720703,-20.541635513305664
0.2558095455169678,0.12908180058002472,9.811605453491211,0.003039408795830215,0.00075625608624439,0.002623587920682017,2.109998941421509,2019-07-26 14:31:37:843,-176.1594978795884,164.1493342472978,0,-32.53675079345703,38.53430938720703,-20.541635513305664
0.22228306531906128,0.062028806656599045,9.780473709106445,-0.0009563083130638975,-0.0008420308093281202,-0.0008393669980522279,2.1200010776519775,2019-07-26 14:31:37:853,-176.20979601851894,164.459617221509,0,-32.53675079345703,38.53430938720703,-20.541635513305664
0.26299381256103516,0.02371281199157238,9.782868385314941,-0.001489070633260928,-0.005903272623634875,0.003689112431038915,2.1300034523010254,2019-07-26 14:31:37:863,-176.25148628791646,164.76848359365934,0,-32.53675079345703,38.53430938720703,-20.541635513305664
0.22228306531906128,0.03568655997514725,9.821184158325195,-0.000689927185474673,0.001289018341422839,-4.022355432963424e-05,2.140005588531494,2019-07-26 14:31:37:873,-176.3012493945946,165.06933758154244,0,-32.53675079345703,38.53430938720703,-20.541635513305664
0.16480906307697296,0.10273955017328262,9.8187894821167,-0.006017549802277746,0.003153686234547411,0.0023572067930927925,2.1500017642974854,2019-07-26 14:31:37:883,-176.35776205334844,165.3593384581308,0,-32.53675079345703,38.53430938720703,-20.541635513305664
0.20312505960464478,0.08118680119514465,9.787657737731934,-0.0009563083130638975,0.0010226372138336143,0.002090825535466405,2.160003185272217,2019-07-26 14:31:37:893,-176.40740311975313,165.64318379230403,0,-32.53675079345703,38.53430938720703,-20.541635513305664
0.19354607164859772,0.021318061277270317,9.842737197875977,0.0017075031578840923,-0.0005756496817388956,-0.001372129253230677,2.1700005531311035,2019-07-26 14:31:37:903,-176.45640171145283,165.92687971105155,0,-32.53675079345703,38.53430938720703,-20.541635513305664
0.21988831460475922,0.08837105333805084,9.794842720031738,-0.0009563083130638975,-0.0005756496817388956,0.0018244444078771805,2.180001735687256,2019-07-26 14:31:37:913,-176.50122961856127,166.19854074428576,0,-32.53675079345703,38.53430938720703,-20.541635513305664
0.2079145610332489,0.07879205793142319,9.794842720031738,0.0017075031578840923,-0.0011084119369173448,0.002090825535466405,2.190007209777832,2019-07-26 14:31:37:923,-176.54626168199758,166.46439282356005,0,-32.53675079345703,38.53430938720703,-20.541635513305664
0.21030931174755096,0.0907658040523529,9.833158493041992,-0.002554595143617826,-0.0016411741920957937,-0.005634227814806921,2.1999804973602295,2019-07-26 14:31:37:933,-176.58991255219388,166.72595836643524,0,-32.53675079345703,38.53430938720703,-20.541635513305664
0.21749356389045715,0.021318061277270317,9.814000129699707,-0.000689927185474673,-0.0035058422152575287,-0.0019048915084091261,2.209998607635498,2019-07-26 14:31:37:943,-176.6307510883261,166.98933812940038,0,-32.53675079345703,38.53430938720703,-20.541635513305664
0.23186205327510834,0.05723930895328522,9.703842163085938,0.0014411220302948675,-0.0019075553196850185,0.0012916821526987312,2.2200005054473877,2019-07-26 14:31:37:953,-176.66968965849023,167.24198277923915,0,-32.53675079345703,38.53430938720703,-20.541635513305664
0.23665155470371246,0.05244980752468109,9.715815544128418,0.0017075031578840923,-0.003239461087668304,-0.0011057481256414525,2.23000431060791,2019-07-26 14:31:37:963,-176.70657026677608,167.4899979535285,0,-32.53675079345703,38.53430938720703,-20.541635513305664
0.21270406246185303,0.03089706040918827,9.751736640930176,-0.000689927185474673,0.0004898749261458747,0.000226157593577897,2.2399983406066895,2019-07-26 14:31:37:973,-176.74772310917822,167.7369544897364,0,-32.53675079345703,38.53430938720703,-20.541635513305664
0.22467781603336334,0.071607805788517,9.8187894821167,-0.0033537385263855,-0.0016411741920957937,-0.0027040348911768,2.250005006790161,2019-07-26 14:31:37:983,-176.7856297512622,167.97574283368783,0,-32.53675079345703,38.53430938720703,-20.541635513305664
0.21270406246185303,0.06681830435991287,9.79005241394043,0.001174740902705643,-0.0011084119369173448,-0.0011057481256414525,2.2599990367889404,2019-07-26 14:31:37:993,-176.82440228006897,168.20774786285472,0,-32.53675079345703,38.53430938720703,-20.541635513305664
0.2079145610332489,0.05005505681037903,9.766105651855469,0.0027730276682409903,-0.0037722233428467535,0.0023572067930927925,2.27000093460083,2019-07-26 14:31:38:003,-176.86140355988428,168.43616235105435,0,-32.53675079345703,38.53430938720703,-20.541635513305664
0.2270725667476654,0.071607805788517,9.775684356689453,-0.002021832888439377,0.0018217805966012882,-0.0027040348911768,2.2800023555755615,2019-07-26 14:31:38:013,-176.89858567150728,168.66018073259931,0,-32.53675079345703,38.53430938720703,-20.541635513305664
0.21030931174755096,0.04287080839276314,9.847526550292969,0.0017075031578840923,-0.0019075553196850185,0.0012916821526987312,2.2900195121765137,2019-07-26 14:31:38:023,-176.9350719330233,168.88102804669919,0,-32.53675079345703,38.53430938720703,-20.541635513305664
0.21270406246185303,0.026107560843229294,9.766105651855469,0.0027730276682409903,0.0015553994690120636,0.0015580632802879558,2.3000004291534424,2019-07-26 14:31:38:033,-176.9722882877422,169.09879005685355,0,-32.53675079345703,38.53430938720703,-20.541635513305664
0.23665155470371246,0.05244980752468109,9.763710975646973,0.002240265413062541,-0.0035058422152575287,-0.0029704160187660244,2.310004711151123,2019-07-26 14:31:38:043,-177.00310403766346,169.30940011126785,0,-32.53675079345703,38.53430938720703,-20.541635513305664
0.2558095455169678,0.071607805788517,9.806816101074219,0.0014411220302948675,-0.01096451404783014,0.000226157593577897,2.3200013637542725,2019-07-26 14:31:38:053,-177.02700317294756,169.51403604782507,0,-32.53675079345703,38.53430938720703,-20.541635513305664
0.24383580684661865,0.05005505681037903,9.775684356689453,-0.002554595143617826,-0.0061696537512241,-0.003503178534018799,2.330003023147583,2019-07-26 14:31:38:063,-177.0544215284158,169.7193225135695,0,-32.53675079345703,38.53430938720703,-20.541635513305664
0.2342568039894104,0.026107560843229294,9.766105651855469,0.0009083597100978372,0.002088161724190513,-4.022355432963424e-05,2.34000301361084,2019-07-26 14:31:38:073,-177.08702411451748,169.92136267206948,0,-32.53675079345703,39.733821868896484,-18.14261245727539
0.21988831460475922,0.04287080839276314,9.780473709106445,-0.0004235460253761578,0.0018217805966012882,0.0076848296049516086,2.350034713745117,2019-07-26 14:31:38:083,-177.1205512332608,170.11815112660742,0,-32.53675079345703,39.733821868896484,-18.14261245727539
0.22467781603336334,0.047660309821367264,9.739763259887695,0.004637695821439887,-0.0003092685216403804,-0.0008393669980522279,2.359999418258667,2019-07-26 14:31:38:093,-177.15153776157067,170.3075858858894,0,-32.53675079345703,39.733821868896484,-18.14261245727539
0.23904630541801453,-0.012208433821797371,9.782868385314941,-0.0017554517608501525,-0.004571366985688751,0.0004925387374217668,2.3700053691864014,2019-07-26 14:31:38:103,-177.17794356144898,163.3038504718021,0,-32.53675079345703,39.733821868896484,-18.14261245727539
0.20551981031894684,0.05723930895328522,9.811605453491211,-0.002820976271207051,-0.002706698832489855,-0.0005729858704630034,2.3800015449523926,2019-07-26 14:31:38:113,-177.2088659336689,163.63267182178618,0,-32.53675079345703,39.733821868896484,-18.14261245727539
0.24383580684661865,0.08597630262374878,9.766105651855469,0.0035721710510086637,-0.004571366985688751,0.0004925387374217668,2.390002965927124,2019-07-26 14:31:38:123,-177.23351666312288,163.9479244779188,0,-32.53675079345703,39.733821868896484,-18.14261245727539
0.21030931174755096,0.03808131068944931,9.725394248962402,0.00010921627043890474,0.001289018341422839,-0.0027040348911768,2.4000017642974854,2019-07-26 14:31:38:133,-177.26479373744365,164.26441768116294,0,-32.53675079345703,39.733821868896484,-18.14261245727539
0.2079145610332489,0.07400255650281906,9.718210220336914,-0.001489070633260928,0.002887305106958187,0.0018244444078771805,2.410003900527954,2019-07-26 14:31:38:143,-177.29660707425248,164.57123982907305,0,-32.53675079345703,39.733821868896484,-18.14261245727539
0.17199331521987915,0.05244980752468109,9.734973907470703,0.0006419785825086126,0.0010226372138336143,0.002090825535466405,2.4200048446655273,2019-07-26 14:31:38:153,-177.3310057606744,164.87328065761383,0,-32.53675079345703,39.733821868896484,-18.14261245727539
0.2079145610332489,0.05005505681037903,9.746947288513184,0.0017075031578840923,-0.0016411741920957937,-0.0029704160187660244,2.4300005435943604,2019-07-26 14:31:38:163,-177.3590244202594,165.16897194431766,0,-32.53675079345703,39.733821868896484,-18.14261245727539
0.21749356389045715,0.04287080839276314,9.751736640930176,0.003039408795830215,0.0010226372138336143,0.0018244444078771805,2.4400007724761963,2019-07-26 14:31:38:173,-177.38686496703153,165.45884817450755,0,-32.53675079345703,39.733821868896484,-18.14261245727539
0.2150988131761551,0.08358155190944672,9.770895004272461,-0.0012226895056717034,-0.002706698832489855,0.003156350175860466,2.4500088691711426,2019-07-26 14:31:38:183,-177.41238424426408,165.7405562281562,0,-32.53675079345703,39.733821868896484,-18.14261245727539
0.1959408074617386,0.06681830435991287,9.758920669555664,0.001174740902705643,-0.0019075553196850185,-0.002171272635998351,2.460000991821289,2019-07-26 14:31:38:193,-177.44006157044998,166.0172401667456,0,-32.53675079345703,39.733821868896484,-18.14261245727539
0.22946731746196747,0.021318061277270317,9.751736640930176,0.0017075031578840923,-0.0013747930645065694,-0.0019048915084091261,2.4700076580047607,2019-07-26 14:31:38:203,-177.46352840908722,166.29343090620182,0,-32.53675079345703,39.733821868896484,-18.14261245727539
0.23904630541801453,0.0979500487446785,9.787657737731934,0.0035721710510086637,-0.0013747930645065694,-0.0037695596616080236,2.4799983501434326,2019-07-26 14:31:38:213,-177.48550520720747,166.55409101089057,0,-32.53675079345703,39.733821868896484,-18.14261245727539
0.21749356389045715,0.071607805788517,9.77807903289795,-0.004685644164331623,0.00395282987738941,-0.0011057481256414525,2.4900007247924805,2019-07-26 14:31:38:223,-177.51253076955214,166.81724906468102,0,-32.53675079345703,39.733821868896484,-18.14261245727539
0.21030931174755096,0.04287080839276314,9.739763259887695,-0.002554595143617826,-0.002706698832489855,0.0023572067930927925,2.500002861022949,2019-07-26 14:31:38:233,-177.53602027522848,167.07729493067097,0,-32.53675079345703,39.733821868896484,-18.14261245727539
0.24623055756092072,0.018923312425613403,9.842737197875977,-0.005218406419510072,-0.0005756496817388956,0.0018244444078771805,2.5100021362304688,2019-07-26 14:31:38:243,-177.55631587945808,167.33647585208618,0,-32.53675079345703,39.733821868896484,-18.14261245727539
0.19833555817604065,0.05963405594229698,9.768500328063965,0.001174740902705643,-0.0013747930645065694,0.0004925387374217668,2.5199975967407227,2019-07-26 14:31:38:253,-177.5811549717041,167.58209160080182,0,-32.53675079345703,39.733821868896484,-18.14261245727539
0.2558095455169678,0.03089706040918827,9.809210777282715,0.0009083597100978372,-4.288736560552649e-05,0.0039554935586281394,2.5300021171569824,2019-07-26 14:31:38:263,-177.5996307873,167.82633010152446,0,-32.53675079345703,39.733821868896484,-18.14261245727539
0.2534148097038269,0.05244980752468109,9.699052810668945,0.002240265413062541,-0.0013747930645065694,0.0007589198975202821,2.5400006771087646,2019-07-26 14:31:38:273,-177.61693290723895,168.0623490390115,0,-32.53675079345703,39.733821868896484,-18.14261245727539
0.2270725667476654,0.03568655997514725,9.828369140625,-0.0009563083130638975,-0.0024403177049006305,-4.022355432963424e-05,2.5500009059906006,2019-07-26 14:31:38:283,-177.63675369980652,168.29747826407342,0,-32.53675079345703,39.733821868896484,-18.14261245727539
0.25820431113243103,0.01652856171131134,9.72060489654541,-0.005218406419510072,-0.003239461087668304,0.000226157593577897,2.560004234313965,2019-07-26 14:31:38:293,-177.65176775268898,168.5325113309771,0,-32.53675079345703,39.733821868896484,-18.14261245727539
0.2558095455169678,0.0452655591070652,9.77807903289795,0.003838552178597889,-4.288736560552649e-05,0.0004925387374217668,2.570000410079956,2019-07-26 14:31:38:303,-177.66873625279328,168.75440184961002,0,-32.53675079345703,39.733821868896484,-18.14261245727539
0.24862530827522278,0.047660309821367264,9.811605453491211,0.002506646540651766,0.0004898749261458747,0.0010253010251095067,2.5799999237060547,2019-07-26 14:31:38:313,-177.68660538048604,168.97234011029266,0,-32.53675079345703,39.733821868896484,-18.14261245727539
0.22467781603336334,0.09316055476665497,9.780473709106445,0.005170458076618337,-0.0024403177049006305,0.000226157593577897,2.590001106262207,2019-07-26 14:31:38:323,-177.7051834412263,169.17907506293204,0,-32.986568450927734,38.984127044677734,-18.89230728149414
0.2797570526599884,0.07879205793142319,9.732579231262207,-0.002021832888439377,-0.002706698832489855,-0.0011057481256414525,2.6000027656555176,2019-07-26 14:31:38:333,-177.71663013516311,169.38735221838002,0,-32.986568450927734,38.984127044677734,-18.89230728149414
0.2534148097038269,0.018923312425613403,9.773289680480957,0.0014411220302948675,-0.003239461087668304,0.0015580632802879558,2.6100001335144043,2019-07-26 14:31:38:343,-177.73077289611632,169.59657744841613,0,-32.986568450927734,38.984127044677734,-18.89230728149414
0.1815723180770874,0.047660309821367264,9.787657737731934,0.00010921627043890474,0.0010226372138336143,0.0023572067930927925,2.6200034618377686,2019-07-26 14:31:38:353,-177.75547622351135,169.79900464311385,0,-32.986568450927734,38.984127044677734,-18.89230728149414
0.19115132093429565,0.004554813727736473,9.797237396240234,-0.002554595143617826,-0.002706698832489855,-0.0016385103808199016,2.630000591278076,2019-07-26 14:31:38:363,-177.77649250634468,170.003925794945,0,-32.986568450927734,38.984127044677734,-18.89230728149414
0.22467781603336334,0.040476057678461075,9.77807903289795,0.0014411220302948675,-0.0016411741920957937,-0.0016385103808199016,2.6399989128112793,2019-07-26 14:31:38:373,-177.79371541584592,170.1982947715277,0,-32.986568450927734,38.984127044677734,-18.89230728149414
0.2270725667476654,0.04287080839276314,9.79005241394043,-0.001489070633260928,-0.0019075553196850185,-0.0024376537635875752,2.650002956390381,2019-07-26 14:31:38:383,-177.81019573839325,170.39014737325778,0,-32.986568450927734,38.984127044677734,-18.89230728149414
0.2079145610332489,0.07879205793142319,9.761316299438477,0.0003755974224100973,0.001289018341422839,-0.005367846167069046,2.660003185272217,2019-07-26 14:31:38:393,-177.83031148359248,170.57288404487272,0,-32.986568450927734,38.984127044677734,-18.89230728149414
0.2007303088903427,0.05723930895328522,9.809210777282715,-0.004419263036742399,-0.0035058422152575287,0.0007589198975202821,2.669997215270996,2019-07-26 14:31:38:403,-177.84829178774905,170.7572196516434,0,-32.986568450927734,38.984127044677734,-18.89230728149414
0.25102004408836365,0.06681830435991287,9.758920669555664,-0.004685644164331623,-0.003239461087668304,-0.00030660471036448813,2.6799988746643066,2019-07-26 14:31:38:413,-177.86003782674604,170.93686083698495,0,-32.986568450927734,38.984127044677734,-18.89230728149414
0.24623055756092072,0.05005505681037903,9.780473709106445,0.001973884285473317,0.002887305106958187,0.0028899690482712416,2.6900014877319336,2019-07-26 14:31:38:423,-177.87561554388395,171.11115041742457,0,-32.986568450927734,38.984127044677734,-18.89230728149414
0.21988831460475922,0.07400255650281906,9.754131317138672,-0.002820976271207051,-0.004038604470435978,-0.0016385103808199016,2.700007915496826,2019-07-26 14:31:38:433,-177.89000599441863,171.2818187461706,0,-32.986568450927734,38.984127044677734,-18.89230728149414
0.24383580684661865,0.05963405594229698,9.8187894821167,-0.000689927185474673,-0.002706698832489855,0.003689112431038915,2.7100014686584473,2019-07-26 14:31:38:443,-177.90223569473,171.44960992415633,0,-32.986568450927734,38.984127044677734,-18.89230728149414
0.2270725667476654,0.054844558238983154,9.70863151550293,0.001973884285473317,-4.288736560552649e-05,0.005820161711827037,2.7200005054473877,2019-07-26 14:31:38:453,-177.91737027645527,171.61303623190207,0,-32.986568450927734,38.984127044677734,-18.89230728149414
0.2270725667476654,0.05005505681037903,9.828369140625,-0.000689927185474673,-0.0037722233428467535,-0.002171272635998351,2.7300028800964355,2019-07-26 14:31:38:463,-177.9304339868234,171.77532699123634,0,-32.986568450927734,38.984127044677734,-18.89230728149414
0.18396706879138947,0.07639730721712112,9.804421424865723,-0.0038865007815639487,-0.0037722233428467535,-4.022355432963424e-05,2.7400002479553223,2019-07-26 14:31:38:473,-177.94820869077083,171.9330732016036,0,-32.986568450927734,38.984127044677734,-18.89230728149414
0.19115132093429565,0.047660309821367264,9.797237396240234,0.001174740902705643,-0.0037722233428467535,0.0015580632802879558,2.7500054836273193,2019-07-26 14:31:38:483,-177.9647704884597,172.0881773215697,0,-32.986568450927734,38.984127044677734,-18.89230728149414
0.17917756736278534,0.03089706040918827,9.802026748657227,0.002240265413062541,-0.002973079960079079,-0.00030660471036448813,2.760035753250122,2019-07-26 14:31:38:493,-177.98285604785667,172.2415400222111,0,-32.986568450927734,38.984127044677734,-18.89230728149414
0.19115132093429565,0.05963405594229698,9.785263061523438,-0.0004235460253761578,-0.0003092685216403804,-0.001372129253230677,2.7700531482696533,2019-07-26 14:31:38:503,-178.00064280082978,172.3899640209845,0,-32.986568450927734,38.984127044677734,-18.89230728149414
0.23186205327510834,0.08118680119514465,9.725394248962402,-0.00015716488153228781,0.0018217805966012882,-0.0029704160187660244,2.7799975872039795,2019-07-26 14:31:38:513,-178.0143327155421,172.5326867100547,0,-32.986568450927734,38.984127044677734,-18.89230728149414
0.21270406246185303,0.021318061277270317,9.782868385314941,-0.002820976271207051,0.0023545428517797373,0.002090825535466405,2.789998769760132,2019-07-26 14:31:38:523,-178.03045713997733,172.68112005187098,0,-32.986568450927734,38.984127044677734,-18.89230728149414
0.27017804980278015,0.047660309821367264,9.77807903289795,0.005436839204207561,-0.005104129240867201,-0.0016385103808199016,2.800004243850708,2019-07-26 14:31:38:533,-178.03532573330884,172.81885782471394,0,-32.986568450927734,38.984127044677734,-18.89230728149414
0.20312505960464478,0.07879205793142319,9.806816101074219,-0.0012226895056717034,-0.0013747930645065694,-0.005634227814806921,2.809999465942383,2019-07-26 14:31:38:543,-178.05011609832053,172.95396031216254,0,-32.986568450927734,38.984127044677734,-18.89230728149414
0.21749356389045715,0.03568655997514725,9.806816101074219,0.0027730276682409903,-0.008034321644348672,0.0018244444078771805,2.8200018405914307,2019-07-26 14:31:38:553,-178.059191727991,173.0891537683445,0,-32.986568450927734,38.984127044677734,-18.89230728149414
0.24623055756092072,0.06681830435991287,9.806816101074219,0.001973884285473317,-0.0003092685216403804,0.002090825535466405,2.829998016357422,2019-07-26 14:31:38:563,-178.06906858207282,173.21845525951073,0,-32.986568450927734,38.984127044677734,-18.89230728149414
0.2270725667476654,0.06442355364561081,9.751736640930176,-0.00015716488153228781,0.00075625608624439,0.005287399456648588,2.84000301361084,2019-07-26 14:31:38:573,-178.08143383881946,173.34660421718291,0,-32.986568450927734,38.984127044677734,-18.89230728149414
0.22946731746196747,0.03568655997514725,9.787657737731934,-0.00015716488153228781,-0.0061696537512241,-0.0011057481256414525,2.850006341934204,2019-07-26 14:31:38:583,-178.08947919195109,173.47558233138727,0,-32.986568450927734,38.984127044677734,-18.89230728149414
0.24383580684661865,0.06681830435991287,9.806816101074219,-0.00015716488153228781,-0.002973079960079079,0.000226157593577897,2.8600008487701416,2019-07-26 14:31:38:593,-178.09753507024425,173.59835136017148,0,-32.986568450927734,38.984127044677734,-18.89230728149414
0.2534148097038269,0.0452655591070652,9.79963207244873,-0.0009563083130638975,-0.0019075553196850185,-4.022355432963424e-05,2.8700003623962402,2019-07-26 14:31:38:603,-178.10488698660356,173.72162820241812,0,-32.986568450927734,38.984127044677734,-18.89230728149414
0.2270725667476654,0.07639730721712112,9.751736640930176,0.00010921627043890474,-0.0024403177049006305,0.0015580632802879558,2.8799989223480225,2019-07-26 14:31:38:613,-178.11474098854438,173.83815714453658,0,-32.986568450927734,38.984127044677734,-18.89230728149414
0.2414410561323166,0.03808131068944931,9.809210777282715,-0.002554595143617826,-0.004038604470435978,-0.0016385103808199016,2.890007495880127,2019-07-26 14:31:38:623,-178.12197701502373,173.95838098283963,0,-32.986568450927734,38.984127044677734,-18.89230728149414
0.17678281664848328,0.0979500487446785,9.770895004272461,0.004104933306187114,-4.288736560552649e-05,0.0004925387374217668,2.9000303745269775,2019-07-26 14:31:38:633,-178.1387827824964,174.06541612857924,0,-32.986568450927734,38.984127044677734,-18.89230728149414
0.2007303088903427,0.10034479945898056,9.79963207244873,0.0014411220302948675,-0.002973079960079079,0.004754637201470138,2.909999370574951,2019-07-26 14:31:38:643,-178.15087389535378,174.17156776261044,0,-32.986568450927734,38.984127044677734,-18.89230728149414
0.2150988131761551,0.071607805788517,9.797237396240234,-0.0012226895056717034,-0.0019075553196850185,-0.00616699006998537,2.9200007915496826,2019-07-26 14:31:38:653,-178.16163058541267,174.28044771916223,0,-32.986568450927734,38.984127044677734,-18.89230728149414
0.2007303088903427,0.05244980752468109,9.804421424865723,-0.00015716488153228781,-0.0019075553196850185,0.0023572067930927925,2.929999589920044,2019-07-26 14:31:38:663,-178.173869446973,174.38879686175068,0,-32.986568450927734,38.984127044677734,-18.89230728149414
0.23665155470371246,0.10034479945898056,9.804421424865723,0.0027730276682409903,-4.288736560552649e-05,0.0028899690482712416,2.94000506401062,2019-07-26 14:31:38:673,-178.1827141074553,174.48773538798793,0,-32.986568450927734,38.984127044677734,-18.89230728149414
0.20551981031894684,0.054844558238983154,9.780473709106445,-0.0009563083130638975,-0.0008420308093281202,0.002623587920682017,2.9500043392181396,2019-07-26 14:31:38:683,-178.1945111610915,174.59209188813998,0,-32.986568450927734,38.984127044677734,-18.89230728149414
0.25820431113243103,0.05963405594229698,9.7373685836792,0.0003755974224100973,-0.002173936447274243,-0.001372129253230677,2.960005521774292,2019-07-26 14:31:38:693,-178.19902118190615,174.69302134495658,0,-32.986568450927734,38.984127044677734,-18.89230728149414
0.21270406246185303,0.033291809260845184,9.758920669555664,0.004371314693850663,0.0010226372138336143,-0.001372129253230677,2.970001220703125,2019-07-26 14:31:38:703,-178.21064245958732,174.792798298529,0,-32.986568450927734,38.984127044677734,-18.89230728149414
0.2342568039894104,0.05244980752468109,9.775684356689453,-0.0004235460253761578,-0.007767940516759447,0.0034227313034496903,2.9800004959106445,2019-07-26 14:31:38:713,-178.21461367374252,174.89103197543938,0,-32.986568450927734,38.984127044677734,-18.89230728149414
0.17199331521987915,0.040476057678461075,9.732579231262207,0.0006419785825086126,-0.002706698832489855,-0.0016385103808199016,2.9900028705596924,2019-07-26 14:31:38:723,-178.2285528161362,174.98808514955692,0,-32.986568450927734,38.984127044677734,-18.89230728149414
0.25102004408836365,0.011739063076674938,9.792448043823242,-0.002820976271207051,0.0036864487498001856,-0.0011057481256414525,3.0000007152557373,2019-07-26 14:31:38:733,-178.23668323045686,175.0885333710254,0,-32.986568450927734,38.984127044677734,-18.89230728149414
0.19354607164859772,0.08358155190944672,9.794842720031738,-0.002820976271207051,-0.004837748113277977,-0.0029704160187660244,3.010000228881836,2019-07-26 14:31:38:743,-178.24659296570857,175.1785684879169,0,-32.986568450927734,38.984127044677734,-18.89230728149414
0.22228306531906128,0.04287080839276314,9.821184158325195,-0.0017554517608501525,-0.0024403177049006305,0.002090825535466405,3.020000696182251,2019-07-26 14:31:38:753,-178.254359703068,175.27098080191826,0,-32.986568450927734,38.984127044677734,-18.89230728149414
0.1887565702199936,0.01652856171131134,9.758920669555664,-0.002554595143617826,-0.0013747930645065694,-0.0005729858704630034,3.0300045013427734,2019-07-26 14:31:38:763,-178.26633879041478,175.36505531236241,0,-32.986568450927734,38.984127044677734,-18.89230728149414
0.21988831460475922,0.0069495635107159615,9.85710620880127,0.0027730276682409903,0.00075625608624439,0.0007589198975202821,3.0399999618530273,2019-07-26 14:31:38:773,-178.27587807883924,175.45538995601922,0,-32.986568450927734,38.984127044677734,-18.89230728149414
0.21988831460475922,0.0452655591070652,9.797237396240234,0.00010921627043890474,-0.0037722233428467535,0.000226157593577897,3.050037384033203,2019-07-26 14:31:38:783,-178.28251998333585,175.5409262386381,0,-32.986568450927734,38.984127044677734,-18.89230728149414
0.1959408074617386,0.06442355364561081,9.811605453491211,0.0006419785825086126,-0.0005756496817388956,-0.0024376537635875752,3.060000419616699,2019-07-26 14:31:38:793,-178.2936663032524,175.6222245380859,0,-32.986568450927734,38.984127044677734,-18.89230728149414
0.23186205327510834,0.05005505681037903,9.852315902709961,0.0027730276682409903,-0.004304985598025202,0.0023572067930927925,3.0699989795684814,2019-07-26 14:31:38:803,-178.29841335438243,175.7024014036651,0,-32.986568450927734,38.984127044677734,-18.89230728149414
0.21988831460475922,0.09316055476665497,9.775684356689453,-0.0004235460253761578,-0.002173936447274243,0.0018244444078771805,3.0800042152404785,2019-07-26 14:31:38:813,-178.30545260133962,175.77767127690413,0,-32.986568450927734,38.984127044677734,-18.89230728149414
0.24383580684661865,0.071607805788517,9.773289680480957,0.0003755974224100973,-0.0008420308093281202,0.0004925387374217668,3.0900046825408936,2019-07-26 14:31:38:823,-178.310286974989,175.8535110983087,0,-33.28644561767578,38.984127044677734,-18.592430114746094
0.20312505960464478,0.05244980752468109,9.74934196472168,0.0017075031578840923,-0.004837748113277977,0.002090825535466405,3.100001096725464,2019-07-26 14:31:38:833,-178.31749441443748,175.9293176872367,0,-33.28644561767578,38.984127044677734,-18.592430114746094
0.19115132093429565,0.047660309821367264,9.768500328063965,-0.00015716488153228781,-0.002173936447274243,-0.0005729858704630034,3.1099984645843506,2019-07-26 14:31:38:843,-178.32750361696185,176.00522870417436,0,-33.28644561767578,38.984127044677734,-18.592430114746094
0.19354607164859772,0.05005505681037903,9.766105651855469,-0.004419263036742399,-0.004038604470435978,-0.001372129253230677,3.1199991703033447,2019-07-26 14:31:38:853,-178.33597876790085,176.08173250760828,0,-33.28644561767578,38.984127044677734,-18.592430114746094
0.20312505960464478,0.08358155190944672,9.845131874084473,0.0014411220302948675,0.00022349378230200473,0.003156350175860466,3.1300041675567627,2019-07-26 14:31:38:863,-178.34574553534551,176.14956009645437,0,-33.28644561767578,38.984127044677734,-18.592430114746094
0.19833555817604065,0.10273955017328262,9.770895004272461,0.002240265413062541,-0.0003092685216403804,0.0015580632802879558,3.1399991512298584,2019-07-26 14:31:38:873,-178.3553997615312,176.21326292660575,0,-33.28644561767578,38.984127044677734,-18.592430114746094
0.1959408074617386,0.08597630262374878,9.766105651855469,0.0006419785825086126,-0.0019075553196850185,-0.001372129253230677,3.1500203609466553,2019-07-26 14:31:38:883,-178.36423058207086,176.2785485801936,0,-33.28644561767578,38.984127044677734,-18.592430114746094
0.22228306531906128,0.054844558238983154,9.804421424865723,0.0009083597100978372,0.002088161724190513,-0.00030660471036448813,3.159998655319214,2019-07-26 14:31:38:893,-178.37214050164832,176.34605864870633,0,-33.28644561767578,38.984127044677734,-18.592430114746094
0.1959408074617386,0.054844558238983154,9.849921226501465,-0.00015716488153228781,-0.0035058422152575287,0.0004925387374217668,3.1700007915496826,2019-07-26 14:31:38:903,-178.37993648032963,176.41284532747997,0,-33.28644561767578,38.984127044677734,-18.592430114746094
0.2342568039894104,0.06442355364561081,9.86907958984375,0.0014411220302948675,-0.0011084119369173448,-0.0027040348911768,3.1799979209899902,2019-07-26 14:31:38:913,-178.3845207088655,176.47629924318852,0,-33.28644561767578,38.984127044677734,-18.592430114746094
0.1815723180770874,0.05005505681037903,9.797237396240234,0.0003755974224100973,-0.0005756496817388956,-0.0016385103808199016,3.1900014877319336,2019-07-26 14:31:38:923,-178.39527211649312,176.54070774028497,0,-33.28644561767578,38.984127044677734,-18.592430114746094
0.2079145610332489,0.054844558238983154,9.775684356689453,-0.0009563083130638975,-0.003239461087668304,-0.002171272635998351,3.200000286102295,2019-07-26 14:31:38:933,-178.4011796588722,176.60400161973206,0,-33.28644561767578,38.984127044677734,-18.592430114746094
0.21270406246185303,0.047660309821367264,9.763710975646973,-0.00015716488153228781,-0.0013747930645065694,0.0004925387374217668,3.2099997997283936,2019-07-26 14:31:38:943,-178.40742414579444,176.666416234541,0,-33.28644561767578,38.984127044677734,-18.592430114746094
0.22228306531906128,0.10513430088758469,9.722999572753906,0.0014411220302948675,-0.0013747930645065694,0.002090825535466405,3.2200002670288086,2019-07-26 14:31:38:953,-178.41231081196887,176.71988843973503,0,-33.28644561767578,38.984127044677734,-18.592430114746094
0.28215181827545166,0.06681830435991287,9.761316299438477,0.0009083597100978372,-4.288736560552649e-05,0.003156350175860466,3.2300004959106445,2019-07-26 14:31:38:963,-178.41092693002946,176.7771367009662,0,-33.28644561767578,38.984127044677734,-18.592430114746094
0.23186205327510834,0.03089706040918827,9.787657737731934,0.0009083597100978372,0.00075625608624439,-0.0029704160187660244,3.239999532699585,2019-07-26 14:31:38:973,-178.41599220808249,176.83746663131362,0,-33.28644561767578,38.984127044677734,-18.592430114746094
0.2414410561323166,0.05244980752468109,9.756525993347168,0.0014411220302948675,-0.0003092685216403804,0.0028899690482712416,3.2500014305114746,2019-07-26 14:31:38:983,-178.4191469242499,176.89374772408254,0,-33.28644561767578,38.984127044677734,-18.592430114746094
0.28933605551719666,0.04287080839276314,9.823579788208008,-0.000689927185474673,-0.002706698832489855,0.002623587920682017,3.2600009441375732,2019-07-26 14:31:38:993,-178.41550310260004,176.95125931766842,0,-33.28644561767578,38.984127044677734,-18.592430114746094
0.22228306531906128,0.040476057678461075,9.837947845458984,-0.004685644164331623,-0.002706698832489855,-0.0005729858704630034,3.270002603530884,2019-07-26 14:31:39:003,-178.41978604750943,177.010150961403,0,-33.28644561767578,38.984127044677734,-18.592430114746094
0.23904630541801453,0.08837105333805084,9.756525993347168,0.003039408795830215,0.003153686234547411,-0.0029704160187660244,3.280001401901245,2019-07-26 14:31:39:013,-178.42509024732604,177.05786252177762,0,-33.28644561767578,38.984127044677734,-18.592430114746094
0.21030931174755096,0.071607805788517,9.718210220336914,-0.0004235460253761578,-0.0013747930645065694,0.002623587920682017,3.290024995803833,2019-07-26 14:31:39:023,-178.43102007938373,177.10850022417233,0,-33.28644561767578,38.984127044677734,-18.592430114746094
0.19354607164859772,0.054844558238983154,9.758920669555664,-0.004419263036742399,-0.0008420308093281202,-0.0019048915084091261,3.299999713897705,2019-07-26 14:31:39:033,-178.43920441464098,177.1623654461998,0,-33.28644561767578,38.984127044677734,-18.592430114746094
0.23665155470371246,0.040476057678461075,9.780473709106445,0.0006419785825086126,0.0010226372138336143,-0.0008393669980522279,3.3100011348724365,2019-07-26 14:31:39:043,-178.44327307642428,177.214015322061,0,-33.28644561767578,38.984127044677734,-18.592430114746094
0.2150988131761551,0.05244980752468109,9.775684356689453,0.0014411220302948675,-0.004304985598025202,-0.0019048915084091261,3.3199996948242188,2019-07-26 14:31:39:053,-178.44678068735166,177.2627777836889,0,-33.28644561767578,38.984127044677734,-18.592430114746094
0.2414410561323166,0.08118680119514465,9.79963207244873,-0.0012226895056717034,-4.288736560552649e-05,0.004488256073880914,3.3300044536590576,2019-07-26 14:31:39:063,-178.44959388965452,177.30871576815136,0,-33.28644561767578,38.984127044677734,-18.592430114746094
0.2534148097038269,0.06921305507421494,9.821184158325195,0.002506646540651766,0.0010226372138336143,-0.0016385103808199016,3.3399839401245117,2019-07-26 14:31:39:073,-178.4516136833692,177.3530613580205,0,-32.986568450927734,39.58388137817383,-18.592430114746094
0.2270725667476654,0.03808131068944931,9.699052810668945,0.001174740902705643,-0.002973079960079079,-0.0008393669980522279,3.3499979972839355,2019-07-26 14:31:39:083,-178.45408660270692,177.4008404124416,0,-32.986568450927734,39.58388137817383,-18.592430114746094
0.23186205327510834,0.05723930895328522,9.70863151550293,0.0003755974224100973,-0.002173936447274243,0.002623587920682017,3.359999895095825,2019-07-26 14:31:39:093,-178.45642236080562,177.44585675509882,0,-32.986568450927734,39.58388137817383,-18.592430114746094
0.21749356389045715,0.07400255650281906,9.734973907470703,0.0014411220302948675,0.00022349378230200473,0.004221874686217364,3.3700027465820312,2019-07-26 14:31:39:103,-178.46182226783293,177.4874194382691,0,-32.986568450927734,39.58388137817383,-18.592430114746094
0.24862530827522278,0.040476057678461075,9.74934196472168,0.0014411220302948675,-0.0019075553196850185,-0.004568702784301372,3.3799984455108643,2019-07-26 14:31:39:113,-178.46229866984032,177.53210477259984,0,-32.986568450927734,39.58388137817383,-18.592430114746094
0.23904630541801453,0.05244980752468109,9.809210777282715,0.0027730276682409903,0.001289018341422839,0.0018244444078771805,3.3900303840637207,2019-07-26 14:31:39:123,-178.46585883944763,177.57377350558508,0,-32.986568450927734,39.58388137817383,-18.592430114746094
0.22946731746196747,0.06681830435991287,9.785263061523438,-0.002288214016028602,-0.002173936447274243,-0.0016385103808199016,3.400001287460327,2019-07-26 14:31:39:133,-178.4684574161415,177.61575440580071,0,-32.986568450927734,39.58388137817383,-18.592430114746094
0.19115132093429565,0.08118680119514465,9.797237396240234,-0.0004235460253761578,0.001289018341422839,-0.0008393669980522279,3.4100027084350586,2019-07-26 14:31:39:143,-178.47745733145584,177.65418152663887,0,-32.986568450927734,39.58388137817383,-18.592430114746094
0.23665155470371246,0.07639730721712112,9.809210777282715,0.0033057899234194394,-0.0005756496817388956,-0.0027040348911768,3.42000675201416,2019-07-26 14:31:39:153,-178.47994446818834,177.690316368073,0,-32.986568450927734,39.58388137817383,-18.592430114746094
0.23904630541801453,0.05723930895328522,9.797237396240234,0.0009083597100978372,-0.0024403177049006305,0.0028899690482712416,3.4300003051757812,2019-07-26 14:31:39:163,-178.48102216847704,177.72930551399628,0,-32.986568450927734,39.58388137817383,-18.592430114746094
0.2150988131761551,0.03808131068944931,9.861895561218262,0.002240265413062541,-0.002706698832489855,-0.002171272635998351,3.4400014877319336,2019-07-26 14:31:39:173,-178.4848920177142,177.7690364642867,0,-32.986568450927734,39.58388137817383,-18.592430114746094
0.22946731746196747,0.03568655997514725,9.722999572753906,0.001174740902705643,-0.0019075553196850185,0.0012916821526987312,3.450000047683716,2019-07-26 14:31:39:183,-178.48708411971225,177.80879035181138,0,-32.986568450927734,39.58388137817383,-18.592430114746094
0.19833555817604065,0.05723930895328522,9.77807903289795,0.001174740902705643,0.0004898749261458747,-0.0019048915084091261,3.4600014686584473,2019-07-26 14:31:39:193,-178.49437732676927,177.84524690587088,0,-32.986568450927734,39.58388137817383,-18.592430114746094
0.19833555817604065,0.028502311557531357,9.770895004272461,-0.00015716488153228781,-0.0061696537512241,0.003156350175860466,3.4700050354003906,2019-07-26 14:31:39:203,-178.49776699607492,177.88508754916356,0,-32.986568450927734,39.58388137817383,-18.592430114746094
0.17678281664848328,0.03808131068944931,9.792448043823242,-0.0009563083130638975,-0.0035058422152575287,0.0015580632802879558,3.4800221920013428,2019-07-26 14:31:39:213,-178.50515481500284,177.92346741982317,0,-32.986568450927734,39.58388137817383,-18.592430114746094
0.22228306531906128,0.05723930895328522,9.758920669555664,-0.002288214016028602,0.0010226372138336143,0.002623587920682017,3.490000009536743,2019-07-26 14:31:39:223,-178.50952816253042,177.9595589521936,0,-32.986568450927734,39.58388137817383,-18.592430114746094
0.21030931174755096,0.07400255650281906,9.825974464416504,0.0033057899234194394,-0.0011084119369173448,-0.00030660471036448813,3.500002145767212,2019-07-26 14:31:39:233,-178.51419234318283,177.9898810864176,0,-32.986568450927734,39.58388137817383,-18.592430114746094
0.21270406246185303,0.054844558238983154,9.828369140625,0.0014411220302948675,-4.288736560552649e-05,-0.0005729858704630034,3.5100033283233643,2019-07-26 14:31:39:243,-178.5190885529727,178.0228797749999,0,-32.986568450927734,39.58388137817383,-18.592430114746094
0.23186205327510834,0.0452655591070652,9.79005241394043,0.00010921627043890474,-0.0019075553196850185,-0.0005729858704630034,3.520003318786621,2019-07-26 14:31:39:253,-178.52050155024472,178.05706260527603,0,-32.986568450927734,39.58388137817383,-18.592430114746094
0.2270725667476654,0.040476057678461075,9.713420867919922,-0.001489070633260928,-0.0003092685216403804,0.0012916821526987312,3.530005693435669,2019-07-26 14:31:39:263,-178.52313440632497,178.09198263274678,0,-32.986568450927734,39.58388137817383,-18.592430114746094
0.2150988131761551,0.09316055476665497,9.802026748657227,-0.0017554517608501525,-0.0003092685216403804,-0.0005729858704630034,3.5400216579437256,2019-07-26 14:31:39:273,-178.5273554837944,178.12023953897258,0,-32.986568450927734,39.58388137817383,-18.592430114746094
0.21270406246185303,0.06681830435991287,9.768500328063965,0.0006419785825086126,-0.0016411741920957937,-0.0005729858704630034,3.5500009059906006,2019-07-26 14:31:39:283,-178.5309409900209,178.14963687903457,0,-32.986568450927734,39.58388137817383,-18.592430114746094
0.22946731746196747,0.062028806656599045,9.754131317138672,-0.002288214016028602,-0.005104129240867201,0.0004925387374217668,3.5599968433380127,2019-07-26 14:31:39:293,-178.53050451822259,178.18064140100464,0,-32.986568450927734,39.58388137817383,-18.592430114746094
0.23665155470371246,0.071607805788517,9.782868385314941,0.002240265413062541,-0.0013747930645065694,-0.0016385103808199016,3.569995880126953,2019-07-26 14:31:39:303,-178.53140779996153,178.20738316274088,0,-32.986568450927734,39.58388137817383,-18.592430114746094
0.21988831460475922,0.04287080839276314,9.768500328063965,-0.002021832888439377,-0.0013747930645065694,-0.0048350839118905965,3.580005168914795,2019-07-26 14:31:39:313,-178.53421685153157,178.23934278747015,0,-32.986568450927734,39.58388137817383,-18.592430114746094
0.21749356389045715,0.05244980752468109,9.763710975646973,-0.000689927185474673,-0.0024403177049006305,0.000226157593577897,3.5899834632873535,2019-07-26 14:31:39:323,-178.53664339461528,178.26878678420275,0,-32.836631774902344,38.83418655395508,-18.742368698120117
0.28933605551719666,0.0452655591070652,9.770895004272461,0.0017075031578840923,-0.002706698832489855,-0.0011057481256414525,3.5999975204467773,2019-07-26 14:31:39:333,-178.5304656065246,178.29714230265773,0,-32.836631774902344,38.83418655395508,-18.742368698120117
0.23665155470371246,0.028502311557531357,9.785263061523438,0.001174740902705643,-0.004837748113277977,0.0010253010251095067,3.609998941421509,2019-07-26 14:31:39:343,-178.52943154139066,178.32720195770088,0,-32.836631774902344,38.83418655395508,-18.742368698120117
0.2270725667476654,0.07879205793142319,9.804421424865723,0.002506646540651766,-0.0011084119369173448,-4.022355432963424e-05,3.6200082302093506,2019-07-26 14:31:39:353,-178.53168504609707,178.3500403174626,0,-32.836631774902344,38.83418655395508,-18.742368698120117
0.2270725667476654,0.03568655997514725,9.756525993347168,0.0014411220302948675,-0.0024403177049006305,0.003156350175860466,3.6300036907196045,2019-07-26 14:31:39:363,-178.5330166028097,178.37803928013278,0,-32.836631774902344,38.83418655395508,-18.742368698120117
0.19833555817604065,0.06681830435991287,9.761316299438477,-0.005484787547099296,-4.288736560552649e-05,-0.00030660471036448813,3.640000820159912,2019-07-26 14:31:39:373,-178.5390520841744,178.40571339566876,0,-32.836631774902344,38.83418655395508,-18.742368698120117
0.1815723180770874,0.047660309821367264,9.751736640930176,0.0049040769490291125,-0.002973079960079079,0.0039554935586281394,3.65000319480896,2019-07-26 14:31:39:383,-178.54526737226348,178.42924437659,0,-32.836631774902344,38.83418655395508,-18.742368698120117
0.17678281664848328,0.071607805788517,9.830763816833496,0.001174740902705643,0.0018217805966012882,0.004754637201470138,3.660001039505005,2019-07-26 14:31:39:393,-178.5547803963936,178.45165325340113,0,-32.836631774902344,38.83418655395508,-18.742368698120117
0.1959408074617386,0.054844558238983154,9.780473709106445,0.00010921627043890474,-0.0037722233428467535,0.004754637201470138,3.67000675201416,2019-07-26 14:31:39:403,-178.5586114188084,178.4761331095283,0,-32.836631774902344,38.83418655395508,-18.742368698120117
0.22228306531906128,0.054844558238983154,9.780473709106445,0.0017075031578840923,0.0036864487498001856,-0.00030660471036448813,3.6800007820129395,2019-07-26 14:31:39:413,-178.56346888731355,178.4992265400326,0,-32.836631774902344,38.83418655395508,-18.742368698120117
0.19115132093429565,0.05963405594229698,9.770895004272461,-0.0004235460253761578,-0.002973079960079079,0.005553780584237813,3.6900007724761963,2019-07-26 14:31:39:423,-178.56811505617097,178.52248612567854,0,-32.836631774902344,38.83418655395508,-18.742368698120117
0.23186205327510834,0.08358155190944672,9.79963207244873,0.002506646540651766,-0.0016411741920957937,-0.003503178534018799,3.700000762939453,2019-07-26 14:31:39:433,-178.56872361103717,178.5408555915041,0,-32.836631774902344,38.83418655395508,-18.742368698120117
0.24623055756092072,0.033291809260845184,9.77807903289795,-0.004152881909153174,-0.0024403177049006305,-0.0048350839118905965,3.7099995613098145,2019-07-26 14:31:39:443,-178.56712883976607,178.56846850832767,0,-32.836631774902344,38.83418655395508,-18.742368698120117
0.265388548374176,0.03089706040918827,9.718210220336914,0.0017075031578840923,0.0015553994690120636,0.0015580632802879558,3.720003604888916,2019-07-26 14:31:39:453,-178.56537465130177,178.59249679796463,0,-32.836631774902344,38.83418655395508,-18.742368698120117
0.21749356389045715,0.05005505681037903,9.758920669555664,0.002240265413062541,0.00022349378230200473,0.0015580632802879558,3.730001926422119,2019-07-26 14:31:39:463,-178.568658246046,178.61351163531825,0,-32.836631774902344,38.83418655395508,-18.742368698120117
0.2725728154182434,0.08597630262374878,9.70863151550293,-0.0017554517608501525,-0.002173936447274243,-0.0008393669980522279,3.7400002479553223,2019-07-26 14:31:39:473,-178.5639011399503,178.63207935173187,0,-32.836631774902344,38.83418655395508,-18.742368698120117
0.22467781603336334,0.054844558238983154,9.833158493041992,0.0017075031578840923,-4.288736560552649e-05,0.0012916821526987312,3.7500030994415283,2019-07-26 14:31:39:483,-178.56642056146123,178.65208743907303,0,-32.836631774902344,38.83418655395508,-18.742368698120117
0.20551981031894684,0.07639730721712112,9.768500328063965,-0.002554595143617826,-0.002173936447274243,-0.004302321916786473,3.7600035667419434,2019-07-26 14:31:39:493,-178.5697660300532,178.67151838621407,0,-32.836631774902344,38.83418655395508,-18.742368698120117
0.19833555817604065,0.0452655591070652,9.773289680480957,0.00010921627043890474,-0.002173936447274243,-0.0029704160187660244,3.7699978351593018,2019-07-26 14:31:39:503,-178.57389914736166,178.69271939215244,0,-32.836631774902344,38.83418655395508,-18.742368698120117
0.2007303088903427,0.06921305507421494,9.763710975646973,-0.002288214016028602,-0.0003092685216403804,0.0039554935586281394,3.780000686645508,2019-07-26 14:31:39:513,-178.57869211491843,178.71202716223365,0,-32.836631774902344,38.83418655395508,-18.742368698120117
0.21749356389045715,0.04287080839276314,9.775684356689453,-0.00015716488153228781,-0.0024403177049006305,-0.006699752325163819,3.789999008178711,2019-07-26 14:31:39:523,-178.58025765771887,178.73284952481575,0,-32.836631774902344,38.83418655395508,-18.742368698120117
0.23186205327510834,0.05723930895328522,9.785263061523438,0.0014411220302948675,0.00022349378230200473,0.0012916821526987312,3.80000376701355,2019-07-26 14:31:39:533,-178.58163063704944,178.75067995606105,0,-32.836631774902344,38.83418655395508,-18.742368698120117
0.21270406246185303,0.03808131068944931,9.768500328063965,-0.002288214016028602,-0.0013747930645065694,0.0023572067930927925,3.8100099563598633,2019-07-26 14:31:39:543,-178.58427782274043,178.7724847912645,0,-32.836631774902344,38.83418655395508,-18.742368698120117
0.19115132093429565,0.08837105333805084,9.837947845458984,-0.0004235460253761578,-0.0008420308093281202,0.0028899690482712416,3.820000171661377,2019-07-26 14:31:39:553,-178.58985759174405,178.78697957682627,0,-32.836631774902344,38.83418655395508,-18.742368698120117
0.21270406246185303,0.05963405594229698,9.7373685836792,0.003838552178597889,0.002887305106958187,0.0015580632802879558,3.8299965858459473,2019-07-26 14:31:39:563,-178.59465356085246,178.80206763329144,0,-32.836631774902344,38.83418655395508,-18.742368698120117
0.19354607164859772,0.04287080839276314,9.802026748657227,-0.00015716488153228781,-0.0037722233428467535,0.0039554935586281394,3.8399994373321533,2019-07-26 14:31:39:573,-178.59801803319314,178.82110273153825,0,-32.836631774902344,39.733821868896484,-18.44249153137207
0.21270406246185303,0.01652856171131134,9.821184158325195,0.0006419785825086126,0.0023545428517797373,0.002090825535466405,3.849998712539673,2019-07-26 14:31:39:583,-178.6025656555248,178.84239171613126,0,-32.836631774902344,39.733821868896484,-18.44249153137207
0.23665155470371246,0.021318061277270317,9.780473709106445,0.0006419785825086126,-0.002706698832489855,0.0012916821526987312,3.860003709793091,2019-07-26 14:31:39:593,-178.60127223429507,178.86268553454715,0,-32.836631774902344,39.733821868896484,-18.44249153137207
0.2007303088903427,0.040476057678461075,9.751736640930176,0.0003755974224100973,-0.002706698832489855,-0.0048350839118905965,3.870000123977661,2019-07-26 14:31:39:603,-178.60414326487248,178.88046473339833,0,-32.836631774902344,39.733821868896484,-18.44249153137207
0.2007303088903427,0.0907658040523529,9.809210777282715,-0.0017554517608501525,-0.005903272623634875,-0.003503178534018799,3.880002737045288,2019-07-26 14:31:39:613,-178.60529873813329,178.8932383882517,0,-32.836631774902344,39.733821868896484,-18.44249153137207
0.26299381256103516,0.0452655591070652,9.770895004272461,-0.0004235460253761578,-0.0011084119369173448,-0.00030660471036448813,3.890002489089966,2019-07-26 14:31:39:623,-178.6017343409587,178.91030279769055,0,-32.836631774902344,39.733821868896484,-18.44249153137207
0.1815723180770874,0.07879205793142319,9.763710975646973,0.002240265413062541,-0.004038604470435978,-0.0008393669980522279,3.900001049041748,2019-07-26 14:31:39:633,-178.60612457443827,178.92159180670467,0,-32.836631774902344,39.733821868896484,-18.44249153137207
0.2270725667476654,0.014133812859654427,9.79963207244873,-0.002021832888439377,-0.0019075553196850185,0.0007589198975202821,3.910001516342163,2019-07-26 14:31:39:643,-178.60638306490645,178.94264255010202,0,-32.836631774902344,39.733821868896484,-18.44249153137207
0.16001957654953003,0.04287080839276314,9.883447647094727,0.0009083597100978372,-0.002973079960079079,-0.0011057481256414525,3.9200057983398438,2019-07-26 14:31:39:653,-178.61403379543873,178.95830890324683,0,-32.836631774902344,39.733821868896484,-18.44249153137207
0.21270406246185303,0.062028806656599045,9.780473709106445,-0.0004235460253761578,-0.0024403177049006305,0.0015580632802879558,3.9300034046173096,2019-07-26 14:31:39:663,-178.61546596486434,178.9721130674036,0,-32.836631774902344,39.733821868896484,-18.44249153137207
0.21749356389045715,0.08358155190944672,9.837947845458984,-0.004952025291920847,-0.0056368914960456505,0.002623587920682017,3.940000534057617,2019-07-26 14:31:39:673,-178.61466311247605,178.9857152912502,0,-32.836631774902344,39.733821868896484,-18.44249153137207
0.2270725667476654,0.0069495635107159615,9.744552612304688,-0.0004235460253761578,-0.0013747930645065694,-0.0029704160187660244,3.950000047683716,2019-07-26 14:31:39:683,-178.61490006174677,179.00542155707967,0,-32.836631774902344,39.733821868896484,-18.44249153137207
0.15283532440662384,0.06681830435991287,9.699052810668945,0.003039408795830215,-0.002173936447274243,-0.0011057481256414525,3.959998607635498,2019-07-26 14:31:39:693,-178.6233260080269,179.0157124794713,0,-32.836631774902344,39.733821868896484,-18.44249153137207
0.24623055756092072,0.028502311557531357,9.79963207244873,0.005969601459386011,-0.002973079960079079,-0.0011057481256414525,3.970000982284546,2019-07-26 14:31:39:703,-178.62040290813675,179.02871261517484,0,-32.836631774902344,39.733821868896484,-18.44249153137207
0.23904630541801453,0.05244980752468109,9.85710620880127,-0.000689927185474673,-0.003239461087668304,-0.0016385103808199016,3.980003595352173,2019-07-26 14:31:39:713,-178.61839108002732,179.04242848106307,0,-32.836631774902344,39.733821868896484,-18.44249153137207
0.2414410561323166,0.054844558238983154,9.739763259887695,-0.00015716488153228781,-0.0005756496817388956,0.0050210183290593634,3.9899978637695312,2019-07-26 14:31:39:723,-178.6172996891594,179.05521553196633,0,-32.836631774902344,39.733821868896484,-18.44249153137207
0.22228306531906128,0.03089706040918827,9.8187894821167,-0.004952025291920847,-0.004038604470435978,-0.002171272635998351,3.9999992847442627,2019-07-26 14:31:39:733,-178.61674827590414,179.07328629905555,0,-32.836631774902344,39.733821868896484,-18.44249153137207
0.2414410561323166,0.03808131068944931,9.758920669555664,-0.002021832888439377,-0.0003092685216403804,-4.022355432963424e-05,4.00999903678894,2019-07-26 14:31:39:743,-178.61589486218625,179.08848422629663,0,-32.836631774902344,39.733821868896484,-18.44249153137207
0.2677833139896393,0.054844558238983154,9.758920669555664,0.0006419785825086126,-0.002706698832489855,0.0012916821526987312,4.020003795623779,2019-07-26 14:31:39:753,-178.61062057094335,179.09991398993574,0,-32.836631774902344,39.733821868896484,-18.44249153137207
0.25102004408836365,0.08358155190944672,9.77807903289795,-0.002021832888439377,-0.0024403177049006305,0.002090825535466405,4.030003309249878,2019-07-26 14:31:39:763,-178.60762683417997,179.10925603542202,0,-32.836631774902344,39.733821868896484,-18.44249153137207
0.23665155470371246,0.05963405594229698,9.833158493041992,-0.00015716488153228781,0.003153686234547411,0.0015580632802879558,4.040006160736084,2019-07-26 14:31:39:773,-178.60967252297445,179.12020976689408,0,-32.836631774902344,39.733821868896484,-18.44249153137207
0.2414410561323166,0.04287080839276314,9.804421424865723,0.0006419785825086126,-0.0024403177049006305,0.0004925387374217668,4.049999952316284,2019-07-26 14:31:39:783,-178.60789637990277,179.1324347272269,0,-32.836631774902344,39.733821868896484,-18.44249153137207
0.2534148097038269,0.028502311557531357,9.77807903289795,0.001174740902705643,-0.0011084119369173448,-0.004302321916786473,4.060000658035278,2019-07-26 14:31:39:793,-178.60542441817825,179.1457861286725,0,-32.836631774902344,39.733821868896484,-18.44249153137207
0.2342568039894104,0.08597630262374878,9.814000129699707,0.003039408795830215,-0.0003092685216403804,0.0023572067930927925,4.070001125335693,2019-07-26 14:31:39:803,-178.60579485029893,179.1511250776291,0,-32.836631774902344,39.733821868896484,-18.44249153137207
0.24623055756092072,0.10273955017328262,9.746947288513184,-0.0012226895056717034,0.00022349378230200473,0.0018244444078771805,4.080005884170532,2019-07-26 14:31:39:813,-178.60486216734176,179.15671114754815,0,-32.836631774902344,39.733821868896484,-18.44249153137207
0.2414410561323166,0.040476057678461075,9.69186782836914,-0.00015716488153228781,-0.002973079960079079,0.002623587920682017,4.090002059936523,2019-07-26 14:31:39:823,-178.60255536173642,179.16887948989256,0,-32.38681411743164,38.38437271118164,-19.19218635559082
0.21749356389045715,0.07879205793142319,9.761316299438477,-0.0030873573987962753,-0.002973079960079079,0.0010253010251095067,4.100001573562622,2019-07-26 14:31:39:833,-178.6033068373178,179.17798588410648,0,-32.38681411743164,38.38437271118164,-19.19218635559082
0.2342568039894104,0.08118680119514465,9.725394248962402,0.00010921627043890474,-0.0019075553196850185,-0.001372129253230677,4.110000371932983,2019-07-26 14:31:39:843,-178.60257326172896,179.18479906094342,0,-32.38681411743164,38.38437271118164,-19.19218635559082
0.2079145610332489,0.062028806656599045,9.754131317138672,0.0014411220302948675,-0.003239461087668304,-0.0005729858704630034,4.1200032234191895,2019-07-26 14:31:39:853,-178.60428021531558,179.19300661340262,0,-32.38681411743164,38.38437271118164,-19.19218635559082
0.2150988131761551,0.08597630262374878,9.730184555053711,0.002240265413062541,0.00022349378230200473,0.0007589198975202821,4.130000352859497,2019-07-26 14:31:39:863,-178.60699218676882,179.1977638434364,0,-32.38681411743164,38.38437271118164,-19.19218635559082
0.265388548374176,0.08358155190944672,9.773289680480957,0.0009083597100978372,-0.005370510368456426,-0.001372129253230677,4.140005350112915,2019-07-26 14:31:39:873,-178.60072621056221,179.20349859333388,0,-32.38681411743164,38.38437271118164,-19.19218635559082
0.21988831460475922,0.06681830435991287,9.770895004272461,0.001174740902705643,0.0004898749261458747,-0.005101465039479822,4.150000810623169,2019-07-26 14:31:39:883,-178.60320281321592,179.2109330793102,0,-32.38681411743164,38.38437271118164,-19.19218635559082
0.2414410561323166,0.062028806656599045,9.761316299438477,0.0009083597100978372,-0.0013747930645065694,0.004488256073880914,4.1600000858306885,2019-07-26 14:31:39:893,-178.6020290233816,179.21892272803663,0,-32.38681411743164,38.38437271118164,-19.19218635559082
0.23904630541801453,0.054844558238983154,9.782868385314941,-0.0009563083130638975,-0.004837748113277977,-0.0005729858704630034,4.170002460479736,2019-07-26 14:31:39:903,-178.59927630782983,179.22865722068855,0,-32.38681411743164,38.38437271118164,-19.19218635559082
0.21030931174755096,-0.009813684038817883,9.761316299438477,-0.002554595143617826,-0.007235178261580997,0.0015580632802879558,4.180003643035889,2019-07-26 14:31:39:913,-178.59854262052954,172.0466707104348,0,-32.38681411743164,38.38437271118164,-19.19218635559082
0.18396706879138947,0.02371281199157238,9.722999572753906,-0.0009563083130638975,-0.0016411741920957937,-0.0037695596616080236,4.190000057220459,2019-07-26 14:31:39:923,-178.60397151223052,172.203479373593,0,-32.38681411743164,38.38437271118164,-19.19218635559082
0.1959408074617386,0.05005505681037903,9.811605453491211,-0.002021832888439377,-0.004038604470435978,0.0012916821526987312,4.1999969482421875,2019-07-26 14:31:39:933,-178.60674386739362,172.3546987174244,0,-32.38681411743164,38.38437271118164,-19.19218635559082
0.265388548374176,0.08358155190944672,9.768500328063965,0.002506646540651766,0.00075625608624439,0.0039554935586281394,4.210002183914185,2019-07-26 14:31:39:943,-178.60390951303378,172.49639204753052,0,-32.38681411743164,38.38437271118164,-19.19218635559082
0.22946731746196747,0.03808131068944931,9.739763259887695,-0.002021832888439377,-0.004837748113277977,0.002623587920682017,4.220000982284546,2019-07-26 14:31:39:953,-178.6021226594435,172.64311895636055,0,-32.38681411743164,38.38437271118164,-19.19218635559082
0.22946731746196747,0.06921305507421494,9.739763259887695,-0.00015716488153228781,0.0023545428517797373,0.0028899690482712416,4.230007886886597,2019-07-26 14:31:39:963,-178.604410590944,172.7822018766252,0,-32.38681411743164,38.38437271118164,-19.19218635559082
0.1959408074617386,0.026107560843229294,9.758920669555664,-0.0030873573987962753,-0.002706698832489855,-0.0008393669980522279,4.240001916885376,2019-07-26 14:31:39:973,-178.60779873579187,172.9252247467966,0,-32.38681411743164,38.38437271118164,-19.19218635559082
0.2414410561323166,0.047660309821367264,9.816394805908203,0.0003755974224100973,-0.002973079960079079,0.0039554935586281394,4.249999761581421,2019-07-26 14:31:39:983,-178.6057948311096,173.06094582342777,0,-32.38681411743164,38.38437271118164,-19.19218635559082
0.17199331521987915,0.062028806656599045,9.763710975646973,0.002506646540651766,-0.002973079960079079,-0.0040359407891972475,4.260003328323364,2019-07-26 14:31:39:993,-178.61182509220544,173.19103902829156,0,-32.38681411743164,38.38437271118164,-19.19218635559082
0.2342568039894104,0.062028806656599045,9.787657737731934,-0.002021832888439377,-0.002706698832489855,0.002090825535466405,4.2700254917144775,2019-07-26 14:31:40:003,-178.6106444222182,173.32109393294812,0,-32.38681411743164,38.38437271118164,-19.19218635559082
0.21030931174755096,0.07639730721712112,9.823579788208008,-0.001489070633260928,-0.002973079960079079,0.0007589198975202821,4.2799999713897705,2019-07-26 14:31:40:013,-178.6122376863441,173.44659450423197,0,-32.38681411743164,38.38437271118164,-19.19218635559082
0.29652029275894165,0.09316055476665497,9.770895004272461,-0.002021832888439377,-0.0024403177049006305,0.0018244444078771805,4.2900354862213135,2019-07-26 14:31:40:023,-178.60385305540905,173.56787650638654,0,-32.38681411743164,38.38437271118164,-19.19218635559082
0.24862530827522278,0.054844558238983154,9.787657737731934,0.002240265413062541,-0.0016411741920957937,-0.001372129253230677,4.299995422363281,2019-07-26 14:31:40:033,-178.60175597031798,173.68884510725414,0,-32.38681411743164,38.38437271118164,-19.19218635559082
0.2007303088903427,0.028502311557531357,9.770895004272461,-0.0012226895056717034,-0.0008420308093281202,0.0028899690482712416,4.310000658035278,2019-07-26 14:31:40:043,-178.6057097722335,173.81241240511898,0,-32.38681411743164,38.38437271118164,-19.19218635559082
0.23186205327510834,0.071607805788517,9.754131317138672,0.00010921627043890474,-0.0008420308093281202,-0.0005729858704630034,4.32000207901001,2019-07-26 14:31:40:053,-178.60588867935496,173.92769048783012,0,-32.38681411743164,38.38437271118164,-19.19218635559082
0.18636181950569153,0.054844558238983154,9.754131317138672,0.0006419785825086126,-0.0037722233428467535,0.0023572067930927925,4.330005407333374,2019-07-26 14:31:40:063,-178.60976097475182,174.04233301582616,0,-32.38681411743164,38.38437271118164,-19.19218635559082
0.20312505960464478,0.033291809260845184,9.809210777282715,-0.002021832888439377,-0.0005756496817388956,-0.00030660471036448813,4.339982271194458,2019-07-26 14:31:40:073,-178.61351752366394,174.15872983898015,0,-33.28644561767578,39.28400421142578,-19.19218635559082
0.2869412899017334,0.03568655997514725,9.79963207244873,0.003039408795830215,-0.004837748113277977,-0.003503178534018799,4.350000381469727,2019-07-26 14:31:40:083,-178.60498209769196,174.26967255408314,0,-33.28644561767578,39.28400421142578,-19.19218635559082
0.2414410561323166,0.07879205793142319,9.787657737731934,-0.004419263036742399,-0.0003092685216403804,0.0023572067930927925,4.360000848770142,2019-07-26 14:31:40:093,-178.60444718311663,174.3775360424529,0,-33.28644561767578,39.28400421142578,-19.19218635559082
0.2270725667476654,0.07639730721712112,9.773289680480957,0.0009083597100978372,-0.002706698832489855,0.0050210183290593634,4.370004653930664,2019-07-26 14:31:40:103,-178.60421844515872,174.4805177034728,0,-33.28644561767578,39.28400421142578,-19.19218635559082
0.24623055756092072,0.040476057678461075,9.782868385314941,-0.0004235460253761578,-0.005370510368456426,0.002623587920682017,4.380003929138184,2019-07-26 14:31:40:113,-178.6002826500302,174.58640401960864,0,-33.28644561767578,39.28400421142578,-19.19218635559082
0.2270725667476654,0.0452655591070652,9.84034252166748,-0.002288214016028602,0.0004898749261458747,0.002623587920682017,4.389999628067017,2019-07-26 14:31:40:123,-178.6021138566416,174.69068904304308,0,-33.28644561767578,39.28400421142578,-19.19218635559082
0.17678281664848328,0.07879205793142319,9.792448043823242,-0.0004235460253761578,-0.0013747930645065694,0.002623587920682017,4.399998426437378,2019-07-26 14:31:40:133,-178.60861478963648,174.78789297975814,0,-33.28644561767578,39.28400421142578,-19.19218635559082
0.17917756736278534,0.04287080839276314,9.775684356689453,0.004371314693850663,0.0004898749261458747,-0.0011057481256414525,4.410001039505005,2019-07-26 14:31:40:143,-178.615716606017,174.88465466430839,0,-33.28644561767578,39.28400421142578,-19.19218635559082
0.2007303088903427,0.028502311557531357,9.806816101074219,-0.00015716488153228781,-0.0003092685216403804,0.000226157593577897,4.420001745223999,2019-07-26 14:31:40:153,-178.61977676845044,174.98371937098477,0,-33.28644561767578,39.28400421142578,-19.19218635559082
0.20551981031894684,0.047660309821367264,9.845131874084473,0.001174740902705643,-0.0019075553196850185,0.004488256073880914,4.430042028427124,2019-07-26 14:31:40:163,-178.62238800238075,175.07783537389136,0,-33.28644561767578,39.28400421142578,-19.19218635559082
0.22228306531906128,0.071607805788517,9.782868385314941,0.002506646540651766,-0.0019075553196850185,0.003689112431038915,4.439998388290405,2019-07-26 14:31:40:173,-178.62284119524628,175.16648970462228,0,-33.28644561767578,39.28400421142578,-19.19218635559082
0.22228306531906128,0.071607805788517,9.804421424865723,0.001973884285473317,-0.004304985598025202,0.003689112431038915,4.450026512145996,2019-07-26 14:31:40:183,-178.6219849058023,175.25367927254666,0,-33.28644561767578,39.28400421142578,-19.19218635559082
0.19833555817604065,0.08118680119514465,9.802026748657227,0.0006419785825086126,-0.003239461087668304,0.0015580632802879558,4.460001707077026,2019-07-26 14:31:40:193,-178.62454731644607,175.33875510522708,0,-33.28644561767578,39.28400421142578,-19.19218635559082
0.2342568039894104,0.071607805788517,9.79963207244873,-0.002021832888439377,0.00075625608624439,0.0028899690482712416,4.470004558563232,2019-07-26 14:31:40:203,-178.62509362934645,175.42474230556383,0,-33.28644561767578,39.28400421142578,-19.19218635559082
0.2558095455169678,0.03089706040918827,9.742157936096191,-0.002554595143617826,-0.0019075553196850185,-0.0040359407891972475,4.480008840560913,2019-07-26 14:31:40:213,-178.62143767377447,175.5140482390087,0,-33.28644561767578,39.28400421142578,-19.19218635559082
0.22467781603336334,0.01652856171131134,9.746947288513184,0.00010921627043890474,-0.0019075553196850185,0.003156350175860466,4.490001440048218,2019-07-26 14:31:40:223,-178.62152869015887,175.6017627896515,0,-33.28644561767578,39.28400421142578,-19.19218635559082
0.1959408074617386,0.028502311557531357,9.79963207244873,-0.0012226895056717034,-0.0003092685216403804,-0.0016385103808199016,4.500011444091797,2019-07-26 14:31:40:233,-178.6260150907753,175.68708186352146,0,-33.28644561767578,39.28400421142578,-19.19218635559082
0.2414410561323166,0.07639730721712112,9.727788925170898,-0.000689927185474673,-0.0013747930645065694,0.0034227313034496903,4.510000944137573,2019-07-26 14:31:40:243,-178.62428818201346,175.76472793582292,0,-33.28644561767578,39.28400421142578,-19.19218635559082
0.20551981031894684,0.03808131068944931,9.74934196472168,0.0006419785825086126,-0.002973079960079079,0.000226157593577897,4.520002841949463,2019-07-26 14:31:40:253,-178.62597996508467,175.8445968702844,0,-33.28644561767578,39.28400421142578,-19.19218635559082
