ACCELEROMETER X (m/s²),ACCELEROMETER Y (m/s²),ACCELEROMETER Z (m/s²),GYROSCOPE X (rad/s),GYROSCOPE Y (rad/s),GYROSCOPE Z (rad/s),Time since start in ms ,YYYY-MO-DD HH-MI-SS_SSS,Pitch (Deg),Roll (Deg),Heading (Deg),MagX,MagY,MagZ
-0.2093825489282608,-0.19969099760055542,9.749200820922852,-0.0015873652043227706,0.0033167117447063417,-0.04091907483609319,0.0,2019-07-25 15:40:09:266,3.575393075674874,-3.576531713906166,0,-22.340904235839844,8.84639835357666,-42.732601165771484
-0.2285405397415161,-0.1613750010728836,9.890491485595703,-0.0047839387353934655,0.0057141418930093625,-0.046779460683353424,0.009624719619750977,2019-07-25 15:40:09:275,7.074323068540975,-7.083720409708579,0,-22.340904235839844,8.84639835357666,-42.732601165771484
-0.1974087953567505,-0.1685592532157898,9.873727798461914,-0.00212012745950122,-0.00041262439914499955,-0.03745612069758192,0.01962423324584961,2019-07-25 15:40:09:285,10.510160656107853,-10.521295023351964,0,-22.340904235839844,8.84639835357666,-42.732601165771484
-0.23093529045581818,-0.11826950311660767,9.809069633483887,-0.0002554595176127117,0.003583092872295566,-0.04038631362121203,0.02966785430908203,2019-07-25 15:40:09:296,13.870963414622015,-13.896909241068167,0,-22.340904235839844,8.84639835357666,-42.732601165771484
-0.21896153688430786,-0.08713775873184204,9.804280281066895,-0.0023865085870904443,0.0014520435915074442,-0.041451836050974335,0.0396730899810791,2019-07-25 15:40:09:306,17.167140622187237,-17.2074460174693,0,-22.340904235839844,8.84639835357666,-42.732601165771484
-0.20459304749965668,-0.17095398902893066,9.868938446044922,-0.0058494637658990135,0.003583092872295566,-0.04278374116877181,0.04997706413269043,2019-07-25 15:40:09:316,20.397972167799473,-20.440064735129685,0,-22.340904235839844,8.84639835357666,-42.732601165771484
-0.2500932812690735,-0.15898025035858154,9.76596450805664,-0.007181369403845137,-0.00041262439914499955,-0.0438492677597233,0.0596311092376709,2019-07-25 15:40:09:326,23.560897444840805,-23.6087178859736,0,-22.340904235839844,8.84639835357666,-42.732601165771484
-0.262067049741745,-0.19011199474334717,9.837806701660156,-0.0023865085870904443,0.0003865190486412555,-0.04411564628656928,0.06960868835449219,2019-07-25 15:40:09:335,26.65894439067454,-26.71306487015503,0,-22.340904235839844,8.84639835357666,-42.732601165771484
-0.24051429331302643,-0.15179599821567535,9.849780082702637,-0.005050319862982691,-0.002277292454816025,-0.03985354824514169,0.07961869239807129,2019-07-25 15:40:09:345,29.699069796154394,-29.758306560162627,0,-22.340904235839844,8.84639835357666,-42.732601165771484
-0.23093529045581818,-0.1158747524023056,9.82583236694336,-0.0047839387353934655,0.004648617382652464,-0.03932078703026053,0.08960366249084473,2019-07-25 15:40:09:355,32.6755547797382,-32.74694528530404,0,-22.340904235839844,8.84639835357666,-42.732601165771484
-0.23811954259872437,-0.14461174607276917,9.883306503295898,-0.0029192708422688934,-0.0006790055592435148,-0.04544755140436675,0.09961533546447754,2019-07-25 15:40:09:365,35.594822065313046,-35.6735995512287,0,-22.340904235839844,8.84639835357666,-42.732601165771484
-0.19980354607105255,-0.15179599821567535,9.794700622558594,-0.00212012745950122,0.00118566246391822,-0.041451836050974335,0.10962104797363281,2019-07-25 15:40:09:375,38.45888703589416,-38.54117871906698,0,-23.840293884277344,8.246642112731934,-41.233211517333984
-0.19980354607105255,-0.13742749392986298,9.830622673034668,-0.0015873652043227706,0.00438223625506324,-0.04305012385680698,0.11961579322814941,2019-07-25 15:40:09:385,41.26396289021683,-41.35344599059671,0,-23.840293884277344,8.246642112731934,-41.233211517333984
-0.18543504178524017,-0.12066425383090973,9.823437690734863,-0.0015873652043227706,0.0049149985102416895,-0.04411564628656928,0.12961792945861816,2019-07-25 15:40:09:395,44.014294630361206,-44.11141065732881,0,-23.840293884277344,8.246642112731934,-41.233211517333984
-0.18782979249954224,-0.11826950311660767,9.804280281066895,-0.005316700990571915,0.0027839492294535677,-0.03825526043930904,0.13966727256774902,2019-07-25 15:40:09:406,46.71048714636467,-46.81235982905065,0,-23.840293884277344,8.246642112731934,-41.233211517333984
-0.1830402910709381,-0.12066425383090973,9.873727798461914,-0.004251176740289341,-0.00041262439914499955,-0.03932078703026053,0.14960837364196777,2019-07-25 15:40:09:415,49.35526704604497,-49.459736423203644,0,-23.840293884277344,8.246642112731934,-41.233211517333984
-0.1830402910709381,-0.17813824117183685,9.878517150878906,-0.0039847956127001165,0.0038494739998847904,-0.04358288507168813,0.15963411331176758,2019-07-25 15:40:09:426,51.94476428199111,-52.047636544702236,0,-23.840293884277344,8.246642112731934,-41.233211517333984
-0.17585605382919312,-0.1685592532157898,9.861754417419434,-0.00558308263830979,0.00438223625506324,-0.04225097995389066,0.16963434219360352,2019-07-25 15:40:09:436,54.48297637389348,-54.583964517038815,0,-23.840293884277344,8.246642112731934,-41.233211517333984
-0.18064555525779724,-0.1685592532157898,9.782727241516113,-0.0018537463319119952,0.002517568101864343,-0.04091907483609319,0.1796412467956543,2019-07-25 15:40:09:446,56.97074445440213,-57.0715011245911,0,-23.840293884277344,8.246642112731934,-41.233211517333984
-0.16148754954338074,-0.15658549964427948,9.775543212890625,-0.005316700990571915,0.00118566246391822,-0.045713934092401924,0.1896071434020996,2019-07-25 15:40:09:455,59.41173780265036,-59.50874215692679,0,-23.840293884277344,8.246642112731934,-41.233211517333984
-0.14711906015872955,-0.13263800740242004,9.816253662109375,-0.0047839387353934655,0.0027839492294535677,-0.04225097995389066,0.19963383674621582,2019-07-25 15:40:09:466,61.80476280436186,-61.90039120717985,0,-23.840293884277344,8.246642112731934,-41.233211517333984
-0.18543504178524017,-0.11108525097370148,9.811464309692383,-0.0007882218215550968,-0.0014781489420111885,-0.03905440434222536,0.20963191986083984,2019-07-25 15:40:09:476,64.14784233211677,-64.24896739768674,0,-23.840293884277344,8.246642112731934,-41.233211517333984
-0.21896153688430786,-0.1494012475013733,9.763568878173828,-0.0026528897146796686,0.0019848058466858938,-0.04624669530728308,0.21963810920715332,2019-07-25 15:40:09:486,66.43807589482128,-66.54496420551644,0,-23.840293884277344,8.246642112731934,-41.233211517333984
-0.19261929392814636,-0.13982224464416504,9.804280281066895,1.0921627247073539e-05,0.0019848058466858938,-0.04438202897460446,0.22963190078735352,2019-07-25 15:40:09:496,68.68569032657979,-68.79772985783694,0,-23.840293884277344,8.246642112731934,-41.233211517333984
-0.19980354607105255,-0.11826950311660767,9.816253662109375,-0.005050319862982691,-0.0020109111971896377,-0.04464841166263963,0.23963379859924316,2019-07-25 15:40:09:506,70.88978470180686,-71.00513326896485,0,-23.840293884277344,8.246642112731934,-41.233211517333984
-0.223751038312912,-0.17813824117183685,9.83541202545166,-0.00558308263830979,0.0057141418930093625,-0.04731222189823458,0.2496342658996582,2019-07-25 15:40:09:516,73.04271582536109,-73.16114309602793,0,-23.840293884277344,8.246642112731934,-41.233211517333984
-0.17585605382919312,-0.17334873974323273,9.818648338317871,-0.003718414485110892,0.002517568101864343,-0.044914790189485604,0.25960874557495117,2019-07-25 15:40:09:525,75.15992987721313,-75.27560858092872,0,-23.840293884277344,8.246642112731934,-41.233211517333984
-0.20698779821395874,-0.15419074892997742,9.821043014526367,-0.003452033357521668,0.00784519091372316,-0.04464841166263963,0.2696371078491211,2019-07-25 15:40:09:536,77.22816603875938,-77.35016315940716,0,-23.840293884277344,8.246642112731934,-41.233211517333984
-0.18064555525779724,-0.15658549964427948,9.799490928649902,-0.0018537463319119952,0.0003865190486412555,-0.03452592569335719,0.27960777282714844,2019-07-25 15:40:09:545,79.26226470561477,-79.38381311269511,0,-23.840293884277344,8.246642112731934,-41.233211517333984
-0.21417205035686493,-0.15419074892997742,9.782727241516113,1.0921627247073539e-05,0.0038494739998847904,-0.03825526043930904,0.28963589668273926,2019-07-25 15:40:09:556,81.24976847536232,-81.37808311262505,0,-23.840293884277344,8.246642112731934,-41.233211517333984
-0.22135628759860992,-0.17813824117183685,9.78512191772461,-0.005050319862982691,-0.0025436735824052492,-0.04358288507168813,0.2996335029602051,2019-07-25 15:40:09:566,83.20028287220063,-83.32682728098813,0,-23.840293884277344,8.246642112731934,-41.233211517333984
-0.16867180168628693,-0.15419074892997742,9.823437690734863,-0.0005218406614565815,0.002517568101864343,-0.04624669530728308,0.30963587760925293,2019-07-25 15:40:09:576,85.11518943671412,-85.24201259718681,0,-23.840293884277344,8.246642112731934,-41.233211517333984
-0.21896153688430786,-0.13982224464416504,9.80667495727539,-0.0058494637658990135,-0.002810054709994474,-0.041451836050974335,0.31963658332824707,2019-07-25 15:40:09:586,86.98888207062255,-87.11755044505536,0,-23.840293884277344,8.246642112731934,-41.233211517333984
-0.1902245432138443,-0.18292774260044098,9.823437690734863,-0.003452033357521668,0.0014520435915074442,-0.05050879334871067,0.3296163082122803,2019-07-25 15:40:09:595,88.82610361746072,-88.9519287831702,0,-23.840293884277344,8.246642112731934,-41.233211517333984
-0.1638823002576828,-0.13982224464416504,9.818648338317871,-0.005316700990571915,0.0017184247190966692,-0.044914790189485604,0.3396143913269043,2019-07-25 15:40:09:605,90.62949222423539,-90.75358817669256,0,-23.840293884277344,8.246642112731934,-41.233211517333984
-0.19501404464244843,-0.12066425383090973,9.804280281066895,-0.0018537463319119952,0.0006529002087397708,-0.04225097995389066,0.34962916374206543,2019-07-25 15:40:09:615,92.39374517214128,-92.52337158044192,0,-23.840293884277344,8.246642112731934,-41.233211517333984
-0.21417205035686493,-0.1350327581167221,9.821043014526367,-0.0031856519698581177,0.0014520435915074442,-0.04065269214805801,0.3596367835998535,2019-07-25 15:40:09:626,94.12006877323003,-94.2553594680876,0,-22.041025161743164,9.44615364074707,-41.53308868408203
-0.2285405397415161,-0.15179599821567535,9.830622673034668,-0.0039847956127001165,0.002517568101864343,-0.04651307799531825,0.36963367462158203,2019-07-25 15:40:09:636,95.80961898533398,-95.95032268269928,0,-22.041025161743164,9.44615364074707,-41.53308868408203
-0.18543504178524017,-0.12305900454521179,9.837806701660156,-0.006648607148666687,0.0027839492294535677,-0.04091907483609319,0.37963390350341797,2019-07-25 15:40:09:646,97.47026632173821,-97.61324969603618,0,-22.041025161743164,9.44615364074707,-41.53308868408203
-0.19980354607105255,-0.11826950311660767,9.854569435119629,0.0002773027863296734,0.0014520435915074442,-0.041185453362939155,0.3896360397338867,2019-07-25 15:40:09:656,99.09681499482572,-99.2473884078132,0,-22.041025161743164,9.44615364074707,-41.53308868408203
-0.1902245432138443,-0.12784850597381592,9.854569435119629,-0.0005218406614565815,-0.00041262439914499955,-0.04171821873900951,0.399639368057251,2019-07-25 15:40:09:666,100.69299339012687,-100.84728179839082,0,-22.041025161743164,9.44615364074707,-41.53308868408203
-0.21177729964256287,-0.15658549964427948,9.837806701660156,-0.0026528897146796686,0.00012013789667006295,-0.04464841166263963,0.4096236228942871,2019-07-25 15:40:09:675,102.25440199146352,-102.41061124966997,0,-22.041025161743164,9.44615364074707,-41.53308868408203
-0.2093825489282608,-0.13982224464416504,9.821043014526367,-0.004517557607804241,0.002517568101864343,-0.04411564628656928,0.4196348190307617,2019-07-25 15:40:09:686,103.78347178164165,-103.9435462776421,0,-22.041025161743164,9.44615364074707,-41.53308868408203
-0.25248804688453674,-0.1494012475013733,9.804280281066895,-0.0026528897146796686,-0.002810054709994474,-0.045980316780437104,0.42963695526123047,2019-07-25 15:40:09:696,105.27987646711038,-105.44572490591861,0,-22.041025161743164,9.44615364074707,-41.53308868408203
-0.24051429331302643,-0.1613750010728836,9.801885604858398,-0.004517557607804241,0.0017184247190966692,-0.0470458392101994,0.4396381378173828,2019-07-25 15:40:09:706,106.74520160647553,-106.91540923457706,0,-22.041025161743164,9.44615364074707,-41.53308868408203
-0.18064555525779724,-0.18532249331474304,9.813858985900879,-0.004251176740289341,-0.0025436735824052492,-0.04225097995389066,0.44960451126098633,2019-07-25 15:40:09:715,108.19063033800026,-108.35308543082915,0,-22.041025161743164,9.44615364074707,-41.53308868408203
-0.23093529045581818,-0.1350327581167221,9.811464309692383,0.0021419707119635363,0.00012013789667006295,-0.04624669530728308,0.45963549613952637,2019-07-25 15:40:09:726,109.5997832954304,-109.77146020505245,0,-22.041025161743164,9.44615364074707,-41.53308868408203
-0.24530379474163055,-0.13742749392986298,9.83541202545166,0.0002773027863296734,0.0017184247190966692,-0.04464841166263963,0.4696321487426758,2019-07-25 15:40:09:736,110.97824884423045,-111.16017613402664,0,-22.041025161743164,9.44615364074707,-41.53308868408203
-0.18543504178524017,-0.12545375525951385,9.811464309692383,-0.0015873652043227706,-0.0001462432553011296,-0.04464841166263963,0.4796299934387207,2019-07-25 15:40:09:746,112.33711092935636,-112.52143011105154,0,-22.041025161743164,9.44615364074707,-41.53308868408203
-0.216566801071167,-0.15898025035858154,9.818648338317871,-0.00212012745950122,0.0019848058466858938,-0.04997603213382952,0.4896266460418701,2019-07-25 15:40:09:755,113.66398362017807,-113.8512588001525,0,-22.041025161743164,9.44615364074707,-41.53308868408203
-0.216566801071167,-0.13742749392986298,9.780332565307617,-0.007181369403845137,0.00118566246391822,-0.04757860042508055,0.4996342658996582,2019-07-25 15:40:09:766,114.96466772449858,-115.15409754858888,0,-22.041025161743164,9.44615364074707,-41.53308868408203
-0.19261929392814636,-0.15658549964427948,9.818648338317871,-0.0018537463319119952,0.00784519091372316,-0.045713934092401924,0.509631872177124,2019-07-25 15:40:09:776,116.23849301578257,-116.43170172684654,0,-22.041025161743164,9.44615364074707,-41.53308868408203
-0.20698779821395874,-0.14700649678707123,9.809069633483887,-0.0058494637658990135,0.0014520435915074442,-0.04731222189823458,0.5196366310119629,2019-07-25 15:40:09:786,117.48873029686413,-117.68260934909668,0,-22.041025161743164,9.44615364074707,-41.53308868408203
-0.24530379474163055,-0.1350327581167221,9.801885604858398,-0.005050319862982691,-0.00041262439914499955,-0.04171821873900951,0.5296308994293213,2019-07-25 15:40:09:796,118.71051533635605,-118.91033767338246,0,-22.041025161743164,9.44615364074707,-41.53308868408203
-0.20459304749965668,-0.11826950311660767,9.777937889099121,-0.0031856519698581177,-0.0001462432553011296,-0.04278374116877181,0.5396370887756348,2019-07-25 15:40:09:806,119.9124136177733,-120.11648127404655,0,-22.041025161743164,9.44615364074707,-41.53308868408203
-0.20698779821395874,-0.15898025035858154,9.78512191772461,-0.004251176740289341,0.00012013789667006295,-0.043316502383652956,0.5496280193328857,2019-07-25 15:40:09:815,121.08986164666088,-121.29315056986965,0,-22.041025161743164,9.44615364074707,-41.53308868408203
-0.19261929392814636,-0.1494012475013733,9.871333122253418,-0.0029192708422688934,0.0009192813363289952,-0.042517362641925835,0.559633731842041,2019-07-25 15:40:09:826,122.2451905334221,-122.4483055072073,0,-22.041025161743164,9.44615364074707,-41.53308868408203
-0.24769854545593262,-0.14700649678707123,9.854569435119629,-0.0005218406614565815,0.00118566246391822,-0.04358288507168813,0.5696303844451904,2019-07-25 15:40:09:836,123.3708242144278,-123.58195344305312,0,-22.041025161743164,9.44615364074707,-41.53308868408203
-0.22135628759860992,-0.11108525097370148,9.823437690734863,-0.004517557607804241,-0.0001462432553011296,-0.0470458392101994,0.5796387195587158,2019-07-25 15:40:09:846,124.47767281102573,-124.69481798424191,0,-22.041025161743164,9.44615364074707,-41.53308868408203
-0.216566801071167,-0.12784850597381592,9.80667495727539,-0.0010546029491443213,0.002251186974275118,-0.04171821873900951,0.5896027088165283,2019-07-25 15:40:09:855,125.5615580260129,-125.78539327390115,0,-22.041025161743164,9.44615364074707,-41.53308868408203
-0.2285405397415161,-0.17813824117183685,9.818648338317871,-0.006115844893488239,0.0009192813363289952,-0.0481113658011509,0.599745512008667,2019-07-25 15:40:09:866,126.62313560697565,-126.84541443933604,0,-22.041025161743164,9.44615364074707,-41.53308868408203
-0.2285405397415161,-0.12545375525951385,9.775543212890625,-0.006648607148666687,-0.002277292454816025,-0.04544755140436675,0.6096639633178711,2019-07-25 15:40:09:876,127.6651559035143,-127.89009818938982,0,-21.441268920898438,8.546520233154297,-42.43272399902344
-0.223751038312912,-0.1613750010728836,9.753990173339844,-0.0029192708422688934,0.0017184247190966692,-0.03772249922442789,0.6197431087493896,2019-07-25 15:40:09:886,128.6845982070642,-128.91168720176455,0,-21.441268920898438,8.546520233154297,-42.43272399902344
-0.223751038312912,-0.15419074892997742,9.833017349243164,-0.0031856519698581177,0.00118566246391822,-0.03852164312734421,0.6296708583831787,2019-07-25 15:40:09:896,129.68417441011587,-129.91371010518705,0,-21.441268920898438,8.546520233154297,-42.43272399902344
-0.23093529045581818,-0.16376975178718567,9.823437690734863,-0.0010546029491443213,0.0006529002087397708,-0.04358288507168813,0.6396362781524658,2019-07-25 15:40:09:906,130.6631916740922,-130.89574362757563,0,-21.441268920898438,8.546520233154297,-42.43272399902344
-0.18064555525779724,-0.15658549964427948,9.828227996826172,-0.0029192708422688934,0.0019848058466858938,-0.04171821873900951,0.6496415138244629,2019-07-25 15:40:09:916,131.62775291647094,-131.8579332943936,0,-21.441268920898438,8.546520233154297,-42.43272399902344
-0.20698779821395874,-0.13982224464416504,9.813858985900879,-0.0010546029491443213,0.002251186974275118,-0.04198459726585548,0.6596391201019287,2019-07-25 15:40:09:926,132.56976876760683,-132.8038573673651,0,-21.441268920898438,8.546520233154297,-42.43272399902344
-0.171066552400589,-0.1422169953584671,9.84738540649414,-0.0002554595176127117,0.003583092872295566,-0.04278374116877181,0.6696431636810303,2019-07-25 15:40:09:936,133.49645609255444,-133.73108843653844,0,-21.441268920898438,8.546520233154297,-42.43272399902344
-0.17346130311489105,-0.17095398902893066,9.76596450805664,-0.0039847956127001165,-0.0014781489420111885,-0.04464841166263963,0.6796185970306396,2019-07-25 15:40:09:945,134.40700350395394,-134.63417741174587,0,-21.441268920898438,8.546520233154297,-42.43272399902344
-0.1974087953567505,-0.14700649678707123,9.773148536682129,-0.004517557607804241,0.00118566246391822,-0.04171821873900951,0.6896266937255859,2019-07-25 15:40:09:955,135.29505383164076,-135.5217197858614,0,-21.441268920898438,8.546520233154297,-42.43272399902344
-0.18543504178524017,-0.11108525097370148,9.780332565307617,-0.004251176740289341,-0.002810054709994474,-0.04278374116877181,0.6996221542358398,2019-07-25 15:40:09:965,136.16900593137933,-136.3958846667604,0,-21.441268920898438,8.546520233154297,-42.43272399902344
-0.1902245432138443,-0.12784850597381592,9.86414909362793,-0.0029192708422688934,-0.0009453866868327393,-0.04225097995389066,0.7096145153045654,2019-07-25 15:40:09:975,137.02406064450423,-137.25147776342018,0,-21.441268920898438,8.546520233154297,-42.43272399902344
-0.21896153688430786,-0.11348000168800354,9.823437690734863,-0.003718414485110892,0.002517568101864343,-0.04411564628656928,0.7196180820465088,2019-07-25 15:40:09:985,137.85662742365741,-138.09112259156805,0,-21.441268920898438,8.546520233154297,-42.43272399902344
-0.21417205035686493,-0.13024325668811798,9.854569435119629,-0.0047839387353934655,0.00118566246391822,-0.04411564628656928,0.7296221256256104,2019-07-25 15:40:09:995,138.6739282814509,-138.911468727301,0,-22.790719985961914,8.396581649780273,-42.58266067504883
-0.23333004117012024,-0.11826950311660767,9.816253662109375,-0.003452033357521668,0.003583092872295566,-0.04464841166263963,0.739626407623291,2019-07-25 15:40:10:005,139.47120393657337,-139.71749450492436,0,-22.790719985961914,8.396581649780273,-42.58266067504883
-0.2093825489282608,-0.12545375525951385,9.86414909362793,-0.001320984076733546,0.003583092872295566,-0.04091907483609319,0.7496230602264404,2019-07-25 15:40:10:015,140.2554483664414,-140.50782998850454,0,-22.790719985961914,8.396581649780273,-42.58266067504883
-0.23811954259872437,-0.1757434904575348,9.82583236694336,-0.005316700990571915,0.0006529002087397708,-0.042517362641925835,0.7596163749694824,2019-07-25 15:40:10:025,141.0222083202127,-141.2741965601321,0,-22.790719985961914,8.396581649780273,-42.58266067504883
-0.26446178555488586,-0.15658549964427948,9.797096252441406,-0.006115844893488239,0.0017184247190966692,-0.04438202897460446,0.7696163654327393,2019-07-25 15:40:10:035,141.76987404666758,-142.02696515828072,0,-22.790719985961914,8.396581649780273,-42.58266067504883
-0.25248804688453674,-0.18053299188613892,9.840201377868652,-0.0047839387353934655,0.0017184247190966692,-0.04624669530728308,0.7796230316162109,2019-07-25 15:40:10:045,142.50411462707672,-142.76271673789898,0,-22.790719985961914,8.396581649780273,-42.58266067504883
-0.2285405397415161,-0.1422169953584671,9.813858985900879,-0.003718414485110892,0.00438223625506324,-0.0470458392101994,0.7896270751953125,2019-07-25 15:40:10:055,143.22488999806356,-143.4887688640236,0,-22.790719985961914,8.396581649780273,-42.58266067504883
-0.1974087953567505,-0.1494012475013733,9.830622673034668,-0.005050319862982691,0.00118566246391822,-0.04065269214805801,0.79962158203125,2019-07-25 15:40:10:065,143.93671877012417,-144.19874554322908,0,-22.790719985961914,8.396581649780273,-42.58266067504883
-0.223751038312912,-0.1350327581167221,9.813858985900879,-0.0007882218215550968,0.0027839492294535677,-0.044914790189485604,0.8096165657043457,2019-07-25 15:40:10:075,144.630300222843,-144.89856215904186,0,-22.790719985961914,8.396581649780273,-42.58266067504883
-0.29080402851104736,-0.13024325668811798,9.777937889099121,-0.001320984076733546,-0.003609198092762148,-0.04065269214805801,0.8196582794189453,2019-07-25 15:40:10:086,145.30565878921487,-145.58458326630455,0,-22.790719985961914,8.396581649780273,-42.58266067504883
-0.24530379474163055,-0.12784850597381592,9.80667495727539,-0.004251176740289341,0.0027839492294535677,-0.04278374116877181,0.8296191692352295,2019-07-25 15:40:10:095,145.96933063040723,-146.25557558180128,0,-22.790719985961914,8.396581649780273,-42.58266067504883
-0.223751038312912,-0.17095398902893066,9.897675514221191,-0.006382226021077464,-0.0014781489420111885,-0.04198459726585548,0.8396246433258057,2019-07-25 15:40:10:105,146.62487380990163,-146.90708805615554,0,-22.790719985961914,8.396581649780273,-42.58266067504883
-0.20459304749965668,-0.13742749392986298,9.854569435119629,-0.004251176740289341,0.0038494739998847904,-0.04544755140436675,0.8496251106262207,2019-07-25 15:40:10:115,147.26642755087323,-147.55057975420831,0,-22.790719985961914,8.396581649780273,-42.58266067504883
-0.23093529045581818,-0.13263800740242004,9.768359184265137,-0.0005218406614565815,0.003583092872295566,-0.03958716971829571,0.8596289157867432,2019-07-25 15:40:10:125,147.89200061015802,-148.183716370579,0,-23.540414810180664,7.9467644691467285,-40.93333435058594
-0.2093825489282608,-0.14461174607276917,9.849780082702637,-0.0031856519698581177,0.0006529002087397708,-0.041185453362939155,0.8696351051330566,2019-07-25 15:40:10:136,148.509438037283,-148.80142938981456,0,-23.540414810180664,7.9467644691467285,-40.93333435058594
-0.21177729964256287,-0.15898025035858154,9.768359184265137,-0.0029192708422688934,-0.002277292454816025,-0.04065269214805801,0.8796260356903076,2019-07-25 15:40:10:145,149.11568733997595,-149.40511496817697,0,-23.540414810180664,7.9467644691467285,-40.93333435058594
-0.18782979249954224,-0.17813824117183685,9.80667495727539,-0.004517557607804241,0.002251186974275118,-0.04917688823091319,0.8896174430847168,2019-07-25 15:40:10:155,149.71016530523542,-149.99366497940122,0,-23.540414810180664,7.9467644691467285,-40.93333435058594
-0.1974087953567505,-0.17095398902893066,9.871333122253418,-0.006648607148666687,0.0027839492294535677,-0.04757860042508055,0.899616003036499,2019-07-25 15:40:10:165,150.2914858570443,-150.57021579072878,0,-23.540414810180664,7.9467644691467285,-40.93333435058594
-0.15909279882907867,-0.15419074892997742,9.861754417419434,0.0008100650740174133,0.003583092872295566,-0.04305012385680698,0.9096195697784424,2019-07-25 15:40:10:175,150.86515886780438,-151.14135129928763,0,-23.540414810180664,7.9467644691467285,-40.93333435058594
-0.1974087953567505,-0.1685592532157898,9.809069633483887,-0.0023865085870904443,-0.0012117678144219638,-0.04757860042508055,0.919619083404541,2019-07-25 15:40:10:185,151.42547747656798,-151.6974948180998,0,-23.540414810180664,7.9467644691467285,-40.93333435058594
-0.18543504178524017,-0.1613750010728836,9.842596054077148,-0.0039847956127001165,0.0027839492294535677,-0.04225097995389066,0.9296343326568604,2019-07-25 15:40:10:196,151.97381580171233,-152.24251779309878,0,-23.540414810180664,7.9467644691467285,-40.93333435058594
-0.20698779821395874,-0.17334873974323273,9.859359741210938,-0.0039847956127001165,0.0019848058466858938,-0.04518117287752078,0.9396302700042725,2019-07-25 15:40:10:206,152.5091716077911,-152.77528530508656,0,-23.540414810180664,7.9467644691467285,-40.93333435058594
-0.17346130311489105,-0.19250674545764923,9.840201377868652,-0.003452033357521668,-0.0009453866868327393,-0.04624669530728308,0.9496171474456787,2019-07-25 15:40:10:215,153.03932041003014,-153.29542880703636,0,-23.540414810180664,7.9467644691467285,-40.93333435058594
-0.23093529045581818,-0.13024325668811798,9.854569435119629,-0.003452033357521668,0.00012013789667006295,-0.04225097995389066,0.9596436023712158,2019-07-25 15:40:10:226,153.55161750935778,-153.8124326399033,0,-23.540414810180664,7.9467644691467285,-40.93333435058594
-0.1830402910709381,-0.17095398902893066,9.830622673034668,-0.0018537463319119952,0.005447760765420138,-0.04358288507168813,0.9696202278137207,2019-07-25 15:40:10:235,154.05619960391107,-154.31522014319435,0,-23.540414810180664,7.9467644691467285,-40.93333435058594
-0.17585605382919312,-0.11348000168800354,9.823437690734863,-0.007447750531434362,0.005447760765420138,-0.04198459726585548,0.979647159576416,2019-07-25 15:40:10:246,154.5514968382803,-154.81148558872744,0,-23.540414810180664,7.9467644691467285,-40.93333435058594
-0.171066552400589,-0.15419074892997742,9.770753860473633,-0.0007882218215550968,-0.0001462432553011296,-0.045713934092401924,0.9896221160888672,2019-07-25 15:40:10:255,155.04048814794268,-155.29673238485108,0,-23.540414810180664,7.9467644691467285,-40.93333435058594
-0.19261929392814636,-0.16376975178718567,9.780332565307617,-0.0047839387353934655,0.002251186974275118,-0.04198459726585548,0.9996249675750732,2019-07-25 15:40:10:265,155.5158486061553,-155.7689244572293,0,-23.540414810180664,7.9467644691467285,-40.93333435058594
-0.21417205035686493,-0.12305900454521179,9.794700622558594,-0.0029192708422688934,0.0003865190486412555,-0.04198459726585548,1.0096356868743896,2019-07-25 15:40:10:276,155.98026164166302,-156.237508707223,0,-23.540414810180664,7.9467644691467285,-40.93333435058594
-0.17346130311489105,-0.13742749392986298,9.82583236694336,-0.0023865085870904443,0.0003865190486412555,-0.045980316780437104,1.0196294784545898,2019-07-25 15:40:10:285,156.4402120806038,-156.6953932163924,0,-23.540414810180664,7.9467644691467285,-40.93333435058594
-0.18543504178524017,-0.17095398902893066,9.811464309692383,-0.0010546029491443213,0.0006529002087397708,-0.03932078703026053,1.0296130180358887,2019-07-25 15:40:10:295,156.88938680417618,-157.14092986830656,0,-23.540414810180664,7.9467644691467285,-40.93333435058594
-0.2429090440273285,-0.13742749392986298,9.811464309692383,-0.0026528897146796686,0.0017184247190966692,-0.04171821873900951,1.0396440029144287,2019-07-25 15:40:10:306,157.32226677385742,-157.58056746834612,0,-23.540414810180664,7.9467644691467285,-40.93333435058594
-0.20219829678535461,-0.13024325668811798,9.794700622558594,-0.004517557607804241,-0.0014781489420111885,-0.043316502383652956,1.049621820449829,2019-07-25 15:40:10:315,157.75299706380588,-158.01118843642482,0,-23.540414810180664,7.9467644691467285,-40.93333435058594
-0.23093529045581818,-0.11826950311660767,9.823437690734863,-0.004251176740289341,0.0033167117447063417,-0.03958716971829571,1.05964994430542,2019-07-25 15:40:10:326,158.1691356428481,-158.43477531402561,0,-23.540414810180664,7.9467644691467285,-40.93333435058594
-0.23811954259872437,-0.16376975178718567,9.900070190429688,-0.0029192708422688934,-0.0006790055592435148,-0.043316502383652956,1.0696256160736084,2019-07-25 15:40:10:335,158.57857666096928,-158.84549029903607,0,-23.540414810180664,7.9467644691467285,-40.93333435058594
-0.23333004117012024,-0.15658549964427948,9.811464309692383,-0.0015873652043227706,0.00012013789667006295,-0.04038631362121203,1.0796515941619873,2019-07-25 15:40:10:346,158.97969119079045,-159.2494002527955,0,-23.540414810180664,7.9467644691467285,-40.93333435058594
-0.216566801071167,-0.13263800740242004,9.813858985900879,-0.0039847956127001165,0.0006529002087397708,-0.03852164312734421,1.0896449089050293,2019-07-25 15:40:10:356,159.37444768288097,-159.64668974752138,0,-23.540414810180664,7.9467644691467285,-40.93333435058594
-0.2093825489282608,-0.11348000168800354,9.833017349243164,-0.0029192708422688934,0.0033167117447063417,-0.03932078703026053,1.099625587463379,2019-07-25 15:40:10:365,159.76070275954766,-160.03889586063175,0,-23.540414810180664,7.9467644691467285,-40.93333435058594
-0.24530379474163055,-0.14700649678707123,9.797096252441406,-0.00798051278661281,-0.0006790055592435148,-0.04438202897460446,1.1096253395080566,2019-07-25 15:40:10:375,160.13718403525291,-160.4164437094634,0,-21.89108657836914,8.09670352935791,-42.28278350830078
-0.223751038312912,-0.12545375525951385,9.777937889099121,-0.001320984076733546,0.002251186974275118,-0.043316502383652956,1.1196248531341553,2019-07-25 15:40:10:385,160.50695867545843,-160.79267152067246,0,-21.89108657836914,8.09670352935791,-42.28278350830078
-0.1830402910709381,-0.13024325668811798,9.804280281066895,1.0921627247073539e-05,0.0019848058466858938,-0.04091907483609319,1.1296372413635254,2019-07-25 15:40:10:396,160.8743125535802,-161.16160240929355,0,-21.89108657836914,8.09670352935791,-42.28278350830078
-0.23811954259872437,-0.1613750010728836,9.833017349243164,-0.001320984076733546,-0.0006790055592435148,-0.04438202897460446,1.1396493911743164,2019-07-25 15:40:10:406,161.22946358476804,-161.51882317268306,0,-21.89108657836914,8.09670352935791,-42.28278350830078
-0.216566801071167,-0.13982224464416504,9.840201377868652,-0.00558308263830979,0.00118566246391822,-0.04411564628656928,1.1496272087097168,2019-07-25 15:40:10:415,161.5789943774407,-161.86903722220293,0,-21.89108657836914,8.09670352935791,-42.28278350830078
-0.20698779821395874,-0.13742749392986298,9.86414909362793,0.0013428273291958624,-0.00041262439914499955,-0.045980316780437104,1.1596245765686035,2019-07-25 15:40:10:425,161.92360392754796,-162.21644639222222,0,-21.89108657836914,8.09670352935791,-42.28278350830078
-0.2093825489282608,-0.13024325668811798,9.773148536682129,-0.003718414485110892,-0.002277292454816025,-0.04651307799531825,1.169633388519287,2019-07-25 15:40:10:436,162.26186502538332,-162.5547574364154,0,-21.89108657836914,8.09670352935791,-42.28278350830078
-0.2093825489282608,-0.15898025035858154,9.813858985900879,-0.003718414485110892,0.00012013789667006295,-0.04358288507168813,1.1796338558197021,2019-07-25 15:40:10:446,162.592115412396,-162.88301259448994,0,-21.89108657836914,8.09670352935791,-42.28278350830078
-0.20459304749965668,-0.1494012475013733,9.792305946350098,-0.0058494637658990135,0.0009192813363289952,-0.04358288507168813,1.1896469593048096,2019-07-25 15:40:10:456,162.91581784020815,-163.2045816908955,0,-21.89108657836914,8.09670352935791,-42.28278350830078
-0.19980354607105255,-0.20448049902915955,9.84738540649414,-0.0010546029491443213,0.004115855127474016,-0.04065269214805801,1.1996409893035889,2019-07-25 15:40:10:466,163.23194436738277,-163.51610678774966,0,-21.89108657836914,8.09670352935791,-42.28278350830078
-0.276435524225235,-0.1613750010728836,9.868938446044922,-0.003718414485110892,0.0027839492294535677,-0.03905440434222536,1.2096278667449951,2019-07-25 15:40:10:475,163.533654881114,-163.82496338354696,0,-21.89108657836914,8.09670352935791,-42.28278350830078
-0.19261929392814636,-0.1494012475013733,9.792305946350098,-0.004251176740289341,0.0014520435915074442,-0.04464841166263963,1.2196321487426758,2019-07-25 15:40:10:486,163.8396283182319,-164.12859418183075,0,-21.89108657836914,8.09670352935791,-42.28278350830078
-0.18064555525779724,-0.1757434904575348,9.811464309692383,-0.004251176740289341,0.00438223625506324,-0.044914790189485604,1.2296473979949951,2019-07-25 15:40:10:496,164.1392755306609,-164.4231081196172,0,-21.89108657836914,8.09670352935791,-42.28278350830078
-0.2093825489282608,-0.1685592532157898,9.773148536682129,-0.0029192708422688934,0.00012013789667006295,-0.04038631362121203,1.2396266460418701,2019-07-25 15:40:10:505,164.4318760557599,-164.71324833894778,0,-21.89108657836914,8.09670352935791,-42.28278350830078
-0.21417205035686493,-0.1613750010728836,9.787516593933105,-0.0023865085870904443,0.0017184247190966692,-0.03878802581537939,1.2496297359466553,2019-07-25 15:40:10:516,164.7172022307357,-164.99875097644417,0,-21.89108657836914,8.09670352935791,-42.28278350830078
-0.25727754831314087,-0.15658549964427948,9.818648338317871,-0.0023865085870904443,0.0014520435915074442,-0.043316502383652956,1.2596383094787598,2019-07-25 15:40:10:526,164.99202266720692,-165.279161542835,0,-21.89108657836914,8.09670352935791,-42.28278350830078
-0.1974087953567505,-0.13982224464416504,9.80667495727539,-0.003452033357521668,0.003050330357042792,-0.03985354824514169,1.2696268558502197,2019-07-25 15:40:10:535,165.26740720336068,-165.5553050175641,0,-21.89108657836914,8.09670352935791,-42.28278350830078
-0.23093529045581818,-0.1422169953584671,9.833017349243164,-0.0002554595176127117,0.0006529002087397708,-0.043316502383652956,1.2796010971069336,2019-07-25 15:40:10:545,165.53478571835527,-165.82748338414504,0,-21.89108657836914,8.09670352935791,-42.28278350830078
-0.1974087953567505,-0.0895325094461441,9.782727241516113,-0.001320984076733546,-0.002810054709994474,-0.03825526043930904,1.2896113395690918,2019-07-25 15:40:10:555,165.80254880114464,-166.0997039833704,0,-21.89108657836914,8.09670352935791,-42.28278350830078
-0.2357247918844223,-0.13263800740242004,9.823437690734863,-0.00212012745950122,0.0014520435915074442,-0.041185453362939155,1.2996406555175781,2019-07-25 15:40:10:566,166.0581878155183,-166.36104452528866,0,-21.89108657836914,8.09670352935791,-42.28278350830078
-0.1902245432138443,-0.12066425383090973,9.849780082702637,-0.00212012745950122,0.005181379637830914,-0.04065269214805801,1.3096106052398682,2019-07-25 15:40:10:575,166.31199564275693,-166.6185994821746,0,-21.89108657836914,8.09670352935791,-42.28278350830078
-0.19261929392814636,-0.14461174607276917,9.78512191772461,-0.0047839387353934655,0.00118566246391822,-0.04305012385680698,1.3196165561676025,2019-07-25 15:40:10:585,166.56253524772174,-166.86660576624683,0,-21.89108657836914,8.09670352935791,-42.28278350830078
-0.2093825489282608,-0.1350327581167221,9.792305946350098,-0.0023865085870904443,0.0014520435915074442,-0.046779460683353424,1.3296105861663818,2019-07-25 15:40:10:595,166.80597106977203,-167.1121336226382,0,-21.89108657836914,8.09670352935791,-42.28278350830078
-0.21177729964256287,-0.13742749392986298,9.804280281066895,-0.0002554595176127117,0.0027839492294535677,-0.04198459726585548,1.3396415710449219,2019-07-25 15:40:10:606,167.04353512665432,-167.35368571372035,0,-21.89108657836914,8.09670352935791,-42.28278350830078
-0.19980354607105255,-0.13024325668811798,9.840201377868652,-0.003718414485110892,0.006246904148187811,-0.03932078703026053,1.3496088981628418,2019-07-25 15:40:10:615,167.2759038401253,-167.58936467534554,0,-21.89108657836914,8.09670352935791,-42.28278350830078
-0.13514530658721924,-0.16616450250148773,9.773148536682129,-0.0029192708422688934,-0.00041262439914499955,-0.04757860042508055,1.3596465587615967,2019-07-25 15:40:10:626,167.51477335407222,-167.8164508943848,0,-23.090599060058594,9.296215057373047,-41.68302917480469
-0.18782979249954224,-0.19729624688625336,9.775543212890625,-0.003452033357521668,-0.005740247113475944,-0.03985354824514169,1.3696341514587402,2019-07-25 15:40:10:636,167.7456818220476,-168.03506150969486,0,-23.090599060058594,9.296215057373047,-41.68302917480469
-0.1830402910709381,-0.1685592532157898,9.797096252441406,-0.003718414485110892,-0.00041262439914499955,-0.04464841166263963,1.3796470165252686,2019-07-25 15:40:10:646,167.9695933877024,-168.25255615120184,0,-23.090599060058594,9.296215057373047,-41.68302917480469
-0.1974087953567505,-0.1685592532157898,9.878517150878906,-0.0018537463319119952,0.0027839492294535677,-0.04518117287752078,1.3896446228027344,2019-07-25 15:40:10:656,168.18574218582984,-168.46691329553425,0,-23.090599060058594,9.296215057373047,-41.68302917480469
-0.19261929392814636,-0.11348000168800354,9.751595497131348,-0.0031856519698581177,0.0003865190486412555,-0.04411564628656928,1.3996493816375732,2019-07-25 15:40:10:666,168.39917834808125,-168.6824509408443,0,-23.090599060058594,9.296215057373047,-41.68302917480469
-0.22614578902721405,-0.14461174607276917,9.777937889099121,-0.0047839387353934655,-0.0001462432553011296,-0.04757860042508055,1.4096438884735107,2019-07-25 15:40:10:676,168.60477864731567,-168.8891708299571,0,-23.090599060058594,9.296215057373047,-41.68302917480469
-0.21896153688430786,-0.13263800740242004,9.828227996826172,-0.0010546029491443213,0.0019848058466858938,-0.045980316780437104,1.419651746749878,2019-07-25 15:40:10:686,168.80604228323753,-169.09533088999302,0,-23.090599060058594,9.296215057373047,-41.68302917480469
-0.1974087953567505,-0.10390100628137589,9.794700622558594,-0.0007882218215550968,0.0006529002087397708,-0.04411564628656928,1.4296789169311523,2019-07-25 15:40:10:696,169.0064614339303,-169.30082520534705,0,-23.090599060058594,9.296215057373047,-41.68302917480469
-0.23093529045581818,-0.13263800740242004,9.792305946350098,-0.007447750531434362,0.0017184247190966692,-0.045980316780437104,1.439647912979126,2019-07-25 15:40:10:706,169.19835079396083,-169.49511914431469,0,-23.090599060058594,9.296215057373047,-41.68302917480469
-0.25727754831314087,-0.12545375525951385,9.859359741210938,-0.004251176740289341,0.00118566246391822,-0.04438202897460446,1.4496536254882812,2019-07-25 15:40:10:716,169.3838220510892,-169.6882481456443,0,-23.090599060058594,9.296215057373047,-41.68302917480469
-0.23811954259872437,-0.1494012475013733,9.84738540649414,-0.0026528897146796686,0.003583092872295566,-0.041185453362939155,1.459648609161377,2019-07-25 15:40:10:726,169.56643074125924,-169.87561022053805,0,-23.090599060058594,9.296215057373047,-41.68302917480469
-0.314751535654068,-0.19969099760055542,9.78512191772461,-0.00558308263830979,-0.0006790055592435148,-0.04464841166263963,1.4698121547698975,2019-07-25 15:40:10:736,169.7386424194438,-170.0515296948434,0,-23.090599060058594,9.296215057373047,-41.68302917480469
-0.3530675172805786,-0.1949014961719513,9.964728355407715,-0.009046037296969709,-0.0014781489420111885,-0.04278374116877181,1.479642391204834,2019-07-25 15:40:10:746,169.90410067110363,-170.22309572835786,0,-23.090599060058594,9.296215057373047,-41.68302917480469
-0.29080402851104736,-0.20687523484230042,9.833017349243164,-0.0007882218215550968,-0.0009453866868327393,-0.049443270918948366,1.489631175994873,2019-07-25 15:40:10:756,170.07266918658513,-170.39408655119553,0,-23.090599060058594,9.296215057373047,-41.68302917480469
-0.3003830313682556,-0.12545375525951385,9.751595497131348,-0.0047839387353934655,-0.0009453866868327393,-0.04225097995389066,1.4996521472930908,2019-07-25 15:40:10:766,170.23646072472133,-170.56877168218352,0,-23.090599060058594,9.296215057373047,-41.68302917480469
-0.27164602279663086,-0.06797976046800613,9.753990173339844,-0.003718414485110892,-0.0041419603479405966,-0.044914790189485604,1.5096313953399658,2019-07-25 15:40:10:776,170.40214719264478,-170.74732644642015,0,-23.090599060058594,9.296215057373047,-41.68302917480469
-0.3458832800388336,-0.1158747524023056,9.816253662109375,-0.007447750531434362,0.00438223625506324,-0.04757860042508055,1.5196442604064941,2019-07-25 15:40:10:786,170.55127994035104,-170.9146664450239,0,-23.090599060058594,9.296215057373047,-41.68302917480469
-0.28601452708244324,-0.15658549964427948,9.777937889099121,-0.012775373083218853,-0.005740247113475944,-0.04544755140436675,1.5296449661254883,2019-07-25 15:40:10:796,170.7099680803035,-171.0708499437174,0,-23.090599060058594,9.296215057373047,-41.68302917480469
-0.27883028984069824,-0.05121651291847229,9.859359741210938,-0.010111561807326608,-0.001744530069600413,-0.04464841166263963,1.5396349430084229,2019-07-25 15:40:10:806,170.86434854803764,-171.23780836196903,0,-23.090599060058594,9.296215057373047,-41.68302917480469
-0.32433053851127625,-0.13982224464416504,9.770753860473633,0.005604925760734943,-0.0001462432553011296,-0.045980316780437104,1.549642562866211,2019-07-25 15:40:10:816,171.0091201783468,-171.39980449481905,0,-23.090599060058594,9.296215057373047,-41.68302917480469
-0.31235677003860474,-0.20448049902915955,9.82583236694336,-0.01677109051720587,-0.0060066282410651695,-0.04624669530728308,1.5596363544464111,2019-07-25 15:40:10:826,171.15589275243906,-171.5385536704104,0,-23.090599060058594,9.296215057373047,-41.68302917480469
-0.3410937786102295,-0.07755875587463379,9.93359661102295,-0.001320984076733546,-0.002810054709994474,-0.04651307799531825,1.5696346759796143,2019-07-25 15:40:10:836,171.2950201776628,-171.69809418273928,0,-23.090599060058594,9.296215057373047,-41.68302917480469
-0.1303558051586151,-0.027269015088677406,9.660594940185547,0.002674733097179148,0.0009192813363289952,-0.041185453362939155,1.5796380043029785,2019-07-25 15:40:10:846,171.45314188612443,-171.8624000842243,0,-23.090599060058594,9.296215057373047,-41.68302917480469
-0.0010393214179202914,0.015836479142308235,9.730042457580566,0.006137688015913392,0.005980523020598588,-0.04011993093317686,1.5896828174591064,2019-07-25 15:40:10:856,171.62058354256752,-164.83047890430228,0,-23.090599060058594,9.296215057373047,-41.68302917480469
-0.2668565511703491,-0.10150625556707382,9.809069633483887,0.004805782377967269,0.003050330357042792,-0.04091907483609319,1.5998787879943848,2019-07-25 15:40:10:866,171.75525850948927,-165.12476290268907,0,-23.090599060058594,9.296215057373047,-41.68302917480469
-0.35067278146743774,-0.3505602180957794,9.885701179504395,-0.013041754730956728,-0.0014781489420111885,-0.035058688988832944,1.6098568439483643,2019-07-25 15:40:10:876,171.88034978221768,-165.37434210373044,0,-22.041025161743164,8.546520233154297,-43.03247833251953
-0.23811954259872437,-0.39366573095321655,9.940780639648438,-0.009312417904410284,0.0006529002087397708,-0.04411564628656928,1.6196582317352295,2019-07-25 15:40:10:886,172.01493967222456,-165.61637439962766,0,-22.041025161743164,8.546520233154297,-43.03247833251953
-0.28601452708244324,-0.33379697799682617,9.902464866638184,-0.0026528897146796686,0.0038494739998847904,-0.04624669530728308,1.6296515464782715,2019-07-25 15:40:10:896,172.13939237941398,-165.86394586797408,0,-22.041025161743164,8.546520233154297,-43.03247833251953
0.13306665420532227,-0.22842799127101898,9.828227996826172,-0.0015873652043227706,0.005980523020598588,-0.044914790189485604,1.6396489143371582,2019-07-25 15:40:10:906,165.1087612287387,-166.11914726896825,0,-22.041025161743164,8.546520233154297,-43.03247833251953
-0.09922406077384949,-0.3457707166671753,9.873727798461914,0.002674733097179148,0.0019848058466858938,-0.04225097995389066,1.6499450206756592,2019-07-25 15:40:10:916,165.3939232754987,-166.35819792084408,0,-22.041025161743164,8.546520233154297,-43.03247833251953
0.0588294193148613,-0.21645423769950867,9.907254219055176,-0.010910705710242932,-0.0001462432553011296,-0.045713934092401924,1.6596264839172363,2019-07-25 15:40:10:925,158.49292869313024,-166.60007071793027,0,-22.041025161743164,8.546520233154297,-43.03247833251953
0.11151391267776489,-0.2404017448425293,9.653410911560059,0.005338544633145719,0.01077538383735328,-0.05530365676620862,1.6696181297302246,2019-07-25 15:40:10:935,151.73026156677028,-166.84253320740245,0,-22.041025161743164,8.546520233154297,-43.03247833251953
0.10911916196346283,-0.1757434904575348,9.818648338317871,0.002674733097179148,0.008377953168901608,-0.05450451286329229,1.679619312286377,2019-07-25 15:40:10:945,145.10368613339418,-167.08667608453814,0,-22.041025161743164,8.546520233154297,-43.03247833251953
0.06122417002916336,-0.06558500975370407,9.801885604858398,-0.003452033357521668,0.0014520435915074442,-0.046779460683353424,1.6896240711212158,2019-07-25 15:40:10:955,138.60795418410405,-167.33533605226384,0,-22.041025161743164,8.546520233154297,-43.03247833251953
0.0588294193148613,-0.07755875587463379,9.720463752746582,0.0016092084567850867,0.0057141418930093625,-0.04917688823091319,1.6996161937713623,2019-07-25 15:40:10:965,132.23952427968229,-167.5803892185171,0,-22.041025161743164,8.546520233154297,-43.03247833251953
-0.010618319734930992,-0.060795512050390244,9.799490928649902,-0.0007882218215550968,0.007046047530955486,-0.04864412701603205,1.709620475769043,2019-07-25 15:40:10:975,133.1895340880182,-167.82122955197372,0,-22.041025161743164,8.546520233154297,-43.03247833251953
-0.005828820634633303,-0.11826950311660767,9.78512191772461,-0.004251176740289341,0.007046047530955486,-0.04757860042508055,1.7196173667907715,2019-07-25 15:40:10:985,134.12110568900886,-168.0485690481715,0,-22.041025161743164,8.546520233154297,-43.03247833251953
-0.0920398086309433,-0.0895325094461441,9.83541202545166,-0.00558308263830979,-0.0001462432553011296,-0.04970965360698355,1.7296347618103027,2019-07-25 15:40:10:996,135.0280426657059,-168.2740262514313,0,-22.041025161743164,8.546520233154297,-43.03247833251953
-0.1447243094444275,-0.12545375525951385,9.768359184265137,-0.005050319862982691,0.00731242865854471,-0.04864412701603205,1.7396152019500732,2019-07-25 15:40:11:005,135.90640771548965,-168.49099949083757,0,-22.041025161743164,8.546520233154297,-43.03247833251953
-0.2285405397415161,-0.19011199474334717,9.830622673034668,-0.0018537463319119952,0.006246904148187811,-0.04997603213382952,1.749619960784912,2019-07-25 15:40:11:015,136.75813502292226,-168.69798031177012,0,-22.041025161743164,8.546520233154297,-43.03247833251953
-0.2285405397415161,-0.20687523484230042,9.880911827087402,-0.003718414485110892,0.00118566246391822,-0.04438202897460446,1.7596263885498047,2019-07-25 15:40:11:025,137.5958064181124,-168.89794311303763,0,-22.041025161743164,8.546520233154297,-43.03247833251953
-0.3386990427970886,-0.15419074892997742,9.840201377868652,-0.0018537463319119952,0.002517568101864343,-0.03958716971829571,1.769615650177002,2019-07-25 15:40:11:035,138.4030514273811,-169.10099007086197,0,-22.041025161743164,8.546520233154297,-43.03247833251953
-0.32912003993988037,-0.18532249331474304,9.770753860473633,-0.0007882218215550968,0.013172813465507652,-0.03665697679466559,1.779634952545166,2019-07-25 15:40:11:046,139.18899494218115,-169.29679478351363,0,-22.041025161743164,8.546520233154297,-43.03247833251953
-0.3267252743244171,-0.09432200342416763,9.82583236694336,-0.001320984076733546,0.00438223625506324,-0.04278374116877181,1.7896184921264648,2019-07-25 15:40:11:055,139.96466890805388,-169.49911862445165,0,-22.041025161743164,8.546520233154297,-43.03247833251953
-0.3195410370826721,-0.19250674545764923,9.792305946350098,-0.0026528897146796686,0.003583092872295566,-0.04065269214805801,1.7996196746826172,2019-07-25 15:40:11:065,140.72598331122666,-169.68512185176607,0,-22.041025161743164,8.546520233154297,-43.03247833251953
0.516226589679718,0.07570522278547287,9.560015678405762,0.03144389721748433,0.04034369056020316,-0.04065269214805801,1.8096165657043457,2019-07-25 15:40:11:075,134.35063545652017,-162.7181438820995,0,-22.041025161743164,8.546520233154297,-43.03247833251953
0.7054118514060974,0.8947096467018127,8.899065017700195,0.08365460030556694,0.019033198272470592,-0.05423813017525712,1.819624662399292,2019-07-25 15:40:11:085,128.14357197827408,-156.02561517852337,0,-22.041025161743164,8.546520233154297,-43.03247833251953
0.23125140368938446,0.2696799337863922,9.41872501373291,0.005604925760734943,0.03501606592782407,-0.04305012385680698,1.829620122909546,2019-07-25 15:40:11:095,121.98917720770893,-149.34104986292675,0,-22.041025161743164,8.546520233154297,-43.03247833251953
0.38212063908576965,-0.4152184724807739,9.940780639648438,0.007469593653859515,0.008111572041312385,-0.06089765992543368,1.8396151065826416,2019-07-25 15:40:11:105,115.98886828834918,-149.91058475534024,0,-22.041025161743164,8.546520233154297,-43.03247833251953
-0.5254895091056824,-0.15179599821567535,9.70370101928711,0.005871306888324168,0.0067796664033662616,-0.053172607745494815,1.8496203422546387,2019-07-25 15:40:11:115,117.20328735477656,-150.49774730304128,0,-22.041025161743164,8.546520233154297,-43.03247833251953
-0.06809231638908386,-0.12784850597381592,10.20180892944336,-0.00558308263830979,-0.00041262439914499955,-0.049443270918948366,1.8596346378326416,2019-07-25 15:40:11:126,118.45180528840633,-151.07029318298865,0,-22.340904235839844,8.84639835357666,-42.732601165771484
-0.10161881148815155,-0.39366573095321655,9.571989059448242,-0.007181369403845137,-0.004674722603119046,-0.06409423137590978,1.869614839553833,2019-07-25 15:40:11:135,119.67322394501885,-151.59776162222306,0,-22.340904235839844,8.84639835357666,-42.732601165771484
0.1306719183921814,-0.16616450250148773,9.761174201965332,-0.015172803751670527,0.012107288955150754,-0.04358288507168813,1.8796212673187256,2019-07-25 15:40:11:145,113.68829621775848,-152.1377763638158,0,-22.340904235839844,8.84639835357666,-42.732601165771484
-0.04893431439995766,-0.07516400516033173,10.02459716796875,0.026116274665699837,0.011574526699972304,-0.05663556188400609,1.889622688293457,2019-07-25 15:40:11:155,115.00243663287942,-152.7010953074047,0,-22.340904235839844,8.84639835357666,-42.732601165771484
-0.09922406077384949,-0.02966376394033432,9.75638484954834,-0.010111561807326608,-0.0041419603479405966,-0.05263984236942447,1.899618148803711,2019-07-25 15:40:11:165,116.29305879871815,-153.23791426636677,0,-22.340904235839844,8.84639835357666,-42.732601165771484
-0.06090806424617767,-0.16616450250148773,9.768359184265137,0.0010764462016066379,-0.002810054709994474,-0.06063127723739851,1.9096205234527588,2019-07-25 15:40:11:175,117.56163087315196,-153.75426985038004,0,-22.340904235839844,8.84639835357666,-42.732601165771484
-0.3458832800388336,-0.10869050770998001,9.629463195800781,0.01119892944010866,0.011840908347710179,-0.061164042613468854,1.9196186065673828,2019-07-25 15:40:11:185,118.76260811371992,-154.27253770357936,0,-22.340904235839844,8.84639835357666,-42.732601165771484
-0.17825080454349518,-0.1422169953584671,9.957544326782227,-0.007447750531434362,0.009976239934436956,-0.045713934092401924,1.9296190738677979,2019-07-25 15:40:11:195,119.96124310779247,-154.76653961332724,0,-22.340904235839844,8.84639835357666,-42.732601165771484
-0.20219829678535461,-0.26434922218322754,9.924017906188965,0.002674733097179148,-0.019059303492937173,-0.047844983113115726,1.939636468887329,2019-07-25 15:40:11:206,121.14939424614498,-155.2421963907609,0,-22.340904235839844,8.84639835357666,-42.732601165771484
-0.28361979126930237,-0.2212437391281128,9.689332008361816,-0.0026528897146796686,0.007046047530955486,-0.0470458392101994,1.949620246887207,2019-07-25 15:40:11:215,122.28892351613898,-155.70970428666067,0,-22.340904235839844,8.84639835357666,-42.732601165771484
-0.041750065982341766,-0.09911150485277176,9.849780082702637,-0.001320984076733546,0.00731242865854471,-0.048377744327996866,1.9596209526062012,2019-07-25 15:40:11:225,123.43418169689022,-156.1832382532117,0,-22.340904235839844,8.84639835357666,-42.732601165771484
-0.16148754954338074,-0.21645423769950867,9.809069633483887,-0.004251176740289341,0.002251186974275118,-0.03665697679466559,1.9696176052093506,2019-07-25 15:40:11:235,124.54537084570578,-156.6319047333418,0,-22.340904235839844,8.84639835357666,-42.732601165771484
0.01811867579817772,-0.1422169953584671,9.856964111328125,-0.0007882218215550968,-0.0049411037307082704,-0.03932078703026053,1.979614019393921,2019-07-25 15:40:11:245,118.45934323062762,-157.08229200549056,0,-22.340904235839844,8.84639835357666,-42.732601165771484
-0.16867180168628693,-0.053611259907484055,9.68693733215332,0.0024083519695899235,0.008111572041312385,-0.04411564628656928,1.989626407623291,2019-07-25 15:40:11:255,119.66564508383878,-157.53565825139657,0,-22.340904235839844,8.84639835357666,-42.732601165771484
-0.12796105444431305,-0.05840076133608818,9.84738540649414,-0.0018537463319119952,0.004115855127474016,-0.042517362641925835,1.9996182918548584,2019-07-25 15:40:11:265,120.85513334112807,-157.9771091843396,0,-22.340904235839844,8.84639835357666,-42.732601165771484
-0.18782979249954224,-0.20448049902915955,9.828227996826172,-0.0015873652043227706,-0.0009453866868327393,-0.04544755140436675,2.009617567062378,2019-07-25 15:40:11:275,122.01666424731583,-158.39283793561665,0,-22.340904235839844,8.84639835357666,-42.732601165771484
-0.171066552400589,-0.2332174926996231,9.780332565307617,-0.003452033357521668,0.0049149985102416895,-0.05263984236942447,2.0196197032928467,2019-07-25 15:40:11:285,123.1535295876216,-158.79572263084577,0,-22.340904235839844,8.84639835357666,-42.732601165771484
-0.10161881148815155,-0.1685592532157898,9.746806144714355,0.0002773027863296734,0.011041764444793854,-0.05503727407817343,2.0296196937561035,2019-07-25 15:40:11:295,124.27231234632504,-159.2001486308365,0,-22.340904235839844,8.84639835357666,-42.732601165771484
-0.010618319734930992,-0.20448049902915955,9.775543212890625,-0.0010546029491443213,0.0067796664033662616,-0.05876661090471988,2.039618730545044,2019-07-25 15:40:11:305,125.38181498496931,-159.5915872955316,0,-22.340904235839844,8.84639835357666,-42.732601165771484
-0.05851331353187561,-0.2547702491283417,9.895280838012695,-0.001320984076733546,-0.005740247113475944,-0.0627623262581123,2.0496163368225098,2019-07-25 15:40:11:315,126.47062504318671,-159.9695170350098,0,-22.340904235839844,8.84639835357666,-42.732601165771484
-0.06809231638908386,-0.2404017448425293,9.768359184265137,-0.004251176740289341,-0.0012117678144219638,-0.060364898710552534,2.0596182346343994,2019-07-25 15:40:11:325,127.53390537123704,-160.339543635586,0,-22.340904235839844,8.84639835357666,-42.732601165771484
-0.10401355475187302,-0.18532249331474304,9.82583236694336,-0.006648607148666687,0.008377953168901608,-0.05716832309888723,2.0696303844451904,2019-07-25 15:40:11:336,128.56638744527422,-160.70740478669106,0,-22.340904235839844,8.84639835357666,-42.732601165771484
-0.0656975656747818,-0.12066425383090973,9.88809585571289,-0.007181369403845137,0.003050330357042792,-0.05823384968983873,2.0796215534210205,2019-07-25 15:40:11:345,129.58573497893846,-161.07524502971827,0,-22.340904235839844,8.84639835357666,-42.732601165771484
-0.08964505791664124,0.018231229856610298,9.799490928649902,-0.0031856519698581177,0.0006529002087397708,-0.05157431993966217,2.0896220207214355,2019-07-25 15:40:11:355,130.5831711963432,-154.2540831952392,0,-22.340904235839844,8.84639835357666,-42.732601165771484
-0.18782979249954224,-0.04163751378655434,9.789911270141602,-0.004251176740289341,0.003050330357042792,-0.0481113658011509,2.0996253490448,2019-07-25 15:40:11:365,131.54781154162083,-154.76174003775293,0,-22.340904235839844,8.84639835357666,-42.732601165771484
-0.28361979126930237,-0.005716267507523298,9.883306503295898,-0.001320984076733546,0.004115855127474016,-0.042517362641925835,2.109637498855591,2019-07-25 15:40:11:376,132.481666307265,-155.26509983501984,0,-22.64078140258789,8.246642112731934,-41.53308868408203
-0.2668565511703491,-0.1350327581167221,9.849780082702637,-0.0026528897146796686,-0.0049411037307082704,-0.037988881912463066,2.119619131088257,2019-07-25 15:40:11:385,133.40376402163375,-155.74260236065237,0,-22.64078140258789,8.246642112731934,-41.53308868408203
-0.33630427718162537,-0.21884898841381073,9.83541202545166,-0.003452033357521668,-0.0012117678144219638,-0.03399316447847604,2.12962007522583,2019-07-25 15:40:11:395,134.29720194239877,-156.20031811352746,0,-22.64078140258789,8.246642112731934,-41.53308868408203
-0.30277779698371887,-0.36013922095298767,9.591147422790527,1.0921627247073539e-05,0.011574526699972304,-0.031595732769727075,2.139620542526245,2019-07-25 15:40:11:405,135.1685957329196,-156.63330995822872,0,-22.64078140258789,8.246642112731934,-41.53308868408203
-0.21896153688430786,-0.49185046553611755,10.046150207519531,-0.007447750531434362,-0.004408341475529821,-0.022805156079431312,2.1496238708496094,2019-07-25 15:40:11:415,136.04272799395454,-157.04040223204782,0,-22.64078140258789,8.246642112731934,-41.53308868408203
-0.20459304749965668,-0.33619171380996704,10.048544883728027,0.009334262067132738,-0.0020109111971896377,-0.007887811894137436,2.1596198081970215,2019-07-25 15:40:11:425,136.89967394805336,-157.46650891054313,0,-22.64078140258789,8.246642112731934,-41.53308868408203
-0.262067049741745,-0.40084996819496155,10.050939559936523,0.015993789736714704,0.00731242865854471,-0.010285242562589107,2.1696176528930664,2019-07-25 15:40:11:435,137.72770373129896,-157.88048027226307,0,-22.64078140258789,8.246642112731934,-41.53308868408203
0.05164517089724541,-0.22603324055671692,9.91683292388916,0.008535118164216414,0.0014520435915074442,-0.011883529328124455,2.1796302795410156,2019-07-25 15:40:11:446,131.37830098528127,-158.30155497372755,0,-22.64078140258789,8.246642112731934,-41.53308868408203
-0.03696056827902794,-0.034453265368938446,9.6989107131958,0.016792933639631025,-0.0012117678144219638,-0.016145627369552048,2.1896212100982666,2019-07-25 15:40:11:455,132.3470479252761,-158.74087393373804,0,-22.64078140258789,8.246642112731934,-41.53308868408203
0.5737006068229675,0.25291669368743896,9.866543769836426,-0.04554025437743673,-0.015596349354425904,0.014754585511392606,2.199620246887207,2019-07-25 15:40:11:465,126.1754189845305,-151.96985583028217,0,-22.64078140258789,8.246642112731934,-41.53308868408203
-0.8918862342834473,-0.20687523484230042,9.809069633483887,0.024784367467307764,0.016103006389137774,-0.05263984236942447,2.20961594581604,2019-07-25 15:40:11:475,127.13896641494395,-152.52020511067514,0,-22.64078140258789,8.246642112731934,-41.53308868408203
0.11390866339206696,-0.5900352001190186,10.652021408081055,-0.06658436605772872,-0.017194636119961252,-0.008686955276905108,2.2196176052093506,2019-07-25 15:40:11:485,121.01809697172312,-152.96899818537187,0,-22.64078140258789,8.246642112731934,-41.53308868408203
-0.2740407884120941,-0.0703745111823082,9.931201934814453,0.015993789736714704,-0.018526542278056026,-0.04757860042508055,2.229623317718506,2019-07-25 15:40:11:495,122.17653132215803,-153.5104837885737,0,-22.340904235839844,7.9467644691467285,-41.83296585083008
-0.45364701747894287,0.18825845420360565,9.5264892578125,0.013329978460822458,0.012906432858067076,-0.03985354824514169,2.2396185398101807,2019-07-25 15:40:11:505,123.27123043317827,-146.87039745387668,0,-22.340904235839844,7.9467644691467285,-41.83296585083008
-0.20459304749965668,-0.020084764808416367,10.003044128417969,-0.017037471124646448,0.00784519091372316,-0.041185453362939155,2.249619722366333,2019-07-25 15:40:11:515,124.37796600533714,-147.5211210156388,0,-22.340904235839844,7.9467644691467285,-41.83296585083008
-0.5159105062484741,-0.13982224464416504,9.940780639648438,0.004805782377967269,0.008644334296490834,-0.056369179195970905,2.2596194744110107,2019-07-25 15:40:11:525,125.42613515786867,-148.15728013330946,0,-22.340904235839844,7.9467644691467285,-41.83296585083008
-0.2740407884120941,-0.0703745111823082,9.763568878173828,-0.004251176740289341,-0.005207484858297496,-0.060098516022517354,2.26963472366333,2019-07-25 15:40:11:536,126.48838615195014,-148.78348439589436,0,-22.340904235839844,7.9467644691467285,-41.83296585083008
-0.223751038312912,-0.10629575699567795,9.591147422790527,0.005604925760734943,0.013439195113245527,-0.06622528039662358,2.279613733291626,2019-07-25 15:40:11:545,127.52436006232698,-149.39825594764673,0,-22.340904235839844,7.9467644691467285,-41.83296585083008
-0.7769381999969482,-0.6044036746025085,10.007833480834961,0.012797216205644007,0.016369388036875647,-0.08327367672352315,2.289642572402954,2019-07-25 15:40:11:556,128.4758721679886,-149.9483757777923,0,-22.340904235839844,7.9467644691467285,-41.83296585083008
-0.216566801071167,-0.714562177658081,10.546652793884277,-0.05992483630755216,-0.012399775823355209,-0.04198459726585548,2.299619674682617,2019-07-25 15:40:11:565,129.48977411597755,-150.43831741003297,0,-22.340904235839844,7.9467644691467285,-41.83296585083008
-0.08006606251001358,-0.3505602180957794,9.871333122253418,0.014928265226357802,0.0038494739998847904,-0.05716832309888723,2.309617519378662,2019-07-25 15:40:11:575,130.48852334476817,-150.99725370074736,0,-22.340904235839844,7.9467644691467285,-41.83296585083008
-0.2093825489282608,-0.17334873974323273,9.509725570678711,0.010932548832668086,0.022229771803541284,-0.047844983113115726,2.319629669189453,2019-07-25 15:40:11:585,131.44102934423697,-151.56256860191553,0,-22.340904235839844,7.9467644691467285,-41.83296585083008
0.540174126625061,-0.10150625556707382,10.007833480834961,-0.014906422103932651,0.012640051210329201,-0.02680087351341833,2.329622983932495,2019-07-25 15:40:11:595,125.26690711608522,-152.1113306327074,0,-22.340904235839844,7.9467644691467285,-41.83296585083008
-0.07288181036710739,-0.17813824117183685,9.849780082702637,0.030111990019092257,0.015037481878780875,-0.03878802581537939,2.3396246433258057,2019-07-25 15:40:11:605,126.34464518985388,-152.6652924647959,0,-22.340904235839844,7.9467644691467285,-41.83296585083008
0.29112014174461365,-0.19011199474334717,9.959939002990723,-0.006115844893488239,0.006246904148187811,-0.019874963155801194,2.3496220111846924,2019-07-25 15:40:11:615,120.24773013914218,-153.18668328189563,0,-22.340904235839844,7.9467644691467285,-41.83296585083008
0.1378561556339264,-0.3457707166671753,9.770753860473633,0.008535118164216414,0.01876681766503002,-0.035857832891749264,2.359616279602051,2019-07-25 15:40:11:625,114.24841075295838,-153.68720419671067,0,-22.340904235839844,7.9467644691467285,-40.93333435058594
1.093361258506775,-0.14461174607276917,9.885701179504395,-0.010377943455064483,0.03474968740097809,0.00037000341873072353,2.369619369506836,2019-07-25 15:40:11:635,108.47015017171567,-154.19086942342426,0,-22.340904235839844,7.9467644691467285,-40.93333435058594
1.31367826461792,0.2169954478740692,9.030776023864746,0.11215738147776262,0.06351885126120894,-0.06356147016102863,2.3796205520629883,2019-07-25 15:40:11:645,102.83060883203869,-147.597564964476,0,-22.340904235839844,7.9467644691467285,-40.93333435058594
0.6287798285484314,-0.07995350658893585,9.20559310913086,0.03703790037670939,0.052064462254723644,-0.03825526043930904,2.3896243572235107,2019-07-25 15:40:11:655,97.22290076602485,-148.25646591790155,0,-22.340904235839844,7.9467644691467285,-40.93333435058594
1.7303646802902222,-0.38169196248054504,10.149124145507812,-0.011177086317683507,0.06671542271168504,-0.015346484506933024,2.3996167182922363,2019-07-25 15:40:11:665,91.83452178089384,-148.84198976440777,0,-22.340904235839844,7.9467644691467285,-40.93333435058594
0.4132523834705353,-0.09192726016044617,9.856964111328125,0.1031004200188371,0.09255439364828578,-0.06196318235519598,2.4096193313598633,2019-07-25 15:40:11:675,86.39386289474395,-149.51236920193435,0,-22.340904235839844,7.9467644691467285,-40.93333435058594
1.4262315034866333,-0.005716267507523298,10.611310958862305,-0.00851327504179126,0.03474968740097809,-0.009752480307410659,2.419620990753174,2019-07-25 15:40:11:685,81.19957171976709,-150.11672353258942,0,-22.340904235839844,7.9467644691467285,-40.93333435058594
1.0909665822982788,-0.11826950311660767,9.959939002990723,0.03464047074855502,0.07097752075311264,-0.03932078703026053,2.4296202659606934,2019-07-25 15:40:11:695,76.06074938570599,-150.72023167032407,0,-22.340904235839844,7.9467644691467285,-40.93333435058594
0.4659368693828583,-0.1877172440290451,9.734832763671875,0.033042182942722376,0.06538351759388757,-0.05263984236942447,2.4396142959594727,2019-07-25 15:40:11:705,70.95764852428404,-151.30227509469896,0,-22.340904235839844,7.9467644691467285,-40.93333435058594
1.2609937191009521,-0.30266523361206055,9.59593677520752,0.0029411142247683726,0.090156966100726,-0.021739631569074415,2.4496161937713623,2019-07-25 15:40:11:715,66.03758879853066,-151.84175001745268,0,-22.340904235839844,7.9467644691467285,-40.93333435058594
1.4501789808273315,0.8492093682289124,8.92061710357666,0.0945762239359819,0.07577238417061058,-0.041185453362939155,2.459625482559204,2019-07-25 15:40:11:725,61.258921561684446,-145.36682789526185,0,-22.340904235839844,7.9467644691467285,-40.93333435058594
0.33662039041519165,0.32475918531417847,9.68693733215332,-0.020500427343752316,0.032085875084788544,-0.03319402057555972,2.469618558883667,2019-07-25 15:40:11:735,56.45554389825922,-138.88639132730356,0,-22.340904235839844,7.9467644691467285,-40.93333435058594
0.4827001094818115,-0.29548096656799316,9.531278610229492,-0.05353168924541077,-0.012666157471093084,-0.048377744327996866,2.4796175956726074,2019-07-25 15:40:11:745,51.791528339958035,-139.64309505395602,0,-23.090599060058594,8.396581649780273,-43.482295989990234
-1.7539961338043213,-0.9971426129341125,9.28701400756836,0.013329978460822458,0.05606017760811607,-0.05530365676620862,2.489619255065918,2019-07-25 15:40:11:755,54.11031054897456,-140.3351522598798,0,-23.090599060058594,8.396581649780273,-43.482295989990234
-1.72046959400177,-0.1877172440290451,10.932207107543945,-0.0015873652043227706,0.008111572041312385,-0.03212849606520282,2.4996185302734375,2019-07-25 15:40:11:765,56.44467725231435,-141.107883359677,0,-23.090599060058594,8.396581649780273,-43.482295989990234
-2.4293155670166016,0.35110142827033997,9.196013450622559,0.06660620813985657,-0.02119035459424557,-0.07261842745876496,2.509620189666748,2019-07-25 15:40:11:775,58.63172783246937,-134.7668607164151,0,-23.090599060058594,8.396581649780273,-43.482295989990234
-3.4255313873291016,0.4253386855125427,9.023591995239258,0.025050748074748337,-0.006273009368654393,-0.06329509163418265,2.519615888595581,2019-07-25 15:40:11:785,60.64685928932205,-128.53955767714396,0,-23.090599060058594,8.396581649780273,-43.482295989990234
-3.3321361541748047,0.7845511436462402,9.612700462341309,0.0021419707119635363,-0.013198919726271534,-0.06622528039662358,2.5296213626861572,2019-07-25 15:40:11:795,62.658971188711675,-122.46328822271576,0,-23.090599060058594,8.396581649780273,-43.482295989990234
-4.165509223937988,0.540286660194397,9.385198593139648,0.041033615730101815,0.013971957368423974,-0.0941953003539381,2.5396246910095215,2019-07-25 15:40:11:805,64.51927442768675,-116.50296573006041,0,-23.090599060058594,8.396581649780273,-43.482295989990234
-3.0208187103271484,0.26728519797325134,10.161097526550293,0.003740257607536046,-0.01133425131299831,-0.06302870894614747,2.5496184825897217,2019-07-25 15:40:11:815,66.50411271339877,-110.60514134241872,0,-23.090599060058594,8.396581649780273,-43.482295989990234
-2.7142906188964844,0.7845511436462402,10.110808372497559,0.05115609961878965,0.03901178544240569,-0.047844983113115726,2.559621572494507,2019-07-25 15:40:11:825,68.45157858967154,-104.91051131129598,0,-23.090599060058594,8.396581649780273,-43.482295989990234
-1.5121263265609741,1.0359998941421509,10.580179214477539,0.01119892944010866,0.0326186383802643,-0.0076214307665482105,2.5696208477020264,2019-07-25 15:40:11:835,70.50155963443649,-99.33043908018507,0,-23.090599060058594,8.396581649780273,-43.482295989990234
4.350220680236816,0.8348408937454224,9.306172370910645,0.0620777274103938,-0.013731681981449983,-0.046779460683353424,2.5796303749084473,2019-07-25 15:40:11:846,66.00032595830037,-93.88124377022821,0,-23.090599060058594,8.396581649780273,-43.482295989990234
-3.8470072746276855,-1.01869535446167,5.268624305725098,0.39691882715644106,0.18259121789433558,-0.20048138534634957,2.5896217823028564,2019-07-25 15:40:11:855,67.4551646078363,-95.60743321960003,0,-23.090599060058594,8.396581649780273,-43.482295989990234
1.4214420318603516,0.04696822538971901,11.320157051086426,-0.2386665880042327,0.018500437057589445,0.1532727770592759,2.5996127128601074,2019-07-25 15:40:11:865,62.63882317307056,-89.96614959826891,0,-23.090599060058594,8.396581649780273,-43.482295989990234
2.2667887210845947,-0.0703745111823082,10.508336067199707,0.0016092084567850867,0.03341778020258602,0.00010362226675953103,2.6096205711364746,2019-07-25 15:40:11:875,58.010726773195195,-91.76005678260604,0,-22.340904235839844,10.645665168762207,-43.03247833251953
-0.6787534952163696,-0.5972194671630859,8.472799301147461,0.13959464022019602,0.05312998468448594,-0.0470458392101994,2.6196186542510986,2019-07-25 15:40:11:885,60.32908219909203,-93.52258441121494,0,-22.340904235839844,10.645665168762207,-43.03247833251953
3.3779525756835938,-0.23082274198532104,10.096439361572266,-0.10094752891599544,0.020897866685743813,0.08721025325595899,2.629615306854248,2019-07-25 15:40:11:895,55.88074292489122,-95.16927667027565,0,-22.340904235839844,10.645665168762207,-43.03247833251953
1.718390941619873,-0.15179599821567535,8.877511978149414,0.07326573372884394,-0.0012117678144219638,-0.035325071676868124,2.6396241188049316,2019-07-25 15:40:11:905,51.38291058238134,-96.88747397112168,0,-22.340904235839844,10.645665168762207,-43.03247833251953
0.9233340620994568,-0.33619171380996704,8.350666999816895,0.007469593653859515,0.05259722346960479,-0.035058688988832944,2.6496174335479736,2019-07-25 15:40:11:915,46.85193024788866,-98.50780703573191,0,-22.340904235839844,10.645665168762207,-43.03247833251953
1.9961819648742676,-0.4176132082939148,10.668785095214844,-0.036749675606546364,-0.009469582899725089,-0.012416291583302902,2.659620523452759,2019-07-25 15:40:11:925,42.53216614288148,-100.07217740833174,0,-22.340904235839844,10.645665168762207,-43.03247833251953
0.8874127864837646,-0.017690015956759453,9.301383018493652,0.027714560390937882,-0.016129111609604355,-0.06196318235519598,2.669618606567383,2019-07-25 15:40:11:935,38.19957548612505,-101.68411318591917,0,-22.340904235839844,10.645665168762207,-43.03247833251953
0.7221750617027283,0.4253386855125427,9.093039512634277,0.00773597478144874,-0.002810054709994474,-0.05290622505745964,2.679619550704956,2019-07-25 15:40:11:945,33.9279806919436,-96.1083377130184,0,-22.340904235839844,10.645665168762207,-43.03247833251953
0.6886485815048218,0.31996968388557434,9.370830535888672,0.006670450271091842,-0.01826016167061545,-0.06729080698757507,2.6896135807037354,2019-07-25 15:40:11:955,29.74372856022126,-90.62902659077321,0,-22.340904235839844,10.645665168762207,-43.03247833251953
2.139866828918457,1.0934737920761108,5.333282470703125,0.3324545828365784,0.14609700601535508,-0.2260539735949151,2.699626922607422,2019-07-25 15:40:11:965,25.903952882426204,-85.63510154817556,0,-22.340904235839844,10.645665168762207,-43.03247833251953
-4.8025126457214355,0.5977606773376465,8.197402954101562,0.1294721563315082,-0.01746101776769913,-0.11444026813131378,2.709620475769043,2019-07-25 15:40:11:975,28.388387072926044,-80.4784644611166,0,-22.340904235839844,10.645665168762207,-43.03247833251953
2.518237352371216,0.525918185710907,10.577784538269043,-0.23840020531619754,-0.10669870019142723,0.0672316723278077,2.7196204662323,2019-07-25 15:40:11:985,24.548351413890657,-75.19196095166504,0,-22.340904235839844,10.645665168762207,-43.03247833251953
-5.3006205558776855,-2.32383394241333,10.76218032836914,0.19367001796333566,0.05259722346960479,-0.15839315366338716,2.729620933532715,2019-07-25 15:40:11:995,27.103423667797113,-77.15318068261242,0,-24.739927291870117,10.645665168762207,-44.53186798095703
-3.068713665008545,-1.9598320722579956,12.69234848022461,-0.12572097742283386,-0.14905329791766797,0.005164863877883219,2.7396326065063477,2019-07-25 15:40:12:006,29.97330720052804,-78.96388755955525,0,-24.739927291870117,10.645665168762207,-44.53186798095703
-2.2137880325317383,-0.3194284737110138,11.617105484008789,-0.14703147595235025,-0.1069650828794624,0.07122738352001091,2.7496447563171387,2019-07-25 15:40:12:016,32.818193060459265,-80.87045092238334,0,-24.739927291870117,10.645665168762207,-44.53186798095703
-1.404362678527832,-0.17813824117183685,10.003044128417969,-0.00798051278661281,-0.049160372470965503,0.0168856345321064,2.75961971282959,2019-07-25 15:40:12:025,35.62952908508435,-82.82816730919129,0,-24.739927291870117,10.645665168762207,-44.53186798095703
0.06601367145776749,0.0014679816085845232,8.707484245300293,-0.04447472778648523,-0.07047086267810347,0.04485565552971823,2.7696151733398438,2019-07-25 15:40:12:035,31.365177148015423,-77.54683598829128,0,-24.739927291870117,10.645665168762207,-44.53186798095703
0.3773311376571655,1.0695263147354126,9.061907768249512,-0.033286721468035095,0.0067796664033662616,0.02141411422127187,2.7796270847320557,2019-07-25 15:40:12:045,27.18174982697761,-72.51180978321786,0,-24.739927291870117,10.645665168762207,-44.53186798095703
-0.9469654560089111,-0.4032447040081024,9.914438247680664,-0.010644324062505057,-0.07526572609560142,0.01502096611883318,2.789618968963623,2019-07-25 15:40:12:055,30.171222432419796,-74.60902012037258,0,-24.739927291870117,10.645665168762207,-44.53186798095703
-1.586363673210144,0.09007371962070465,10.21378231048584,-0.05832654850171951,0.02595910863008773,0.06856357744560518,2.7996175289154053,2019-07-25 15:40:12:065,32.97665583741402,-69.49419954168202,0,-24.739927291870117,10.645665168762207,-44.53186798095703
-2.0222079753875732,-0.21166473627090454,10.570599555969238,-0.0005218406614565815,-0.008137677781927616,0.021147733613831297,2.809617042541504,2019-07-25 15:40:12:075,35.705089541497514,-71.68107990741213,0,-24.739927291870117,10.645665168762207,-44.53186798095703
-2.4341049194335938,0.22178494930267334,9.6174898147583,-0.008779655649231834,-0.04676294492340573,0.029671929696686482,2.819645643234253,2019-07-25 15:40:12:086,38.33326353252476,-66.66893524713292,0,-24.739927291870117,10.645665168762207,-44.53186798095703
-2.8148701190948486,-0.15658549964427948,10.486783981323242,0.005338544633145719,0.02302891570645761,0.033934027738114075,2.8296051025390625,2019-07-25 15:40:12:095,40.853215901721754,-68.92143278034378,0,-24.739927291870117,10.645665168762207,-44.53186798095703
-2.9633448123931885,0.3103906810283661,10.596941947937012,-0.07830513359105999,-0.03930427127031284,0.05524451794525204,2.839617967605591,2019-07-25 15:40:12:105,43.34578531471021,-63.932534283170654,0,-24.739927291870117,10.645665168762207,-44.53186798095703
-1.5288896560668945,-0.06558500975370407,10.149124145507812,-0.08123532651469012,0.00012013789667006295,0.05018327600090812,2.849627733230591,2019-07-25 15:40:12:115,45.90746676687496,-66.20082056965315,0,-24.739927291870117,10.645665168762207,-44.53186798095703
-1.5791794061660767,0.3822331726551056,10.149124145507812,0.049824194500992174,0.03395054349806177,0.03526593285591155,2.859618902206421,2019-07-25 15:40:12:125,48.393387745113145,-61.34789240075453,0,-24.440048217773438,10.045909881591797,-44.83174514770508
-0.3386990427970886,0.5043654441833496,10.117992401123047,-0.015439184359111098,0.02462720351229026,0.05577728332132239,2.8696212768554688,2019-07-25 15:40:12:135,50.97334344465855,-56.56933819619523,0,-24.440048217773438,10.045909881591797,-44.83174514770508
0.12827716767787933,0.3151801824569702,9.952754974365234,-0.001320984076733546,0.03608159251877557,0.054445374042335716,2.8796064853668213,2019-07-25 15:40:12:145,46.34841521817948,-51.87348710872727,0,-24.440048217773438,10.045909881591797,-44.83174514770508
0.42283138632774353,0.17388996481895447,9.856964111328125,0.043697430126885956,0.016369388036875647,0.0336676471306735,2.8896212577819824,2019-07-25 15:40:12:155,41.86136784412485,-47.2808030390615,0,-24.440048217773438,10.045909881591797,-44.83174514770508
-0.14951379597187042,-0.11348000168800354,9.514514923095703,0.0013428273291958624,0.006513285275777036,0.033134883835197755,2.8996198177337646,2019-07-25 15:40:12:165,44.602478051296835,-49.922274132168454,0,-24.440048217773438,10.045909881591797,-44.83174514770508
-0.017802570015192032,-0.5110084414482117,10.074886322021484,-0.023963381482263586,0.007046047530955486,0.0368642206617442,2.909615993499756,2019-07-25 15:40:12:175,47.30444879846231,-52.45230615455994,0,-24.440048217773438,10.045909881591797,-44.83174514770508
-0.3650412857532501,-0.23082274198532104,9.718069076538086,-0.012242610828040405,-0.0006790055592435148,0.04805222698019433,2.919621467590332,2019-07-25 15:40:12:185,49.915717320631394,-54.96916948705636,0,-24.440048217773438,10.045909881591797,-44.83174514770508
-0.1375400573015213,-0.21645423769950867,9.643832206726074,-0.030090147936964403,-0.013198919726271534,0.03899526968245799,2.929619789123535,2019-07-25 15:40:12:195,52.508470998526,-57.42717778559536,0,-24.440048217773438,10.045909881591797,-44.83174514770508
2.0560507774353027,-0.25716498494148254,9.303777694702148,-0.0005218406614565815,-0.02278864031948362,0.006230388388240118,2.939615488052368,2019-07-25 15:40:12:205,48.12032314497794,-59.84667524357631,0,-24.440048217773438,10.045909881591797,-44.83174514770508
-0.30277779698371887,-0.22603324055671692,7.464609622955322,0.17102762263840024,0.07097752075311264,-0.07155290502900266,2.9496216773986816,2019-07-25 15:40:12:215,50.6715833320395,-62.311144482720415,0,-24.440048217773438,10.045909881591797,-44.83174514770508
0.15222465991973877,0.1523372083902359,10.280835151672363,-0.07351027017356206,-0.03983703248519399,0.06909633866048631,2.959618091583252,2019-07-25 15:40:12:225,46.09747800775066,-57.440638942957165,0,-24.440048217773438,10.045909881591797,-44.83174514770508
0.7030171155929565,-0.2906914949417114,10.513126373291016,-0.05806016581368433,-0.041168937602991465,0.040327174800255466,2.9696176052093506,2019-07-25 15:40:12:235,41.67515756370106,-59.82755016363434,0,-24.440048217773438,10.045909881591797,-44.83174514770508
-0.5518317222595215,-0.46550822257995605,9.241514205932617,0.02584989197766466,-0.0030764358375836983,-0.01641200901728992,2.9796276092529297,2019-07-25 15:40:12:245,44.375039493600895,-62.187855705263,0,-25.789499282836914,9.296215057373047,-43.78217315673828
0.880228579044342,-0.017690015956759453,9.770753860473633,-0.03728243682142752,-0.02332140361495937,0.032868503227757175,2.989619493484497,2019-07-25 15:40:12:255,40.00357843858884,-64.5211068575349,0,-25.789499282836914,9.296215057373047,-43.78217315673828
0.29830437898635864,-0.24279648065567017,9.80667495727539,0.01412912236373878,0.004648617382652464,-0.018276677430563146,2.99961519241333,2019-07-25 15:40:12:265,35.63574409288931,-66.81024967790805,0,-25.789499282836914,9.296215057373047,-43.78217315673828
0.30309388041496277,-0.3314022123813629,9.87612247467041,-0.03381948268291624,-0.028915406774184433,-0.009219718052232208,3.009615898132324,2019-07-25 15:40:12:275,31.374422932164904,-69.01661594042987,0,-25.789499282836914,9.296215057373047,-43.78217315673828
0.47551587224006653,-0.1158747524023056,9.694121360778809,-0.025028905992620483,-0.0009453866868327393,-0.014280959996576126,3.0196197032928467,2019-07-25 15:40:12:285,27.203629923626117,-71.20852799181495,0,-25.789499282836914,9.296215057373047,-43.78217315673828
0.14504040777683258,-0.08713775873184204,9.679753303527832,0.004273019862714496,0.00012013789667006295,-0.03212849606520282,3.029618263244629,2019-07-25 15:40:12:295,23.07665887172859,-73.37644105446164,0,-25.789499282836914,9.296215057373047,-43.78217315673828
0.14743515849113464,-0.039242763072252274,9.667778968811035,-0.023963381482263586,-0.01133425131299831,-0.029997447044489024,3.0396182537078857,2019-07-25 15:40:12:305,19.038963894375954,-75.49080544632335,0,-25.789499282836914,9.296215057373047,-43.78217315673828
-0.010618319734930992,-0.24519123136997223,9.667778968811035,-0.00851327504179126,-0.0020109111971896377,-0.0481113658011509,3.049621820449829,2019-07-25 15:40:12:315,22.258055561052025,-77.54715131066895,0,-25.789499282836914,9.296215057373047,-43.78217315673828
-0.29080402851104736,-0.5469297170639038,9.87612247467041,-0.027959098916250605,-0.0038755792203513722,-0.05770108431376838,3.0596237182617188,2019-07-25 15:40:12:325,25.381339071287304,-79.51711141194114,0,-25.789499282836914,9.296215057373047,-43.78217315673828
-0.25727754831314087,-0.15419074892997742,10.017413139343262,-0.017836615027562768,-0.012399775823355209,-0.05157431993966217,3.0696446895599365,2019-07-25 15:40:12:336,28.45126522924181,-81.49909609356655,0,-25.789499282836914,9.296215057373047,-43.78217315673828
-0.35785701870918274,-0.38169196248054504,9.842596054077148,-0.009845181199886033,-0.001744530069600413,-0.05263984236942447,3.0796196460723877,2019-07-25 15:40:12:345,31.44157217775802,-83.41918406508496,0,-25.789499282836914,9.296215057373047,-43.78217315673828
-0.36264652013778687,-0.36013922095298767,9.907254219055176,-0.010644324062505057,0.0049149985102416895,-0.061164042613468854,3.089617967605591,2019-07-25 15:40:12:355,34.36805489637347,-85.30318769703943,0,-25.789499282836914,9.296215057373047,-43.78217315673828
-0.3937782645225525,-0.15179599821567535,9.895280838012695,-0.009312417904410284,-0.0041419603479405966,-0.052373463842578495,3.099620819091797,2019-07-25 15:40:12:365,37.23744301816162,-87.17431629884564,0,-25.789499282836914,9.296215057373047,-43.78217315673828
-0.35546228289604187,-0.2906914949417114,9.821043014526367,-0.014107279241313626,-0.007604915006600516,-0.05477089139013826,3.1096253395080566,2019-07-25 15:40:12:375,40.05550912921426,-88.98899730001398,0,-25.189743041992188,9.296215057373047,-43.482295989990234
-0.5374632477760315,-0.19969099760055542,9.777937889099121,-0.005050319862982691,-0.002810054709994474,-0.05343898627234079,3.119619607925415,2019-07-25 15:40:12:385,42.79305174102082,-90.78298389891559,0,-25.189743041992188,9.296215057373047,-43.482295989990234
-0.4177257716655731,-0.17334873974323273,9.830622673034668,-0.0047839387353934655,0.009177097071817932,-0.05050879334871067,3.129619836807251,2019-07-25 15:40:12:395,45.48337434592239,-92.54443352275067,0,-25.189743041992188,9.296215057373047,-43.482295989990234
-0.2548827826976776,-0.09192726016044617,10.029386520385742,-0.006914988276255913,-0.011600631920438885,-0.051307937251626995,3.1396145820617676,2019-07-25 15:40:12:405,48.15110160576962,-94.27916120745257,0,-25.189743041992188,9.296215057373047,-43.482295989990234
-0.4392785131931305,-0.04163751378655434,9.72764778137207,0.0002773027863296734,-0.009469582899725089,-0.04970965360698355,3.14962100982666,2019-07-25 15:40:12:415,50.74168833150182,-95.98882892499755,0,-25.189743041992188,9.296215057373047,-43.482295989990234
-0.31714627146720886,-0.3266127407550812,9.799490928649902,-0.014107279241313626,0.007046047530955486,-0.04464841166263963,3.1596176624298096,2019-07-25 15:40:12:425,53.285826591443644,-97.6229550480875,0,-25.189743041992188,9.296215057373047,-43.482295989990234
-0.25248804688453674,-0.034453265368938446,9.868938446044922,-0.0005218406614565815,0.002517568101864343,-0.03932078703026053,3.1696155071258545,2019-07-25 15:40:12:435,55.78938591205053,-99.26620252934778,0,-25.189743041992188,9.296215057373047,-43.482295989990234
-0.3386990427970886,0.16431096196174622,9.993465423583984,0.004805782377967269,-0.011600631920438885,-0.02839915923865638,3.179622173309326,2019-07-25 15:40:12:445,58.24129370529276,-93.70241798141305,0,-25.189743041992188,9.296215057373047,-43.482295989990234
-0.2500932812690735,-0.11826950311660767,9.777937889099121,-0.0015873652043227706,-0.00787129665433839,-0.031062971554845924,3.1896297931671143,2019-07-25 15:40:12:456,60.65158787979878,-95.41361783971263,0,-25.189743041992188,9.296215057373047,-43.482295989990234
-0.3794097602367401,-0.20687523484230042,9.753990173339844,-0.0023865085870904443,0.009177097071817932,-0.023071536686871886,3.199620246887207,2019-07-25 15:40:12:465,62.98885686105421,-97.07970632466855,0,-25.189743041992188,9.296215057373047,-43.482295989990234
-0.20459304749965668,-0.1613750010728836,9.897675514221191,0.0016092084567850867,-0.002810054709994474,-0.020674107058717514,3.209618091583252,2019-07-25 15:40:12:475,65.30697358605963,-98.72033383728059,0,-25.189743041992188,9.296215057373047,-43.482295989990234
-0.2955935299396515,-0.05600601062178612,9.912043571472168,0.007203212526270291,-0.01586273100216378,-0.011350767072946005,3.2196197509765625,2019-07-25 15:40:12:485,67.57557952141525,-100.34349772882715,0,-25.189743041992188,9.296215057373047,-43.482295989990234
-0.3865940272808075,-0.26195448637008667,9.682147979736328,-0.006382226021077464,-0.010535107410081988,-0.01161714768038658,3.229626178741455,2019-07-25 15:40:12:495,69.78425673813479,-101.90204620449177,0,-25.189743041992188,9.296215057373047,-43.482295989990234
-0.3386990427970886,-0.22363848984241486,9.689332008361816,-0.001320984076733546,0.0038494739998847904,-0.011883529328124455,3.239623546600342,2019-07-25 15:40:12:505,71.94637052320599,-103.43681967846476,0,-25.189743041992188,9.296215057373047,-43.482295989990234
-0.2740407884120941,-0.039242763072252274,9.91683292388916,0.0010764462016066379,-0.00893682064454664,-0.006289525128602088,3.2496376037597656,2019-07-25 15:40:12:516,74.08081011697422,-104.96415397892648,0,-25.189743041992188,9.296215057373047,-43.482295989990234
-0.22614578902721405,-0.07755875587463379,9.792305946350098,0.0018755895843743117,-0.010002345154903537,-0.00522400061824519,3.2595815658569336,2019-07-25 15:40:12:525,76.17831940762132,-106.45684224493553,0,-25.189743041992188,9.296215057373047,-43.482295989990234
-0.23093529045581818,-0.14461174607276917,9.68693733215332,-0.0031856519698581177,-0.006273009368654393,-0.002826570209867843,3.2696263790130615,2019-07-25 15:40:12:535,78.23097778937654,-107.90880307890424,0,-25.189743041992188,9.296215057373047,-43.482295989990234
-0.1902245432138443,0.14754770696163177,9.65820026397705,-0.001320984076733546,0.0017184247190966692,-0.0076214307665482105,3.279630422592163,2019-07-25 15:40:12:546,80.2428263142678,-102.16738970403924,0,-25.189743041992188,9.296215057373047,-43.482295989990234
-0.28361979126930237,-0.039242763072252274,9.758779525756836,-0.0031856519698581177,-0.010801489057819861,-0.010018860914851232,3.289628028869629,2019-07-25 15:40:12:555,82.21073893999318,-103.717645578847,0,-25.189743041992188,9.296215057373047,-43.482295989990234
-0.1375400573015213,-0.29548096656799316,9.753990173339844,-0.010644324062505057,-0.002810054709994474,-0.014813722251754575,3.299628257751465,2019-07-25 15:40:12:565,84.15194466685713,-105.2026127562637,0,-25.189743041992188,9.296215057373047,-43.482295989990234
-0.1566980481147766,-0.06319025903940201,9.969517707824707,0.005072163505556494,-0.011067869665260436,-0.022272392783955562,3.309629201889038,2019-07-25 15:40:12:575,86.05711126117721,-106.69414566997139,0,-25.189743041992188,9.296215057373047,-43.482295989990234
-0.06090806424617767,-0.15898025035858154,9.612700462341309,-0.009046037296969709,-0.0038755792203513722,-0.035857832891749264,3.3196287155151367,2019-07-25 15:40:12:585,87.93088440083997,-108.13623359666254,0,-25.189743041992188,9.296215057373047,-43.482295989990234
-0.07527656108140945,-0.2715334892272949,9.883306503295898,-0.00558308263830979,-0.0041419603479405966,-0.04171821873900951,3.32962703704834,2019-07-25 15:40:12:595,89.76586428883095,-109.53889964528007,0,-25.189743041992188,9.296215057373047,-43.482295989990234
-0.41054150462150574,-0.19969099760055542,9.964728355407715,-0.009312417904410284,0.00118566246391822,-0.05343898627234079,3.3396201133728027,2019-07-25 15:40:12:605,91.52269728853433,-110.91993553583575,0,-25.189743041992188,9.296215057373047,-43.482295989990234
0.5880690813064575,0.24573245644569397,9.387593269348145,0.02744817978349731,-0.015329968746985329,-0.03718973800954674,3.349626064300537,2019-07-25 15:40:12:615,86.17254638856969,-105.14694709424893,0,-25.189743041992188,9.296215057373047,-43.482295989990234
-0.4392785131931305,-0.7600623965263367,9.871333122253418,-0.046605776807199024,0.004648617382652464,-0.05263984236942447,3.3596320152282715,2019-07-25 15:40:12:626,87.99552360589523,-106.52976525498146,0,-25.33968162536621,9.44615364074707,-43.33235549926758
0.46833160519599915,-0.24519123136997223,10.086860656738281,-0.015172803751670527,0.00731242865854471,-0.0438492677597233,3.3696303367614746,2019-07-25 15:40:12:636,82.68467443104898,-107.96280245952467,0,-25.33968162536621,9.44615364074707,-43.33235549926758
-0.08725030720233917,0.22896920144557953,9.861754417419434,0.013063597853381882,-0.01586273100216378,-0.048910509704067226,3.379631996154785,2019-07-25 15:40:12:646,84.62975128048551,-102.23748379121146,0,-25.33968162536621,9.44615364074707,-43.33235549926758
-0.0848555639386177,-0.19250674545764923,9.579174041748047,-0.019701283440835993,0.002517568101864343,-0.04171821873900951,3.3896305561065674,2019-07-25 15:40:12:656,86.52559220496221,-103.7586478059759,0,-25.33968162536621,9.44615364074707,-43.33235549926758
0.09714541584253311,-0.14700649678707123,9.859359741210938,-0.014373659848754201,0.02409444021681451,-0.04970965360698355,3.399622917175293,2019-07-25 15:40:12:665,81.1928521741198,-105.25832548901843,0,-25.33968162536621,9.44615364074707,-43.33235549926758
-0.06090806424617767,-0.0081110168248415,9.99586009979248,0.00773597478144874,-0.004408341475529821,-0.043316502383652956,3.409628391265869,2019-07-25 15:40:12:675,83.16448940908093,-106.75657525754995,0,-25.33968162536621,9.44615364074707,-43.33235549926758
-0.05611856281757355,-0.13263800740242004,9.72764778137207,-0.004251176740289341,-0.009469582899725089,-0.03399316447847604,3.419617176055908,2019-07-25 15:40:12:685,85.09990012974941,-108.20343562844897,0,-25.33968162536621,9.44615364074707,-43.33235549926758
-0.10880305618047714,-0.1949014961719513,9.730042457580566,-0.003452033357521668,0.019033198272470592,-0.04065269214805801,3.4296247959136963,2019-07-25 15:40:12:695,86.97439357197628,-109.61447647683475,0,-25.33968162536621,9.44615364074707,-43.33235549926758
-0.1638823002576828,-0.17334873974323273,9.868938446044922,-0.0023865085870904443,0.020365105470862666,-0.027600017416334655,3.4396283626556396,2019-07-25 15:40:12:705,88.80443946745966,-111.0007204132893,0,-25.33968162536621,9.44615364074707,-43.33235549926758
-0.05611856281757355,-0.15898025035858154,10.058123588562012,-0.00212012745950122,-0.008137677781927616,-0.032661259360678575,3.4496278762817383,2019-07-25 15:40:12:715,90.62652626523037,-112.36140460410473,0,-25.33968162536621,9.44615364074707,-43.33235549926758
-0.2429090440273285,-0.1685592532157898,9.751595497131348,0.0002773027863296734,0.0014520435915074442,-0.03745612069758192,3.4596304893493652,2019-07-25 15:40:12:726,92.38464172668799,-113.69452673549627,0,-25.33968162536621,9.44615364074707,-43.33235549926758
-0.30277779698371887,-0.1422169953584671,9.737227439880371,1.0921627247073539e-05,0.022229771803541284,-0.03905440434222536,3.4697468280792236,2019-07-25 15:40:12:736,94.08870107570945,-115.00390693381058,0,-25.33968162536621,9.44615364074707,-43.33235549926758
-0.17585605382919312,-0.07755875587463379,9.885701179504395,-0.0015873652043227706,0.010509002189615405,-0.04438202897460446,3.479626417160034,2019-07-25 15:40:12:745,95.78071485243231,-116.29395807120513,0,-25.63956069946289,10.645665168762207,-45.131622314453125
-0.16627705097198486,-0.10150625556707382,9.907254219055176,1.0921627247073539e-05,-0.0012117678144219638,-0.03985354824514169,3.489625930786133,2019-07-25 15:40:12:755,97.44655041562135,-117.55634480310572,0,-25.63956069946289,10.645665168762207,-45.131622314453125
-0.25727754831314087,-0.1422169953584671,9.639041900634766,-0.005316700990571915,0.012107288955150754,-0.03985354824514169,3.4996273517608643,2019-07-25 15:40:12:765,99.06024161861488,-118.78532624485037,0,-25.63956069946289,10.645665168762207,-45.131622314453125
-0.12796105444431305,-0.1494012475013733,9.830622673034668,-0.004517557607804241,0.019832342175386916,-0.04518117287752078,3.5096166133880615,2019-07-25 15:40:12:775,100.65299785527169,-119.98967208789615,0,-25.63956069946289,10.645665168762207,-45.131622314453125
-0.07767131179571152,-0.15179599821567535,9.940780639648438,0.0018755895843743117,0.0009192813363289952,-0.03852164312734421,3.519627094268799,2019-07-25 15:40:12:785,102.23046786538733,-121.1734360876773,0,-25.63956069946289,10.645665168762207,-45.131622314453125
-0.13275055587291718,-0.16616450250148773,9.804280281066895,-0.0023865085870904443,-0.004408341475529821,-0.03665697679466559,3.5296273231506348,2019-07-25 15:40:12:795,103.77281902323409,-122.3292080133305,0,-25.63956069946289,10.645665168762207,-45.131622314453125
-0.1902245432138443,-0.18292774260044098,9.655805587768555,0.0018755895843743117,0.015303863526518748,-0.04225097995389066,3.539632797241211,2019-07-25 15:40:12:806,105.26619260910327,-123.46197097367381,0,-25.63956069946289,10.645665168762207,-45.131622314453125
-0.19980354607105255,-0.20208574831485748,9.854569435119629,-0.001320984076733546,0.008111572041312385,-0.03985354824514169,3.5496323108673096,2019-07-25 15:40:12:816,106.73308383597792,-124.56849408345016,0,-25.63956069946289,10.645665168762207,-45.131622314453125
-0.24051429331302643,-0.1613750010728836,9.885701179504395,0.0002773027863296734,0.0006529002087397708,-0.03932078703026053,3.559629440307617,2019-07-25 15:40:12:825,108.17018159282232,-125.65857550295355,0,-25.63956069946289,10.645665168762207,-45.131622314453125
-0.21177729964256287,-0.20926998555660248,9.751595497131348,-0.0007882218215550968,0.0049149985102416895,-0.03772249922442789,3.5696327686309814,2019-07-25 15:40:12:836,109.57913511656756,-126.72037359788412,0,-25.63956069946289,10.645665168762207,-45.131622314453125
-0.36264652013778687,-0.1877172440290451,9.770753860473633,-0.003452033357521668,0.011308146092531729,-0.04038631362121203,3.579620361328125,2019-07-25 15:40:12:845,110.93869905485843,-127.76201741822156,0,-25.63956069946289,10.645665168762207,-45.131622314453125
-0.30996203422546387,-0.17095398902893066,9.823437690734863,1.0921627247073539e-05,-0.00041262439914499955,-0.0302638276519296,3.5896248817443848,2019-07-25 15:40:12:855,112.28401142216458,-128.78684323349745,0,-25.63956069946289,10.645665168762207,-45.131622314453125
-0.32433053851127625,-0.25716498494148254,9.794700622558594,0.0016092084567850867,0.0009192813363289952,-0.03425954508591662,3.5996298789978027,2019-07-25 15:40:12:866,113.59988407856673,-129.78193068645126,0,-25.63956069946289,10.645665168762207,-45.131622314453125
-0.5254895091056824,-0.22363848984241486,9.761174201965332,-0.0047839387353934655,0.0009192813363289952,-0.03479230838139237,3.609626293182373,2019-07-25 15:40:12:875,114.86573992155864,-130.75735735430254,0,-26.38925552368164,10.19584846496582,-44.381927490234375
-0.48238399624824524,-0.18292774260044098,9.912043571472168,-0.005050319862982691,-0.0041419603479405966,-0.02839915923865638,3.619617462158203,2019-07-25 15:40:12:885,116.11502509258735,-131.71823137884658,0,-26.38925552368164,10.19584846496582,-44.381927490234375
-0.6955167055130005,-0.1494012475013733,9.86414909362793,-0.003452033357521668,-0.0030764358375836983,-0.03186211545776225,3.6296379566192627,2019-07-25 15:40:12:896,117.31379105419963,-132.664569890331,0,-26.38925552368164,10.19584846496582,-44.381927490234375
-0.5997267365455627,-0.22603324055671692,9.849780082702637,-0.008779655649231834,-0.0006790055592435148,-0.031062971554845924,3.639620542526245,2019-07-25 15:40:12:905,118.49821012728046,-133.58006539948747,0,-26.38925552368164,10.19584846496582,-44.381927490234375
-0.5254895091056824,-0.06797976046800613,9.833017349243164,0.000543683913918898,0.002251186974275118,-0.04011993093317686,3.6496310234069824,2019-07-25 15:40:12:916,119.66579950970747,-134.50084762182124,0,-26.38925552368164,10.19584846496582,-44.381927490234375
-0.6140952706336975,-0.060795512050390244,9.840201377868652,-0.0039847956127001165,-0.009735964547462964,-0.04065269214805801,3.6596314907073975,2019-07-25 15:40:12:926,120.80653022691833,-135.40151341107253,0,-26.38925552368164,10.19584846496582,-44.381927490234375
-0.6643849611282349,-0.034453265368938446,9.950359344482422,-0.00798051278661281,-0.0020109111971896377,-0.046779460683353424,3.669618844985962,2019-07-25 15:40:12:935,121.91512799624097,-136.2850400286836,0,-26.38925552368164,10.19584846496582,-44.381927490234375
-0.623674213886261,-0.024874264374375343,9.91683292388916,-0.0039847956127001165,-0.0014781489420111885,-0.04757860042508055,3.679631233215332,2019-07-25 15:40:12:946,123.00568406987423,-137.15422471968526,0,-26.38925552368164,10.19584846496582,-44.381927490234375
-0.5542265176773071,-0.03684801235795021,9.947964668273926,-0.013574516986135179,-0.009469582899725089,-0.05716832309888723,3.689631938934326,2019-07-25 15:40:12:956,124.08711196751501,-137.99927307610253,0,-26.38925552368164,10.19584846496582,-44.381927490234375
-0.6452270150184631,-0.039242763072252274,9.859359741210938,-0.007447750531434362,-0.014530824844069007,-0.06729080698757507,3.6996285915374756,2019-07-25 15:40:12:965,125.13864055734012,-138.8305461007977,0,-26.38925552368164,10.19584846496582,-44.381927490234375
-0.42251527309417725,0.008652230724692345,9.557621002197266,0.0008100650740174133,-0.00041262439914499955,-0.06649166308465874,3.7096266746520996,2019-07-25 15:40:12:975,126.1854746779056,-132.45542730513077,0,-26.38925552368164,10.19584846496582,-44.381927490234375
-0.1447243094444275,0.0014679816085845232,9.799490928649902,-0.004251176740289341,-0.003609198092762148,-0.06302870894614747,3.7196245193481445,2019-07-25 15:40:12:985,127.24686902151821,-126.20410390379438,0,-26.38925552368164,10.19584846496582,-44.381927490234375
-0.07767131179571152,-0.2140594869852066,9.878517150878906,-0.0031856519698581177,-0.010535107410081988,-0.05903299359275506,3.7296338081359863,2019-07-25 15:40:12:996,128.29884283802843,-127.253404245171,0,-26.989011764526367,9.296215057373047,-44.381927490234375
-0.20698779821395874,-0.3242179751396179,9.986281394958496,-0.02875824281916693,-0.013998062588890556,-0.048910509704067226,3.73964262008667,2019-07-25 15:40:13:006,129.3169845625271,-128.2549835986893,0,-26.989011764526367,9.296215057373047,-44.381927490234375
0.1761721521615982,-0.08713775873184204,9.643832206726074,0.0021419707119635363,-0.005740247113475944,-0.03212849606520282,3.7496299743652344,2019-07-25 15:40:13:016,123.15479503086408,-129.28073137241665,0,-26.989011764526367,9.296215057373047,-44.381927490234375
0.16659316420555115,0.21220596134662628,9.816253662109375,0.013862740716000905,-0.009469582899725089,-0.02387068058978821,3.7596452236175537,2019-07-25 15:40:13:026,117.11647004096626,-123.12768085894943,0,-26.989011764526367,9.296215057373047,-44.381927490234375
-0.2740407884120941,-0.5253769755363464,9.885701179504395,-0.014640041496492076,-0.0038755792203513722,-0.023337919374907066,3.769632339477539,2019-07-25 15:40:13:036,118.34455626091683,-124.1960748632047,0,-26.989011764526367,9.296215057373047,-44.381927490234375
0.5641216039657593,-0.18053299188613892,9.770753860473633,0.000543683913918898,0.006513285275777036,-0.011084385425208131,3.7801012992858887,2019-07-25 15:40:13:046,112.43992333312815,-125.29130243053439,0,-26.989011764526367,9.296215057373047,-44.381927490234375
-0.503936767578125,-0.2978757321834564,10.189834594726562,-0.011177086317683507,-0.024653308732756844,-0.006289525128602088,3.7898685932159424,2019-07-25 15:40:13:056,113.74802058289178,-126.3458579105495,0,-26.989011764526367,9.296215057373047,-44.381927490234375
0.16898790001869202,-0.4367712140083313,9.971912384033203,-0.02662719171785853,0.025426347415206583,0.0009027657064184634,3.7996275424957275,2019-07-25 15:40:13:065,107.87854472850476,-127.35419080850403,0,-26.989011764526367,9.296215057373047,-44.381927490234375
0.20730389654636383,-0.3529549837112427,10.086860656738281,0.004273019862714496,-0.0020109111971896377,-0.0012282834443324959,3.809624195098877,2019-07-25 15:40:13:075,102.145649978585,-128.36942446378842,0,-26.989011764526367,9.296215057373047,-44.381927490234375
0.08756642043590546,0.14754770696163177,9.895280838012695,-0.0010546029491443213,-0.008137677781927616,0.005697626133061668,3.8196301460266113,2019-07-25 15:40:13:086,96.51744929224772,-122.21852884960573,0,-26.989011764526367,9.296215057373047,-44.381927490234375
0.14743515849113464,0.02541547827422619,9.71567440032959,0.004539401250378045,-0.00041262439914499955,0.01102524868484616,3.829641819000244,2019-07-25 15:40:13:096,91.00472017570641,-116.17970773824854,0,-26.989011764526367,9.296215057373047,-44.381927490234375
-0.3722255229949951,0.030204977840185165,9.897675514221191,-0.0002554595176127117,0.003050330357042792,0.002234671474401749,3.8396294116973877,2019-07-25 15:40:13:105,92.73984057123317,-110.25946732899043,0,-26.989011764526367,9.296215057373047,-44.381927490234375
-0.2812250256538391,0.1451529562473297,9.993465423583984,-0.003452033357521668,-0.01186701356817676,0.005164863877883219,3.8496384620666504,2019-07-25 15:40:13:116,94.45947452430899,-104.46898092563103,0,-26.989011764526367,9.296215057373047,-44.381927490234375
-0.3722255229949951,-0.13263800740242004,9.873727798461914,0.0021419707119635363,-0.010002345154903537,-0.00522400061824519,3.859637975692749,2019-07-25 15:40:13:126,96.13272211995505,-105.96541131401709,0,-26.38925552368164,10.19584846496582,-44.381927490234375
-0.29798829555511475,-0.2547702491283417,9.746806144714355,-0.0031856519698581177,0.0049149985102416895,-0.017743914135087396,3.8696484565734863,2019-07-25 15:40:13:136,97.77228194718272,-107.41436638330697,0,-26.38925552368164,10.19584846496582,-44.381927490234375
-0.16148754954338074,-0.017690015956759453,9.76596450805664,0.005338544633145719,0.011308146092531729,-0.022805156079431312,3.879627227783203,2019-07-25 15:40:13:145,99.39155343164606,-108.86699457456587,0,-26.38925552368164,10.19584846496582,-44.381927490234375
-0.09443455934524536,-0.0703745111823082,9.761174201965332,-0.005316700990571915,0.0057141418930093625,-0.02147325096163384,3.889646053314209,2019-07-25 15:40:13:156,100.98942201611689,-110.2784022517305,0,-26.38925552368164,10.19584846496582,-44.381927490234375
-0.020197318866848946,-0.16616450250148773,9.775543212890625,-0.014640041496492076,0.002251186974275118,-0.02786639802377523,3.8998539447784424,2019-07-25 15:40:13:166,102.56597567816743,-111.64496657263136,0,-26.38925552368164,10.19584846496582,-44.381927490234375
-0.125566303730011,-0.26913872361183167,9.732437133789062,-0.008779655649231834,0.013439195113245527,-0.030530208259370174,3.909633159637451,2019-07-25 15:40:13:176,104.09249308698949,-112.97556548917869,0,-26.38925552368164,10.19584846496582,-44.381927490234375
0.04925042390823364,-0.18532249331474304,9.813858985900879,-0.007447750531434362,0.007578809786133935,-0.023071536686871886,3.9201040267944336,2019-07-25 15:40:13:186,98.41193803596141,-114.2900387497245,0,-26.38925552368164,10.19584846496582,-44.381927490234375
-0.04893431439995766,-0.2978757321834564,9.801885604858398,-0.0023865085870904443,0.011041764444793854,-0.015080102859195149,3.929633378982544,2019-07-25 15:40:13:196,100.03207038908329,-115.56814777833236,0,-26.38925552368164,10.19584846496582,-44.381927490234375
-0.04893431439995766,-0.26195448637008667,9.883306503295898,1.0921627247073539e-05,0.003583092872295566,-0.019874963155801194,3.9396426677703857,2019-07-25 15:40:13:206,101.62374158969276,-116.82642587334276,0,-26.38925552368164,10.19584846496582,-44.381927490234375
-0.05372381582856178,-0.2523754835128784,9.758779525756836,-0.0007882218215550968,0.005980523020598588,-0.013215434445921928,3.949643611907959,2019-07-25 15:40:13:216,103.18159998004232,-118.05982637675834,0,-26.38925552368164,10.19584846496582,-44.381927490234375
-0.13993480801582336,-0.23800699412822723,9.885701179504395,-0.0023865085870904443,0.011840908347710179,-0.01214990993556503,3.959639549255371,2019-07-25 15:40:13:226,104.69510236183626,-119.269706770334,0,-26.38925552368164,10.19584846496582,-44.381927490234375
-0.4440680146217346,-0.28829672932624817,9.816253662109375,-0.0029192708422688934,0.004115855127474016,-0.013481816093659803,3.9696385860443115,2019-07-25 15:40:13:236,106.14708584109117,-120.44902853191972,0,-26.38925552368164,10.19584846496582,-44.381927490234375
-0.5853582620620728,-0.3888762295246124,9.88809585571289,-0.006115844893488239,0.00012013789667006295,-0.013748196701100375,3.979633331298828,2019-07-25 15:40:13:246,107.5563195474493,-121.59157269650028,0,-26.08937644958496,9.296215057373047,-44.381927490234375
-0.35785701870918274,-0.3074547350406647,9.866543769836426,-0.013308135338397302,-0.0020109111971896377,-0.010018860914851232,3.9896435737609863,2019-07-25 15:40:13:256,108.96477958207987,-122.7165643737197,0,-26.08937644958496,9.296215057373047,-44.381927490234375
-0.1902245432138443,-0.1613750010728836,9.761174201965332,0.000543683913918898,0.016369388036875647,-0.0166783896247305,3.999626874923706,2019-07-25 15:40:13:265,110.35397931638755,-123.84359491961182,0,-26.08937644958496,9.296215057373047,-44.381927490234375
-0.2357247918844223,-0.17813824117183685,9.758779525756836,0.009867024322311187,0.002251186974275118,-0.023604299982347636,4.009628772735596,2019-07-25 15:40:13:275,111.71796106932929,-124.95134899935508,0,-26.08937644958496,9.296215057373047,-44.381927490234375
-0.26925128698349,-0.07276926189661026,9.65820026397705,0.0002773027863296734,0.0019848058466858938,-0.02040772645127694,4.019638299942017,2019-07-25 15:40:13:286,113.05054875999068,-126.04384418835656,0,-26.08937644958496,9.296215057373047,-44.381927490234375
-0.35785701870918274,-0.15658549964427948,9.725253105163574,0.003207495352357597,0.010242621582174831,-0.02440344388526396,4.029642105102539,2019-07-25 15:40:13:296,114.34163750527084,-127.10632029569194,0,-26.08937644958496,9.296215057373047,-44.381927490234375
0.23843564093112946,0.22657445073127747,9.919227600097656,-0.02076680795119289,0.01663576864431622,-0.0014946645719217204,4.039633750915527,2019-07-25 15:40:13:306,108.4730114948656,-120.97871348675176,0,-26.08937644958496,9.296215057373047,-44.381927490234375
1.220283031463623,1.1509478092193604,8.932591438293457,0.05781562936896621,0.02116424729318439,-0.019342201940920043,4.049631834030151,2019-07-25 15:40:13:316,102.84725053225533,-115.1384364473194,0,-26.08937644958496,9.296215057373047,-44.381927490234375
0.17856690287590027,0.4133649170398712,8.489562034606934,0.06660620813985657,0.0451385498165119,-0.050242414821864693,4.059641361236572,2019-07-25 15:40:13:326,97.18903543183623,-109.32885434265792,0,-26.08937644958496,9.296215057373047,-44.381927490234375
0.5186213850975037,-0.35534971952438354,9.919227600097656,-0.021033188558633467,0.012640051210329201,-0.030530208259370174,4.06963324546814,2019-07-25 15:40:13:336,91.69802217589759,-110.68944261952626,0,-26.08937644958496,9.296215057373047,-44.381927490234375
-0.216566801071167,-0.5062189698219299,9.74441146850586,-0.02822547952369118,0.012640051210329201,-0.03772249922442789,4.079637765884399,2019-07-25 15:40:13:346,93.43149769309505,-112.00032156263245,0,-26.08937644958496,9.296215057373047,-44.381927490234375
0.022908175364136696,-0.25716498494148254,10.328730583190918,-0.048470447301066845,-0.010002345154903537,-0.018276677430563146,4.089635133743286,2019-07-25 15:40:13:356,87.9710240954543,-113.30458106401753,0,-26.08937644958496,9.296215057373047,-44.381927490234375
0.03488192334771156,-0.49903470277786255,9.928807258605957,0.009334262067132738,-0.007604915006600516,-0.04651307799531825,4.099635124206543,2019-07-25 15:40:13:366,82.61989957733881,-114.58618383814186,0,-26.08937644958496,9.296215057373047,-44.381927490234375
-0.314751535654068,-0.532561182975769,9.653410911560059,0.002674733097179148,0.0067796664033662616,-0.03745612069758192,4.109642267227173,2019-07-25 15:40:13:376,84.52634250096314,-115.8328090255292,0,-26.539194107055664,9.44615364074707,-43.93211364746094
-0.22135628759860992,-0.33619171380996704,9.742016792297363,0.008002355909037966,-0.0009453866868327393,-0.03079659094740535,4.119637489318848,2019-07-25 15:40:13:386,86.41031342991376,-117.08111477166916,0,-26.539194107055664,9.44615364074707,-43.93211364746094
-0.2548827826976776,-0.26913872361183167,9.940780639648438,0.0018755895843743117,0.02595910863008773,-0.035857832891749264,4.1296327114105225,2019-07-25 15:40:13:396,88.23816314721563,-118.30952793869955,0,-26.539194107055664,9.44615364074707,-43.93211364746094
-0.29080402851104736,0.12120546400547028,10.153913497924805,-0.0023865085870904443,-0.04383275199977561,-0.03639059410663042,4.139642238616943,2019-07-25 15:40:13:406,90.0652257667524,-112.35567402341636,0,-26.539194107055664,9.44615364074707,-43.93211364746094
-0.9685181975364685,-0.02247951552271843,9.461831092834473,-0.008779655649231834,0.0147711012713403,-0.04518117287752078,4.1496360301971436,2019-07-25 15:40:13:416,91.73874301080345,-113.70091136594262,0,-26.539194107055664,9.44615364074707,-43.93211364746094
-0.8799124360084534,-0.23561224341392517,10.388599395751953,-0.01836937624244392,0.007046047530955486,-0.03825526043930904,4.159640550613403,2019-07-25 15:40:13:426,93.40318228670603,-114.99058931681945,0,-26.539194107055664,9.44615364074707,-43.93211364746094
-0.6188847422599792,-0.08234825730323792,9.979096412658691,-0.015971946614289547,-0.024386928125316266,-0.03825526043930904,4.169630765914917,2019-07-25 15:40:13:436,95.077821850139,-116.27236211196855,0,-26.539194107055664,9.44615364074707,-43.93211364746094
-0.5135157704353333,-0.18532249331474304,9.737227439880371,-0.011177086317683507,0.0006529002087397708,-0.04438202897460446,4.1796348094940186,2019-07-25 15:40:13:446,96.71552201968456,-117.51882955913689,0,-26.539194107055664,9.44615364074707,-43.93211364746094
-0.6548059582710266,-0.11348000168800354,10.046150207519531,-0.017037471124646448,0.013705575720686099,-0.04544755140436675,4.189718008041382,2019-07-25 15:40:13:456,98.29886685622651,-118.74586329660919,0,-26.539194107055664,9.44615364074707,-43.93211364746094
-0.42969951033592224,0.04696822538971901,9.962333679199219,-0.0026528897146796686,0.013971957368423974,-0.04065269214805801,4.199628591537476,2019-07-25 15:40:13:465,99.87571894333375,-112.7748722275585,0,-26.539194107055664,9.44615364074707,-43.93211364746094
-0.15909279882907867,0.011046980507671833,9.926412582397461,-0.009312417904410284,-0.025718833243113737,-0.04411564628656928,4.209643840789795,2019-07-25 15:40:13:476,101.47430340689986,-106.91541317394216,0,-26.539194107055664,9.44615364074707,-43.93211364746094
-0.5757792592048645,0.3798384368419647,9.342093467712402,0.009600642674573312,0.022762535099017035,-0.04464841166263963,4.219644784927368,2019-07-25 15:40:13:486,102.96149825112792,-101.22906208691649,0,-26.539194107055664,9.44615364074707,-43.93211364746094
-0.7937014698982239,0.18825845420360565,9.404356956481934,-0.022098713068990364,-0.016395493257342228,-0.06089765992543368,4.22963547706604,2019-07-25 15:40:13:496,104.41498233474479,-95.61502012047987,0,-27.13895034790039,9.746031761169434,-44.83174514770508
0.4922791123390198,-0.7337201833724976,10.019807815551758,-0.011177086317683507,0.03181949447734797,-0.045713934092401924,4.239639759063721,2019-07-25 15:40:13:506,98.76506271526203,-97.21267868664344,0,-27.13895034790039,9.746031761169434,-44.83174514770508
0.8371230959892273,-0.3960604667663574,10.240124702453613,0.015194646874095679,0.002517568101864343,-0.02839915923865638,4.249632358551025,2019-07-25 15:40:13:516,93.28181885264918,-98.83265172177717,0,-27.13895034790039,9.746031761169434,-44.83174514770508
0.17138265073299408,0.4540756642818451,9.962333679199219,0.008002355909037966,-0.012666157471093084,-0.032394876672643395,4.259644269943237,2019-07-25 15:40:13:526,87.84301429058786,-93.31269119714416,0,-27.13895034790039,9.746031761169434,-44.83174514770508
0.2025144100189209,-0.5924299359321594,9.789911270141602,-0.02129956916607404,0.00731242865854471,-0.04011993093317686,4.269641637802124,2019-07-25 15:40:13:536,82.50575023215778,-94.96522098659175,0,-27.13895034790039,9.746031761169434,-44.83174514770508
0.2959096431732178,-0.5301664471626282,9.837806701660156,0.0018755895843743117,0.013971957368423974,-0.020674107058717514,4.279637813568115,2019-07-25 15:40:13:546,77.282250395386,-96.60527477189038,0,-27.13895034790039,9.746031761169434,-44.83174514770508
0.07559266686439514,0.4325229227542877,9.665384292602539,0.03224303903980605,0.014238339016161849,-0.021206868273598665,4.2896339893341064,2019-07-25 15:40:13:556,72.13757562399944,-91.14251195104916,0,-27.13895034790039,9.746031761169434,-44.83174514770508
-0.12077680975198746,-0.06319025903940201,9.952754974365234,-0.00558308263830979,-0.0001462432553011296,-0.023604299982347636,4.299638509750366,2019-07-25 15:40:13:566,74.28100124610421,-92.90925005622894,0,-27.13895034790039,9.746031761169434,-44.83174514770508
-0.34348851442337036,-0.17095398902893066,9.64622688293457,0.0018755895843743117,0.00731242865854471,-0.02973106643704845,4.309640884399414,2019-07-25 15:40:13:576,76.35048712499467,-94.63181223340315,0,-27.13895034790039,9.746031761169434,-44.83174514770508
-0.4704102575778961,0.020625978708267212,9.935991287231445,0.0018755895843743117,0.004115855127474016,-0.02546896839562086,4.319631814956665,2019-07-25 15:40:13:586,78.36695660498262,-89.14260696055854,0,-27.13895034790039,9.746031761169434,-44.83174514770508
-0.3267252743244171,-0.1422169953584671,9.792305946350098,-0.0015873652043227706,0.009443477679258508,-0.03319402057555972,4.329639673233032,2019-07-25 15:40:13:596,80.35609092761865,-90.9422214649932,0,-27.13895034790039,9.746031761169434,-44.83174514770508
-0.23811954259872437,-0.1685592532157898,9.840201377868652,0.0018755895843743117,-0.0009453866868327393,-0.03292763996811915,4.339632511138916,2019-07-25 15:40:13:606,82.32177536801203,-92.70480220343552,0,-27.13895034790039,9.746031761169434,-44.83174514770508
-0.39617303013801575,-0.18292774260044098,9.696516036987305,0.004539401250378045,0.005447760765420138,-0.04225097995389066,4.349652051925659,2019-07-25 15:40:13:616,84.22548203316072,-94.43164452344054,0,-27.13895034790039,9.746031761169434,-44.83174514770508
-0.30996203422546387,-0.15898025035858154,9.88809585571289,-0.00558308263830979,0.013439195113245527,-0.0470458392101994,4.359629392623901,2019-07-25 15:40:13:625,86.09753415678117,-96.12146146384005,0,-25.789499282836914,9.59609317779541,-43.482295989990234
-0.17825080454349518,-0.12545375525951385,9.782727241516113,-0.0007882218215550968,0.010509002189615405,-0.04651307799531825,4.369664192199707,2019-07-25 15:40:13:636,87.94878476245286,-97.78389368570522,0,-25.789499282836914,9.59609317779541,-43.482295989990234
-0.08246081322431564,-0.15179599821567535,9.83541202545166,0.006404069143502617,0.008111572041312385,-0.04411564628656928,4.379661560058594,2019-07-25 15:40:13:646,89.77564841443078,-99.41412652143718,0,-25.789499282836914,9.59609317779541,-43.482295989990234
-0.10640830546617508,-0.13742749392986298,9.722858428955078,0.002674733097179148,0.004115855127474016,-0.05077517603674584,4.389625787734985,2019-07-25 15:40:13:655,91.56529210842167,-101.01114464138081,0,-25.789499282836914,9.59609317779541,-43.482295989990234
-0.19261929392814636,-0.18053299188613892,9.782727241516113,-0.0047839387353934655,0.0067796664033662616,-0.03958716971829571,4.399627923965454,2019-07-25 15:40:13:665,93.30761882187707,-102.56709037552737,0,-25.789499282836914,9.59609317779541,-43.482295989990234
-0.36983078718185425,-0.1685592532157898,9.909648895263672,-0.0005218406614565815,0.0003865190486412555,-0.04171821873900951,4.409656524658203,2019-07-25 15:40:13:676,94.99850275209641,-104.09596502048589,0,-25.789499282836914,9.59609317779541,-43.482295989990234
-0.34348851442337036,-0.13982224464416504,9.763568878173828,-0.0005218406614565815,0.0067796664033662616,-0.04411564628656928,4.419668197631836,2019-07-25 15:40:13:686,96.65442406593846,-105.59734304398894,0,-25.789499282836914,9.59609317779541,-43.482295989990234
-0.321935772895813,-0.1494012475013733,9.868938446044922,-0.0007882218215550968,-0.00041262439914499955,-0.04198459726585548,4.429630994796753,2019-07-25 15:40:13:696,98.28419861787992,-107.06760908854544,0,-25.789499282836914,9.59609317779541,-43.482295989990234
-0.4895682632923126,-0.04163751378655434,9.777937889099121,0.0002773027863296734,0.002517568101864343,-0.04651307799531825,4.440170764923096,2019-07-25 15:40:13:706,99.85969814351864,-108.5215413793806,0,-25.789499282836914,9.59609317779541,-43.482295989990234
-0.43448901176452637,-0.10390100628137589,9.816253662109375,-0.0026528897146796686,0.004648617382652464,-0.04411564628656928,4.449660778045654,2019-07-25 15:40:13:716,101.4093394404605,-109.93756833303311,0,-25.789499282836914,9.59609317779541,-43.482295989990234
-0.7410169839859009,-0.0895325094461441,9.809069633483887,-0.016504708869467997,0.01077538383735328,-0.04864412701603205,4.4596216678619385,2019-07-25 15:40:13:725,102.88872294591096,-111.3191267591152,0,-25.789499282836914,9.59609317779541,-43.482295989990234
-0.38898876309394836,0.07091572135686874,9.428304672241211,0.03677151768867422,0.004115855127474016,-0.04411564628656928,4.46963906288147,2019-07-25 15:40:13:736,104.38138254644906,-105.52204622687856,0,-25.789499282836914,9.59609317779541,-43.482295989990234
-0.9278074502944946,-0.532561182975769,9.924017906188965,-0.014373659848754201,0.014504719623602424,-0.048910509704067226,4.479656457901001,2019-07-25 15:40:13:746,105.7787739355561,-106.94208513904567,0,-26.38925552368164,9.296215057373047,-43.78217315673828
-0.47998926043510437,-0.0967167541384697,10.326335906982422,-0.003718414485110892,-0.0060066282410651695,-0.03958716971829571,4.489636421203613,2019-07-25 15:40:13:756,107.21333821813634,-108.39042737101308,0,-26.38925552368164,9.296215057373047,-43.78217315673828
-0.8104647397994995,-0.5062189698219299,9.68693733215332,-0.017570234420122198,-0.014797206491806882,-0.046779460683353424,4.499633073806763,2019-07-25 15:40:13:766,108.58172618219955,-109.75292774706631,0,-26.38925552368164,9.296215057373047,-43.78217315673828
-0.5350685119628906,0.14754770696163177,9.902464866638184,-0.0026528897146796686,0.011840908347710179,-0.030530208259370174,4.509608745574951,2019-07-25 15:40:13:775,109.94160107885342,-103.97345621443122,0,-26.38925552368164,9.296215057373047,-43.78217315673828
-0.7482012510299683,0.2768642008304596,9.70370101928711,0.020255888818439594,0.013971957368423974,-0.04997603213382952,4.519605875015259,2019-07-25 15:40:13:785,111.24674503493523,-98.33804366310004,0,-26.38925552368164,9.296215057373047,-43.78217315673828
-0.4919629991054535,-0.27632299065589905,9.770753860473633,0.0034738764799468217,-0.00547386598588672,-0.04624669530728308,4.529613494873047,2019-07-25 15:40:13:795,112.56723722840101,-99.94083628365681,0,-26.38925552368164,9.296215057373047,-43.78217315673828
-0.4512522518634796,-0.05840076133608818,9.873727798461914,-0.004251176740289341,-0.009469582899725089,-0.04225097995389066,4.539628744125366,2019-07-25 15:40:13:805,113.86888316766313,-101.53285114771802,0,-26.38925552368164,9.296215057373047,-43.78217315673828
