ACCELEROMETER X (m/s²),ACCELEROMETER Y (m/s²),ACCELEROMETER Z (m/s²),GYROSCOPE X (rad/s),GYROSCOPE Y (rad/s),GYROSCOPE Z (rad/s),Time since start in ms ,YYYY-MO-DD HH-MI-SS_SSS,Pitch (Deg),Roll (Deg),Heading (Deg),MagX,MagY,MagZ
0.05817325785756111,0.0880022644996643,9.771402359008789,-0.0038220366787245193,0.007426706357336231,-0.0063630465798910395,0.0,2019-07-26 12:23:29:505,-3.5931779643171553,3.5896800441905636,0,-35.985347747802734,19.791940689086914,-33.28644561767578
0.03662051260471344,0.06644951552152634,9.766613006591797,0.00044006165528668966,0.00849223086769313,0.002693912538365572,0.009994745254516602,2019-07-26 12:23:29:515,-7.121783615014936,7.109843085348858,0,-35.985347747802734,19.791940689086914,-33.28644561767578
0.04141001030802727,0.1406867504119873,9.783376693725586,0.0009728239429744294,0.005828419591800884,-0.0029000914010824694,0.020003080368041992,2019-07-26 12:23:29:525,-10.577773042554746,10.550622188478556,0,-35.985347747802734,19.791940689086914,-33.28644561767578
0.053383760154247284,0.13110776245594025,9.785771369934082,-0.0014246064003843356,0.004762895081443986,0.001095625642793062,0.02999591827392578,2019-07-26 12:23:29:535,-13.96263883948931,13.925057262267671,0,-35.985347747802734,19.791940689086914,-33.28644561767578
0.031831011176109314,0.11673925817012787,9.828876495361328,0.00017368051144281974,0.004230132566191211,-0.0015681857631363464,0.03999948501586914,2019-07-26 12:23:29:545,-17.28205106619829,17.23284896406588,0,-35.985347747802734,19.791940689086914,-33.28644561767578
0.07014700770378113,0.09997601062059402,9.840849876403809,-0.0008918440801873052,0.0031646080558343135,-0.00023628007642628753,0.049996137619018555,2019-07-26 12:23:29:555,-20.530018258706324,20.477051302412335,0,-35.985347747802734,19.791940689086914,-33.28644561767578
0.07014700770378113,0.12392351031303406,9.864797592163086,0.00044006165528668966,0.004762895081443986,-0.0007690423803686727,0.05999398231506348,2019-07-26 12:23:29:565,-23.713943389945314,23.652868777738338,0,-35.985347747802734,19.791940689086914,-33.28644561767578
0.07493650913238525,0.10237076133489609,9.855218887329102,-9.270064052837282e-05,0.004496513953854761,-0.004231997299102917,0.06999850273132324,2019-07-26 12:23:29:575,-26.833477375132716,26.767960744662556,0,-35.985347747802734,19.791940689086914,-33.28644561767578
0.024646764621138573,0.10237076133489609,9.800139427185059,0.0039030165415116433,0.010356899280966352,-0.0005026612202701574,0.07999205589294434,2019-07-26 12:23:29:585,-29.899737560289317,29.818441780053654,0,-35.985347747802734,19.791940689086914,-33.28644561767578
0.0390152633190155,0.0951865091919899,9.826481819152832,-0.002223749913189172,0.00502927620903321,0.0024275314107763475,0.09000349044799805,2019-07-26 12:23:29:595,-32.90002022720773,32.812223173156724,0,-35.985347747802734,19.791940689086914,-33.28644561767578
0.0390152633190155,0.09279175847768784,9.747454643249512,0.0007064428153852049,0.007160325229747007,0.001628387897971511,0.09999895095825195,2019-07-26 12:23:29:605,-35.8414518812647,35.74467390755181,0,-36.58510208129883,18.89230728149414,-35.08571243286133
0.053383760154247284,0.12871301174163818,9.797744750976562,-0.0032892744235460706,0.008758612515431006,-0.001834566890725571,0.10999131202697754,2019-07-26 12:23:29:615,-38.72329348908121,38.61657290991252,0,-36.58510208129883,18.89230728149414,-35.08571243286133
0.0390152633190155,0.12392351031303406,9.809718132019043,-0.002756512168367621,0.006893944102157782,-0.0026337102734932446,0.11999869346618652,2019-07-26 12:23:29:625,-41.54814389927079,41.43131510095181,0,-36.58510208129883,18.89230728149414,-35.08571243286133
0.07254175841808319,0.12631826102733612,9.831271171569824,-0.0006254629525980806,0.006094800719390108,-0.0015681857631363464,0.12999701499938965,2019-07-26 12:23:29:635,-44.3121474834936,44.188317313489506,0,-36.58510208129883,18.89230728149414,-35.08571243286133
0.03662051260471344,0.08321276307106018,9.795350074768066,0.00150558626317146,0.0031646080558343135,0.001628387897971511,0.1399991512298584,2019-07-26 12:23:29:645,-47.023397781292985,46.89397093532244,0,-36.58510208129883,18.89230728149414,-35.08571243286133
0.0294362623244524,0.12631826102733612,9.879166603088379,-0.002223749913189172,0.0028982269282450887,-0.0029000914010824694,0.14999723434448242,2019-07-26 12:23:29:655,-49.6811424697013,49.542688656039864,0,-36.58510208129883,18.89230728149414,-35.08571243286133
0.027041513472795486,0.11673925817012787,9.807323455810547,0.0028374920311547455,0.0018327022878510278,0.0018947690255607357,0.15999817848205566,2019-07-26 12:23:29:665,-52.28538917790148,52.13660198150377,0,-36.58510208129883,18.89230728149414,-35.08571243286133
0.007883516140282154,0.07123901695013046,9.82169246673584,-0.0019573686555627847,0.00902499312287158,-0.0029000914010824694,0.169999361038208,2019-07-26 12:23:29:675,-54.84382973029926,54.68665768546973,0,-36.58510208129883,18.89230728149414,-35.08571243286133
0.024646764621138573,0.13829199969768524,9.816903114318848,0.0009728239429744294,0.002365464673066639,-0.0026337102734932446,0.18000292778015137,2019-07-26 12:23:29:685,-57.34540483273371,57.17623650232797,0,-36.58510208129883,18.89230728149414,-35.08571243286133
0.048594262450933456,0.12392351031303406,9.78098201751709,0.00310387315874397,0.006893944102157782,-0.0015681857631363464,0.18999743461608887,2019-07-26 12:23:29:695,-59.79667241353724,59.616452114814756,0,-36.58510208129883,18.89230728149414,-35.08571243286133
-0.0016954827588051558,0.11673925817012787,9.79295539855957,0.00150558626317146,0.004762895081443986,0.001095625642793062,0.19999217987060547,2019-07-26 12:23:29:705,-55.00361031475213,62.009618619279856,0,-36.58510208129883,18.89230728149414,-35.08571243286133
0.05817325785756111,0.10955500602722168,9.852824211120605,-0.0030228932959568454,0.0010335588400647727,0.001095625642793062,0.21000337600708008,2019-07-26 12:23:29:715,-57.49735343909582,64.35838441829961,0,-36.58510208129883,18.89230728149414,-35.08571243286133
0.01267301570624113,0.12392351031303406,9.848034858703613,-0.0019573686555627847,0.002631845800655864,-0.0023673291459040203,0.21999549865722656,2019-07-26 12:23:29:725,-59.947408355005464,66.65789596734318,0,-34.336021423339844,20.241758346557617,-34.63589859008789
0.019857265055179596,0.0951865091919899,9.7642183303833,-0.0003590817924995654,0.004496513953854761,0.003226674793544021,0.23000025749206543,2019-07-26 12:23:29:735,-62.34865575704801,68.91376916045796,0,-34.336021423339844,20.241758346557617,-34.63589859008789
0.0030940165743231773,0.13829199969768524,9.773797035217285,-0.006485847954616764,0.004230132566191211,-0.0029000914010824694,0.23999285697937012,2019-07-26 12:23:29:745,-64.70369334403796,71.122920100694,0,-34.336021423339844,20.241758346557617,-34.63589859008789
0.0294362623244524,0.10955500602722168,9.819297790527344,0.00017368051144281974,0.007693087484925456,-0.005297521549385491,0.2499988079071045,2019-07-26 12:23:29:755,-67.01050649377949,73.28757954105865,0,-34.336021423339844,20.241758346557617,-34.63589859008789
0.06775225698947906,0.12392351031303406,9.915087699890137,0.0012392051355822353,0.006627562974568559,-0.0071621899626587125,0.26000547409057617,2019-07-26 12:23:29:765,-69.2661900082447,75.40681021874288,0,-34.336021423339844,20.241758346557617,-34.63589859008789
0.048594262450933456,0.1478710025548935,9.838455200195312,-0.0003590817924995654,0.00556203846421166,-0.004764759294207041,0.26999735832214355,2019-07-26 12:23:29:775,-71.4783268710711,77.48165377409418,0,-34.336021423339844,20.241758346557617,-34.63589859008789
0.05098900943994522,0.0880022644996643,9.79295539855957,-0.0008918440801873052,0.0028982269282450887,-0.0021009480183147955,0.2799861431121826,2019-07-26 12:23:29:785,-73.64441947088724,79.52222366209294,0,-34.336021423339844,20.241758346557617,-34.63589859008789
0.0294362623244524,0.10716026276350021,9.816903114318848,-0.0030228932959568454,0.002365464673066639,-0.0031664725286716937,0.29000163078308105,2019-07-26 12:23:29:795,-75.76942529365581,81.5209709730924,0,-34.336021423339844,20.241758346557617,-34.63589859008789
0.048594262450933456,0.12631826102733612,9.80492877960205,-0.0008918440801873052,0.004230132566191211,-0.0036992350439244686,0.29999327659606934,2019-07-26 12:23:29:805,-77.85073078498755,83.47628973128798,0,-34.336021423339844,20.241758346557617,-34.63589859008789
0.05577851086854935,0.13110776245594025,9.826481819152832,0.0039030165415116433,0.00902499312287158,3.010106944941304e-05,0.3099980354309082,2019-07-26 12:23:29:815,-79.8922815586664,85.3892831251838,0,-34.336021423339844,20.241758346557617,-34.63589859008789
0.07972601056098938,0.0880022644996643,9.864797592163086,-0.0038220366787245193,0.007693087484925456,-0.0031664725286716937,0.3199942111968994,2019-07-26 12:23:29:825,-81.88949299463926,87.2734204538057,0,-34.336021423339844,20.241758346557617,-34.63589859008789
0.08451550453901291,0.07842326164245605,9.75224494934082,-0.0003590817924995654,0.0028982269282450887,-0.0031664725286716937,0.32999634742736816,2019-07-26 12:23:29:835,-83.84340027735122,89.1189389615378,0,-34.336021423339844,20.241758346557617,-34.63589859008789
0.05577851086854935,0.1143445074558258,9.819297790527344,0.0012392051355822353,0.00556203846421166,0.002693912538365572,0.3399958610534668,2019-07-26 12:23:29:845,-85.7631458946319,90.922520962047,0,-34.336021423339844,20.241758346557617,-34.63589859008789
0.07493650913238525,0.1143445074558258,9.819297790527344,-0.005153942316670643,0.005295657336622434,-0.0036992350439244686,0.35001254081726074,2019-07-26 12:23:29:855,-87.64211649301346,92.69362585930793,0,-35.53553009033203,21.441268920898438,-34.336021423339844
0.07493650913238525,0.1143445074558258,9.797744750976562,0.0012392051355822353,0.00502927620903321,-0.0026337102734932446,0.35999035835266113,2019-07-26 12:23:29:865,-89.48332764652324,94.4256862813134,0,-35.53553009033203,21.441268920898438,-34.336021423339844
0.07493650913238525,0.10237076133489609,9.754639625549316,-9.270064052837282e-05,0.007160325229747007,-0.0029000914010824694,0.37001967430114746,2019-07-26 12:23:29:875,-91.28889048193321,96.1251993081309,0,-35.53553009033203,21.441268920898438,-34.336021423339844
0.048594262450933456,0.10237076133489609,9.812113761901855,-0.0006254629525980806,0.007693087484925456,3.010106944941304e-05,0.37999534606933594,2019-07-26 12:23:29:885,-93.06174674789304,97.79109064629635,0,-35.53553009033203,21.441268920898438,-34.336021423339844
0.065357506275177,0.0951865091919899,9.824087142944336,-0.0016909875279735602,0.007959468612514682,0.003226674793544021,0.3899972438812256,2019-07-26 12:23:29:895,-94.7973584782092,99.42511596368252,0,-35.53553009033203,21.441268920898438,-34.336021423339844
0.05577851086854935,0.11194975674152374,9.838455200195312,-0.0006254629525980806,0.009557755378050028,0.004292199303900919,0.40000009536743164,2019-07-26 12:23:29:905,-96.50028287790002,101.02392636621543,0,-35.53553009033203,21.441268920898438,-34.336021423339844
0.04141001030802727,0.11194975674152374,9.797744750976562,-0.0006254629525980806,0.00849223086769313,0.0021611501531499603,0.40999817848205566,2019-07-26 12:23:29:915,-98.17020151743634,102.59070622156936,0,-35.53553009033203,21.441268920898438,-34.336021423339844
0.07733125984668732,0.11673925817012787,9.778586387634277,-0.0014246064003843356,0.003963751438601987,0.001095625642793062,0.4199995994567871,2019-07-26 12:23:29:925,-99.799961475149,104.12601254265029,0,-35.53553009033203,21.441268920898438,-34.336021423339844
0.07493650913238525,0.08081801235675812,9.807323455810547,-0.0032892744235460706,0.006094800719390108,0.0029602936659547966,0.42999839782714844,2019-07-26 12:23:29:935,-101.39862843207982,105.6358962000972,0,-35.53553009033203,21.441268920898438,-34.336021423339844
0.04619951173663139,0.11913400888442993,9.83366584777832,0.00150558626317146,0.003963751438601987,-0.0010354235079578973,0.4399995803833008,2019-07-26 12:23:29:945,-102.96749818518266,107.10845080262534,0,-35.53553009033203,21.441268920898438,-34.336021423339844
0.04141001030802727,0.10476551204919815,9.783376693725586,-0.0003590817924995654,-3.1965737342537616e-05,0.0002964822275160976,0.4500010013580322,2019-07-26 12:23:29:955,-104.50327999259034,108.5542128449939,0,-35.53553009033203,21.441268920898438,-34.336021423339844
0.06296275556087494,0.09039700776338577,9.79295539855957,-0.001158225272795111,0.003430989183423538,0.0008292445152038374,0.4599931240081787,2019-07-26 12:23:29:965,-106.00777193115799,109.97320097767573,0,-35.53553009033203,21.441268920898438,-34.336021423339844
0.065357506275177,0.09997601062059402,9.79295539855957,0.00017368051144281974,0.0063611818469793335,0.006689629712278266,0.4699983596801758,2019-07-26 12:23:29:975,-107.48354250979733,111.36194117154416,0,-35.985347747802734,20.39169692993164,-34.78583526611328
0.007883516140282154,0.12392351031303406,9.757034301757812,-0.005153942316670643,0.004762895081443986,0.0037594370487224705,0.4799938201904297,2019-07-26 12:23:29:985,-108.9356189247713,112.72304154301885,0,-35.985347747802734,20.39169692993164,-34.78583526611328
0.01267301570624113,0.13589724898338318,9.776191711425781,-0.002223749913189172,0.006893944102157782,0.004824961819153694,0.48999643325805664,2019-07-26 12:23:29:995,-110.35929303224198,114.05390151086776,0,-35.985347747802734,20.39169692993164,-34.78583526611328
-0.00887973140925169,0.0880022644996643,9.788166046142578,-0.0030228932959568454,0.006094800719390108,0.0029602936659547966,0.4999988079071045,2019-07-26 12:23:30:005,-104.55656977003595,115.36421895187718,0,-35.985347747802734,20.39169692993164,-34.78583526611328
0.019857265055179596,0.0951865091919899,9.831271171569824,-0.0030228932959568454,0.005828419591800884,0.0021611501531499603,0.5100023746490479,2019-07-26 12:23:30:015,-106.06639766700636,116.64753810411104,0,-35.985347747802734,20.39169692993164,-34.78583526611328
0.019857265055179596,0.11194975674152374,9.82169246673584,-0.0032892744235460706,0.00556203846421166,0.0008292445152038374,0.5199980735778809,2019-07-26 12:23:30:025,-107.54587466561205,117.90337264475558,0,-35.985347747802734,20.39169692993164,-34.78583526611328
0.0390152633190155,0.13589724898338318,9.814508438110352,0.0012392051355822353,0.002365464673066639,-0.0005026612202701574,0.5299978256225586,2019-07-26 12:23:30:035,-108.99173005141793,119.12874341401103,0,-35.985347747802734,20.39169692993164,-34.78583526611328
0.053383760154247284,0.13829199969768524,9.800139427185059,-0.001158225272795111,0.004496513953854761,0.001628387897971511,0.5399994850158691,2019-07-26 12:23:30:045,-110.40817863462583,120.33064979283924,0,-35.985347747802734,20.39169692993164,-34.78583526611328
0.031831011176109314,0.09039700776338577,9.788166046142578,-0.002756512168367621,0.005828419591800884,0.003226674793544021,0.5499968528747559,2019-07-26 12:23:30:055,-111.79956035810204,121.51500155213104,0,-35.985347747802734,20.39169692993164,-34.78583526611328
0.05577851086854935,0.1143445074558258,9.840849876403809,-9.270064052837282e-05,0.0031646080558343135,-0.0010354235079578973,0.559995174407959,2019-07-26 12:23:30:065,-113.15885072898298,122.67143934188249,0,-35.985347747802734,20.39169692993164,-34.78583526611328
0.017462514340877533,0.08560751378536224,9.869586944580078,0.0012392051355822353,0.0028982269282450887,-0.001834566890725571,0.5700070858001709,2019-07-26 12:23:30:075,-114.49527550743312,123.80737464067421,0,-35.985347747802734,20.39169692993164,-34.78583526611328
0.060568008571863174,0.10237076133489609,9.828876495361328,-0.0008918440801873052,0.0018327022878510278,-0.005830284324712591,0.5799918174743652,2019-07-26 12:23:30:085,-115.7993361552794,124.91979252193998,0,-35.985347747802734,20.39169692993164,-34.78583526611328
0.05098900943994522,0.09758125990629196,9.802534103393555,0.00017368051144281974,0.006627562974568559,-0.0007690423803686727,0.590001106262207,2019-07-26 12:23:30:095,-117.08111369838126,126.00989219347838,0,-35.985347747802734,20.39169692993164,-34.78583526611328
0.07972601056098938,0.14547625184059143,9.745059967041016,0.0017719673907606846,0.007426706357336231,0.0002964822275160976,0.5999979972839355,2019-07-26 12:23:30:105,-118.33428549020526,127.07159450950623,0,-34.485958099365234,19.492063522338867,-35.38559341430664
0.07733125984668732,0.1143445074558258,9.783376693725586,-0.003555655551135295,0.007426706357336231,-0.0031664725286716937,0.6099972724914551,2019-07-26 12:23:30:115,-119.56271203132775,128.11876654031582,0,-34.485958099365234,19.492063522338867,-35.38559341430664
0.04619951173663139,0.12631826102733612,9.783376693725586,-0.007284991337384439,0.005295657336622434,-0.001834566890725571,0.6200010776519775,2019-07-26 12:23:30:125,-120.76902117143335,129.1456885890977,0,-34.485958099365234,19.492063522338867,-35.38559341430664
0.065357506275177,0.09997601062059402,9.757034301757812,-0.002223749913189172,0.007426706357336231,-0.0034328539163352434,0.6299998760223389,2019-07-26 12:23:30:135,-121.95013453024,130.15228202102224,0,-34.485958099365234,19.492063522338867,-35.38559341430664
0.04141001030802727,0.10476551204919815,9.809718132019043,0.0012392051355822353,0.0020990834154402524,0.0005628633876146128,0.6400060653686523,2019-07-26 12:23:30:145,-123.10747394799287,131.13630249074546,0,-34.485958099365234,19.492063522338867,-35.38559341430664
0.06296275556087494,0.0880022644996643,9.824087142944336,0.00044006165528668966,0.002365464673066639,-0.0013018046355471218,0.6499924659729004,2019-07-26 12:23:30:155,-124.23930677436466,132.103065068202,0,-34.485958099365234,19.492063522338867,-35.38559341430664
0.053383760154247284,0.0951865091919899,9.776191711425781,0.0033702542863331946,0.005828419591800884,0.001095625642793062,0.6600050926208496,2019-07-26 12:23:30:165,-125.35154010949127,133.04795205708353,0,-34.485958099365234,19.492063522338867,-35.38559341430664
0.10606825351715088,0.09997601062059402,9.807323455810547,-0.001158225272795111,0.00502927620903321,0.0005628633876146128,0.6699953079223633,2019-07-26 12:23:30:175,-126.43493764241684,133.97596164445562,0,-34.485958099365234,19.492063522338867,-35.38559341430664
0.07014700770378113,0.10716026276350021,9.771402359008789,0.0012392051355822353,0.003430989183423538,-0.0010354235079578973,0.679999589920044,2019-07-26 12:23:30:185,-127.49994004516438,134.8831798665578,0,-34.485958099365234,19.492063522338867,-35.38559341430664
-0.0040902323089540005,0.10237076133489609,9.816903114318848,-0.0016909875279735602,0.005828419591800884,-0.0007690423803686727,0.6899979114532471,2019-07-26 12:23:30:195,-121.35369079262136,135.77451641123199,0,-34.485958099365234,19.492063522338867,-35.38559341430664
0.048594262450933456,0.0880022644996643,9.800139427185059,-0.00675222908220599,0.008758612515431006,0.001095625642793062,0.6999979019165039,2019-07-26 12:23:30:205,-122.52585291350152,136.65252775072665,0,-34.485958099365234,19.492063522338867,-35.38559341430664
0.05817325785756111,0.10476551204919815,9.840849876403809,-0.0003590817924995654,0.005295657336622434,-0.0023673291459040203,0.709998607635498,2019-07-26 12:23:30:215,-123.67153567620666,137.5074798978179,0,-34.485958099365234,19.492063522338867,-35.38559341430664
0.0390152633190155,0.121528759598732,9.812113761901855,-0.0016909875279735602,0.003963751438601987,-0.0007690423803686727,0.7200024127960205,2019-07-26 12:23:30:225,-124.79577504574887,138.34408804018057,0,-35.08571243286133,20.69157600402832,-33.88620376586914
0.048594262450933456,0.11673925817012787,9.737875938415527,0.0039030165415116433,0.002631845800655864,0.003493055921133246,0.7299933433532715,2019-07-26 12:23:30:235,-125.89561764495184,139.16127996199782,0,-35.08571243286133,20.69157600402832,-33.88620376586914
0.0294362623244524,0.121528759598732,9.749850273132324,0.002038348518349909,0.003697370311012762,-0.005031140421796266,0.7400033473968506,2019-07-26 12:23:30:245,-126.97632375659659,139.96262595685212,0,-35.08571243286133,20.69157600402832,-33.88620376586914
0.07254175841808319,0.11673925817012787,9.785771369934082,-0.002756512168367621,0.00502927620903321,0.0037594370487224705,0.7499940395355225,2019-07-26 12:23:30:255,-128.0311240873523,140.75125023516014,0,-35.08571243286133,20.69157600402832,-33.88620376586914
0.07733125984668732,0.08081801235675812,9.773797035217285,0.0023047297759762964,0.003697370311012762,0.0013620067703822866,0.7599999904632568,2019-07-26 12:23:30:265,-129.06351249986378,141.52545517530692,0,-35.08571243286133,20.69157600402832,-33.88620376586914
0.05098900943994522,0.10955500602722168,9.82169246673584,0.0009728239429744294,0.007160325229747007,-0.0015681857631363464,0.7699987888336182,2019-07-26 12:23:30:275,-130.0803133480978,142.28161843671566,0,-35.08571243286133,20.69157600402832,-33.88620376586914
0.01267301570624113,0.1335025131702423,9.83366584777832,-0.0016909875279735602,0.007959468612514682,-0.001834566890725571,0.7799890041351318,2019-07-26 12:23:30:285,-131.08169515514197,143.02137855417882,0,-35.08571243286133,20.69157600402832,-33.88620376586914
0.01506776548922062,0.12871301174163818,9.754639625549316,-0.002756512168367621,0.003963751438601987,-0.0023673291459040203,0.7900018692016602,2019-07-26 12:23:30:295,-132.06051968856477,143.74738120972725,0,-35.08571243286133,20.69157600402832,-33.88620376586914
0.07254175841808319,0.1143445074558258,9.795350074768066,0.00150558626317146,0.0031646080558343135,0.0029602936659547966,0.7999942302703857,2019-07-26 12:23:30:305,-133.01259866946708,144.4582127854256,0,-35.08571243286133,20.69157600402832,-33.88620376586914
0.05817325785756111,0.06405476480722427,9.816903114318848,-9.270064052837282e-05,0.00502927620903321,-0.0007690423803686727,0.8100066184997559,2019-07-26 12:23:30:315,-133.948383709477,145.1616237139996,0,-35.08571243286133,20.69157600402832,-33.88620376586914
0.04141001030802727,0.09758125990629196,9.814508438110352,-0.0024901310407783963,0.006094800719390108,0.001095625642793062,0.8199975490570068,2019-07-26 12:23:30:325,-134.86800026117146,145.84839522694617,0,-35.08571243286133,20.69157600402832,-33.88620376586914
0.027041513472795486,0.07842326164245605,9.785771369934082,-0.0006254629525980806,0.0063611818469793335,3.010106944941304e-05,0.8299984931945801,2019-07-26 12:23:30:335,-135.77104583008662,146.52259537068727,0,-35.08571243286133,20.69157600402832,-33.88620376586914
0.048594262450933456,0.11194975674152374,9.785771369934082,0.0017719673907606846,0.002631845800655864,0.0005628633876146128,0.8399994373321533,2019-07-26 12:23:30:345,-136.6514124807292,147.178039647225,0,-35.08571243286133,20.69157600402832,-33.88620376586914
0.06296275556087494,0.07842326164245605,9.730691909790039,-0.0030228932959568454,0.005828419591800884,-0.0005026612202701574,0.8499977588653564,2019-07-26 12:23:30:355,-137.51424175120468,147.82694076028753,0,-34.18608093261719,20.39169692993164,-34.485958099365234
0.08451550453901291,0.10955500602722168,9.838455200195312,-0.0014246064003843356,0.004230132566191211,3.010106944941304e-05,0.8599944114685059,2019-07-26 12:23:30:365,-138.35648779225843,148.4584419056892,0,-34.18608093261719,20.39169692993164,-34.485958099365234
0.03422576189041138,0.1143445074558258,9.740270614624023,-0.005953085699438316,0.003963751438601987,0.001095625642793062,0.8700087070465088,2019-07-26 12:23:30:375,-139.1875603105639,149.07916880208649,0,-34.18608093261719,20.39169692993164,-34.485958099365234
0.08451550453901291,0.10476551204919815,9.747454643249512,-0.0019573686555627847,0.0119551860465017,0.003493055921133246,0.8799839019775391,2019-07-26 12:23:30:385,-140.00056983829523,149.68636594845123,0,-34.18608093261719,20.39169692993164,-34.485958099365234
0.05817325785756111,0.10716026276350021,9.80492877960205,0.0007064428153852049,0.0010335588400647727,0.005091342946742919,0.890002965927124,2019-07-26 12:23:30:395,-140.7943411804254,150.27971773706676,0,-34.18608093261719,20.39169692993164,-34.485958099365234
0.053383760154247284,0.10716026276350021,9.845640182495117,-0.0019573686555627847,0.006893944102157782,-0.0005026612202701574,0.8999979496002197,2019-07-26 12:23:30:405,-141.5761101804497,150.8627502013478,0,-34.18608093261719,20.39169692993164,-34.485958099365234
0.017462514340877533,0.11194975674152374,9.78098201751709,-0.0008918440801873052,0.003963751438601987,0.0029602936659547966,0.9099986553192139,2019-07-26 12:23:30:415,-142.34476791225885,151.43288081879322,0,-34.18608093261719,20.39169692993164,-34.485958099365234
0.04380476102232933,0.11913400888442993,9.852824211120605,-0.0024901310407783963,0.006893944102157782,-0.0007690423803686727,0.9199981689453125,2019-07-26 12:23:30:425,-143.09664870296618,151.99176634099823,0,-34.18608093261719,20.39169692993164,-34.485958099365234
0.04141001030802727,0.12392351031303406,9.812113761901855,-0.005686704571849092,0.004762895081443986,-0.0010354235079578973,0.9300026893615723,2019-07-26 12:23:30:435,-143.83255522431787,152.54065379714893,0,-34.18608093261719,20.39169692993164,-34.485958099365234
0.027041513472795486,0.10237076133489609,9.826481819152832,-0.0006254629525980806,0.007426706357336231,-0.0010354235079578973,0.9399993419647217,2019-07-26 12:23:30:445,-144.55691937018233,153.0782542614623,0,-34.18608093261719,20.39169692993164,-34.485958099365234
0.06775225698947906,0.11673925817012787,9.7642183303833,-0.0006254629525980806,0.006893944102157782,0.001095625642793062,0.9499986171722412,2019-07-26 12:23:30:455,-145.26170045588705,153.6033406370632,0,-34.18608093261719,20.39169692993164,-34.485958099365234
0.03662051260471344,0.12871301174163818,9.82169246673584,0.0007064428153852049,0.004230132566191211,0.0008292445152038374,0.9599976539611816,2019-07-26 12:23:30:465,-145.95456886642307,154.11586086290876,0,-34.18608093261719,20.39169692993164,-34.485958099365234
0.053383760154247284,0.121528759598732,9.814508438110352,-9.270064052837282e-05,0.0031646080558343135,3.010106944941304e-05,0.9699981212615967,2019-07-26 12:23:30:475,-146.6310216125574,154.61940705362258,0,-33.586326599121094,19.791940689086914,-34.485958099365234
0.031831011176109314,0.11913400888442993,9.7642183303833,0.0012392051355822353,0.00902499312287158,-0.0010354235079578973,0.9799871444702148,2019-07-26 12:23:30:485,-147.29972750753043,155.11234315027815,0,-33.586326599121094,19.791940689086914,-34.485958099365234
0.060568008571863174,0.13589724898338318,9.778586387634277,-0.0019573686555627847,0.005295657336622434,0.0008292445152038374,0.9912736415863037,2019-07-26 12:23:30:496,-147.94999135694857,155.59541248086504,0,-33.586326599121094,19.791940689086914,-34.485958099365234
0.04141001030802727,0.1478710025548935,9.800139427185059,0.00017368051144281974,0.0031646080558343135,-0.001834566890725571,1.0008223056793213,2019-07-26 12:23:30:506,-148.58784627248636,156.066122089008,0,-33.586326599121094,19.791940689086914,-34.485958099365234
0.05098900943994522,0.10716026276350021,9.857613563537598,0.00044006165528668966,0.003963751438601987,0.0018947690255607357,1.016632318496704,2019-07-26 12:23:30:522,-149.21368083433782,156.5319524491041,0,-33.586326599121094,19.791940689086914,-34.485958099365234
0.11325250566005707,0.09997601062059402,9.72350788116455,-0.0030228932959568454,0.00502927620903321,-0.00023628007642628753,1.0247015953063965,2019-07-26 12:23:30:530,-149.81833971987425,156.9909012796,0,-33.586326599121094,19.791940689086914,-34.485958099365234
0.060568008571863174,0.121528759598732,9.83366584777832,-0.0030228932959568454,0.006893944102157782,0.001095625642793062,1.0315487384796143,2019-07-26 12:23:30:537,-150.41756552206908,157.43808444716026,0,-33.586326599121094,19.791940689086914,-34.485958099365234
0.07014700770378113,0.121528759598732,9.802534103393555,0.0007064428153852049,0.004230132566191211,-0.00023628007642628753,1.0400094985961914,2019-07-26 12:23:30:545,-151.0030237823384,157.87478117187428,0,-33.586326599121094,19.791940689086914,-34.485958099365234
0.06775225698947906,0.10476551204919815,9.757034301757812,-9.270064052837282e-05,0.00556203846421166,-0.004498378166617817,1.0499887466430664,2019-07-26 12:23:30:555,-151.5781228619559,158.30503377148807,0,-33.586326599121094,19.791940689086914,-34.485958099365234
0.060568008571863174,0.09279175847768784,9.814508438110352,-0.002756512168367621,0.00556203846421166,-0.0029000914010824694,1.060096025466919,2019-07-26 12:23:30:565,-152.14264531785497,158.72966368508807,0,-33.586326599121094,19.791940689086914,-34.485958099365234
0.0030940165743231773,0.04489676654338837,9.776191711425781,0.00310387315874397,0.007426706357336231,0.0029602936659547966,1.070467472076416,2019-07-26 12:23:30:576,-152.7037547285116,159.148000320171,0,-33.586326599121094,19.791940689086914,-34.485958099365234
0.07014700770378113,0.09279175847768784,9.857613563537598,0.0007064428153852049,0.00556203846421166,0.0013620067703822866,1.0799920558929443,2019-07-26 12:23:30:585,-153.24450001044073,159.55387608301837,0,-33.586326599121094,19.791940689086914,-34.485958099365234
0.09648925811052322,0.09039700776338577,9.82169246673584,-0.0008918440801873052,0.007693087484925456,-0.0010354235079578973,1.0900230407714844,2019-07-26 12:23:30:595,-153.77268582919012,159.95275438872974,0,-33.586326599121094,19.791940689086914,-34.485958099365234
0.0390152633190155,0.09758125990629196,9.761823654174805,0.005767684434636216,0.007959468612514682,0.0037594370487224705,1.1000349521636963,2019-07-26 12:23:30:605,-154.29712678897448,160.33900246263875,0,-36.13528823852539,19.64200210571289,-34.93577575683594
0.07014700770378113,0.14547625184059143,9.790560722351074,0.0012392051355822353,0.006627562974568559,3.010106944941304e-05,1.110032558441162,2019-07-26 12:23:30:615,-154.80669466147916,160.7145010589175,0,-36.13528823852539,19.64200210571289,-34.93577575683594
0.060568008571863174,0.12871301174163818,9.800139427185059,-9.270064052837282e-05,0.005828419591800884,-0.0010354235079578973,1.119988203048706,2019-07-26 12:23:30:625,-155.3067368658101,161.08521350420187,0,-36.13528823852539,19.64200210571289,-34.93577575683594
0.04141001030802727,0.12392351031303406,9.80492877960205,-0.0024901310407783963,0.007160325229747007,-0.0031664725286716937,1.129988193511963,2019-07-26 12:23:30:635,-155.79978302111738,161.4504250970058,0,-36.13528823852539,19.64200210571289,-34.93577575683594
0.04141001030802727,0.13589724898338318,9.773797035217285,-0.0019573686555627847,0.002365464673066639,-0.0029000914010824694,1.1402325630187988,2019-07-26 12:23:30:645,-156.28029299167585,161.80661045040344,0,-36.13528823852539,19.64200210571289,-34.93577575683594
0.05577851086854935,0.12631826102733612,9.812113761901855,-0.003555655551135295,0.00556203846421166,-0.00023628007642628753,1.1499955654144287,2019-07-26 12:23:30:655,-156.75122212464848,162.15767605594982,0,-36.13528823852539,19.64200210571289,-34.93577575683594
0.07254175841808319,0.13829199969768524,9.785771369934082,-0.0014246064003843356,0.004496513953854761,-0.0005026612202701574,1.1602272987365723,2019-07-26 12:23:30:665,-157.2102864789539,162.4991480459118,0,-36.13528823852539,19.64200210571289,-34.93577575683594
0.03662051260471344,0.09279175847768784,9.867192268371582,-0.0019573686555627847,0.0020990834154402524,-0.00023628007642628753,1.1700024604797363,2019-07-26 12:23:30:675,-157.66298001800635,162.83946348195644,0,-36.13528823852539,19.64200210571289,-34.93577575683594
0.053383760154247284,0.14308150112628937,9.826481819152832,0.00310387315874397,0.00556203846421166,3.010106944941304e-05,1.1800251007080078,2019-07-26 12:23:30:685,-158.1066252772023,163.16424316976108,0,-36.13528823852539,19.64200210571289,-34.93577575683594
0.053383760154247284,0.10716026276350021,9.814508438110352,-0.0024901310407783963,0.004496513953854761,-0.005830284324712591,1.1899971961975098,2019-07-26 12:23:30:695,-158.5407776301416,163.48984136322647,0,-36.13528823852539,19.64200210571289,-34.93577575683594
0.07972601056098938,0.10476551204919815,9.80492877960205,-0.0003590817924995654,0.00902499312287158,0.0037594370487224705,1.2001399993896484,2019-07-26 12:23:30:705,-158.965784480918,163.80800541476472,0,-36.13528823852539,19.64200210571289,-34.93577575683594
0.09648925811052322,0.09997601062059402,9.843245506286621,0.00017368051144281974,0.005295657336622434,0.0013620067703822866,1.2099931240081787,2019-07-26 12:23:30:715,-159.37816604616847,164.12011076650327,0,-36.13528823852539,19.64200210571289,-34.93577575683594
0.07014700770378113,0.11913400888442993,9.824087142944336,-0.0016909875279735602,0.005295657336622434,-0.0015681857631363464,1.2201876640319824,2019-07-26 12:23:30:725,-159.78545202502457,164.4247809869112,0,-35.68547058105469,20.091819763183594,-34.78583526611328
0.065357506275177,0.12392351031303406,9.78098201751709,-0.0006254629525980806,0.002631845800655864,0.0005628633876146128,1.230004072189331,2019-07-26 12:23:30:735,-160.1835366222179,164.72211232181513,0,-35.68547058105469,20.091819763183594,-34.78583526611328
0.048594262450933456,0.13589724898338318,9.797744750976562,-0.005953085699438316,0.0063611818469793335,0.003493055921133246,1.2400331497192383,2019-07-26 12:23:30:745,-160.57776467431353,165.01512931858483,0,-35.68547058105469,20.091819763183594,-34.78583526611328
0.08212075382471085,0.10476551204919815,9.869586944580078,-0.0032892744235460706,0.006627562974568559,-0.0007690423803686727,1.2499971389770508,2019-07-26 12:23:30:755,-160.9603828775097,165.30450358507076,0,-35.68547058105469,20.091819763183594,-34.78583526611328
0.04380476102232933,0.07842326164245605,9.860008239746094,-0.004088417806313744,0.003963751438601987,0.0013620067703822866,1.2599904537200928,2019-07-26 12:23:30:765,-161.33830848198556,165.5915935762893,0,-35.68547058105469,20.091819763183594,-34.78583526611328
0.0390152633190155,0.1406867504119873,9.797744750976562,-0.004354798933902968,0.003697370311012762,-0.0005026612202701574,1.2700047492980957,2019-07-26 12:23:30:775,-161.70905826155453,165.8657572335994,0,-35.68547058105469,20.091819763183594,-34.78583526611328
0.04141001030802727,0.13829199969768524,9.82169246673584,-0.0024901310407783963,0.004762895081443986,0.0013620067703822866,1.280012607574463,2019-07-26 12:23:30:785,-162.0727222007709,166.13370766767045,0,-35.68547058105469,20.091819763183594,-34.78583526611328
0.04380476102232933,0.12871301174163818,9.83366584777832,0.002038348518349909,0.004762895081443986,-0.00023628007642628753,1.2900030612945557,2019-07-26 12:23:30:795,-162.4288350344474,166.39489202571653,0,-35.68547058105469,20.091819763183594,-34.78583526611328
0.01267301570624113,0.09758125990629196,9.797744750976562,-0.0030228932959568454,0.00556203846421166,-0.0031664725286716937,1.3000056743621826,2019-07-26 12:23:30:805,-162.78190002881755,166.65727953757954,0,-35.68547058105469,20.091819763183594,-34.78583526611328
0.01267301570624113,0.121528759598732,9.83366584777832,0.00150558626317146,0.005295657336622434,-0.0013018046355471218,1.3100090026855469,2019-07-26 12:23:30:815,-163.12775973852672,166.90912727380106,0,-35.68547058105469,20.091819763183594,-34.78583526611328
0.06296275556087494,0.10716026276350021,9.840849876403809,0.002038348518349909,0.002631845800655864,-0.0029000914010824694,1.3200044631958008,2019-07-26 12:23:30:825,-163.45935006663188,167.1573229580137,0,-35.68547058105469,20.091819763183594,-34.78583526611328
0.007883516140282154,0.12631826102733612,9.836060523986816,0.0017719673907606846,0.0028982269282450887,3.010106944941304e-05,1.3300085067749023,2019-07-26 12:23:30:835,-163.79087263272095,167.39846568408123,0,-35.68547058105469,20.091819763183594,-34.78583526611328
0.02225201390683651,0.10476551204919815,9.7642183303833,0.0017719673907606846,0.008758612515431006,-0.0005026612202701574,1.3400068283081055,2019-07-26 12:23:30:845,-164.11736084157536,167.63720691167904,0,-35.68547058105469,20.091819763183594,-34.78583526611328
0.027041513472795486,0.09039700776338577,9.785771369934082,-0.0019573686555627847,0.007426706357336231,-0.0013018046355471218,1.3500020503997803,2019-07-26 12:23:30:855,-164.43601515978983,167.8749761033507,0,-35.08571243286133,19.492063522338867,-34.18608093261719
0.03422576189041138,0.09997601062059402,9.802534103393555,-0.0032892744235460706,0.00556203846421166,-0.0034328539163352434,1.3600077629089355,2019-07-26 12:23:30:865,-164.74641874463384,168.10763777561107,0,-35.08571243286133,19.492063522338867,-34.18608093261719
0.019857265055179596,0.10955500602722168,9.797744750976562,-0.005420323444259867,0.00556203846421166,-0.004764759294207041,1.370007038116455,2019-07-26 12:23:30:875,-165.05229077590764,168.33571560440723,0,-35.08571243286133,19.492063522338867,-34.18608093261719
0.01506776548922062,0.10476551204919815,9.814508438110352,0.0007064428153852049,0.002365464673066639,-0.0010354235079578973,1.3800137042999268,2019-07-26 12:23:30:885,-165.3508147806279,168.55637268656534,0,-35.08571243286133,19.492063522338867,-34.18608093261719
0.01506776548922062,0.09997601062059402,9.790560722351074,-0.002756512168367621,0.007693087484925456,-0.0063630465798910395,1.3900084495544434,2019-07-26 12:23:30:895,-165.64635229976727,168.77509112212863,0,-35.08571243286133,19.492063522338867,-34.18608093261719
0.08451550453901291,0.10237076133489609,9.840849876403809,-0.002756512168367621,0.002365464673066639,0.0002964822275160976,1.4000060558319092,2019-07-26 12:23:30:905,-165.92491199372162,168.98921659629508,0,-35.08571243286133,19.492063522338867,-34.18608093261719
0.060568008571863174,0.1335025131702423,9.766613006591797,-0.0032892744235460706,0.003963751438601987,-0.0034328539163352434,1.410017490386963,2019-07-26 12:23:30:915,-166.20153559336944,169.19561844019262,0,-35.08571243286133,19.492063522338867,-34.18608093261719
0.05817325785756111,0.13829199969768524,9.75224494934082,0.00017368051144281974,0.0018327022878510278,-0.0031664725286716937,1.4200029373168945,2019-07-26 12:23:30:925,-166.4716970071029,169.3953600908866,0,-35.08571243286133,19.492063522338867,-34.18608093261719
0.10367350280284882,0.11673925817012787,9.867192268371582,-0.0024901310407783963,0.005828419591800884,-0.003965616171513693,1.4300119876861572,2019-07-26 12:23:30:935,-166.73349911257762,169.5952956060299,0,-35.08571243286133,19.492063522338867,-34.18608093261719
0.05098900943994522,0.0951865091919899,9.838455200195312,0.0012392051355822353,0.00556203846421166,-0.004231997299102917,1.440006971359253,2019-07-26 12:23:30:945,-166.99601184478445,169.79160790698242,0,-35.08571243286133,19.492063522338867,-34.18608093261719
0.05098900943994522,0.12631826102733612,9.773797035217285,-0.0003590817924995654,0.006627562974568559,-0.0034328539163352434,1.4500458240509033,2019-07-26 12:23:30:955,-167.25384935090463,169.98116896729704,0,-35.08571243286133,19.492063522338867,-34.18608093261719
0.08930500596761703,0.09039700776338577,9.79295539855957,-0.0019573686555627847,0.00502927620903321,-0.00876047672819406,1.4600114822387695,2019-07-26 12:23:30:965,-167.50113692674913,170.17206343338123,0,-35.08571243286133,19.492063522338867,-34.18608093261719
0.07014700770378113,0.11194975674152374,9.740270614624023,0.0017719673907606846,0.008758612515431006,0.0005628633876146128,1.4700071811676025,2019-07-26 12:23:30:975,-167.7477775654218,170.35445763956238,0,-34.336021423339844,21.14139175415039,-33.43638610839844
0.110857754945755,0.11194975674152374,9.728297233581543,0.002038348518349909,0.007693087484925456,-0.0021009480183147955,1.4800341129302979,2019-07-26 12:23:30:985,-167.98409571434715,170.53303467069986,0,-34.336021423339844,21.14139175415039,-33.43638610839844
0.053383760154247284,0.10716026276350021,9.699560165405273,0.00044006165528668966,0.004762895081443986,-0.0071621899626587125,1.4900124073028564,2019-07-26 12:23:30:995,-168.22077560798377,170.7094679156664,0,-34.336021423339844,21.14139175415039,-33.43638610839844
0.04380476102232933,0.11913400888442993,9.824087142944336,0.0041693976691008685,0.00849223086769313,-0.0013018046355471218,1.5000112056732178,2019-07-26 12:23:31:005,-168.45601839355757,170.87904220476622,0,-34.336021423339844,21.14139175415039,-33.43638610839844
0.05098900943994522,0.13110776245594025,9.788166046142578,-0.003555655551135295,0.003963751438601987,0.0005628633876146128,1.509993553161621,2019-07-26 12:23:31:015,-168.68315043047633,171.04810626339446,0,-34.336021423339844,21.14139175415039,-33.43638610839844
0.05817325785756111,0.13110776245594025,9.766613006591797,0.00017368051144281974,0.005295657336622434,-0.0021009480183147955,1.5199944972991943,2019-07-26 12:23:31:025,-168.90563582600075,171.21166467265826,0,-34.336021423339844,21.14139175415039,-33.43638610839844
0.07972601056098938,0.1598447561264038,9.74266529083252,0.0023047297759762964,0.003430989183423538,0.002693912538365572,1.5299944877624512,2019-07-26 12:23:31:035,-169.12007257601385,171.36733829824524,0,-34.336021423339844,21.14139175415039,-33.43638610839844
0.07733125984668732,0.09997601062059402,9.788166046142578,-0.0032892744235460706,0.00556203846421166,-0.0029000914010824694,1.5399949550628662,2019-07-26 12:23:31:045,-169.33174124679044,171.53013460401024,0,-34.336021423339844,21.14139175415039,-33.43638610839844
0.04619951173663139,0.14308150112628937,9.807323455810547,0.0023047297759762964,0.0020990834154402524,-0.0007690423803686727,1.5499966144561768,2019-07-26 12:23:31:055,-169.54088720738272,171.68152073063806,0,-34.336021423339844,21.14139175415039,-33.43638610839844
0.04619951173663139,0.06405476480722427,9.800139427185059,-0.006485847954616764,0.002631845800655864,0.0005628633876146128,1.5599925518035889,2019-07-26 12:23:31:065,-169.74614464116968,171.84404091046207,0,-34.336021423339844,21.14139175415039,-33.43638610839844
0.053383760154247284,0.121528759598732,9.78098201751709,0.00044006165528668966,0.005828419591800884,0.001095625642793062,1.5699949264526367,2019-07-26 12:23:31:075,-169.9482409283423,171.992675664172,0,-34.336021423339844,21.14139175415039,-33.43638610839844
0.07014700770378113,0.10955500602722168,9.824087142944336,0.0033702542863331946,0.005828419591800884,-0.0007690423803686727,1.5799922943115234,2019-07-26 12:23:31:085,-170.1443658468672,172.1381519096893,0,-34.336021423339844,21.14139175415039,-33.43638610839844
0.07254175841808319,0.12631826102733612,9.78098201751709,-0.0016909875279735602,0.003697370311012762,0.002693912538365572,1.5899958610534668,2019-07-26 12:23:31:095,-170.3350566821644,172.28154038592996,0,-34.336021423339844,21.14139175415039,-33.43638610839844
0.05577851086854935,0.13589724898338318,9.74266529083252,-0.0008918440801873052,0.003963751438601987,-0.0023673291459040203,1.5999956130981445,2019-07-26 12:23:31:105,-170.5240206332222,172.42042737009064,0,-35.83540725708008,21.14139175415039,-33.13650894165039
0.06775225698947906,0.13110776245594025,9.783376693725586,0.002038348518349909,0.0020990834154402524,-0.005031140421796266,1.6099896430969238,2019-07-26 12:23:31:115,-170.7067825328007,172.55551939474896,0,-35.83540725708008,21.14139175415039,-33.13650894165039
0.048594262450933456,0.10237076133489609,9.773797035217285,0.0012392051355822353,0.004762895081443986,-0.001834566890725571,1.6199941635131836,2019-07-26 12:23:31:125,-170.88962512866075,172.69171099799132,0,-35.83540725708008,21.14139175415039,-33.13650894165039
0.07493650913238525,0.10955500602722168,9.773797035217285,0.00044006165528668966,0.0018327022878510278,0.0008292445152038374,1.6299936771392822,2019-07-26 12:23:31:135,-171.06407597855022,172.82478560569496,0,-35.83540725708008,21.14139175415039,-33.13650894165039
0.07014700770378113,0.121528759598732,9.83366584777832,-0.002223749913189172,0.004496513953854761,-0.003965616171513693,1.6399989128112793,2019-07-26 12:23:31:145,-171.23714648581236,172.9553781728568,0,-35.83540725708008,21.14139175415039,-33.13650894165039
0.031831011176109314,0.0951865091919899,9.814508438110352,0.00310387315874397,0.00502927620903321,0.004292199303900919,1.649989366531372,2019-07-26 12:23:31:155,-171.41150830187613,173.0834160804032,0,-35.83540725708008,21.14139175415039,-33.13650894165039
0.07014700770378113,0.11913400888442993,9.807323455810547,0.0023047297759762964,0.0063611818469793335,-0.0023673291459040203,1.659996747970581,2019-07-26 12:23:31:165,-171.57865653099014,173.20653342881988,0,-35.83540725708008,21.14139175415039,-33.13650894165039
0.07493650913238525,0.11913400888442993,9.828876495361328,0.0025711109035655207,0.00502927620903321,-0.0005026612202701574,1.669994831085205,2019-07-26 12:23:31:175,-171.74117036498816,173.32707060918045,0,-35.83540725708008,21.14139175415039,-33.13650894165039
0.04141001030802727,0.1143445074558258,9.730691909790039,0.004968541051868542,0.006094800719390108,0.003493055921133246,1.6799943447113037,2019-07-26 12:23:31:185,-171.90489247543908,173.44427456975959,0,-35.83540725708008,21.14139175415039,-33.13650894165039
0.07014700770378113,0.09279175847768784,9.800139427185059,0.0012392051355822353,0.006627562974568559,0.008554297605402838,1.689995527267456,2019-07-26 12:23:31:195,-172.06231438936666,173.5638435072927,0,-35.83540725708008,21.14139175415039,-33.13650894165039
0.05577851086854935,0.08321276307106018,9.778586387634277,-0.001158225272795111,0.004762895081443986,0.004292199303900919,1.699988603591919,2019-07-26 12:23:31:205,-172.21720420700967,173.68346537487352,0,-35.83540725708008,21.14139175415039,-33.13650894165039
0.08212075382471085,0.11913400888442993,9.761823654174805,0.0007064428153852049,0.007693087484925456,0.0013620067703822866,1.709989309310913,2019-07-26 12:23:31:215,-172.36754036734567,173.79541522937689,0,-35.83540725708008,21.14139175415039,-33.13650894165039
0.05098900943994522,0.11913400888442993,9.80492877960205,-0.0016909875279735602,0.003963751438601987,0.0037594370487224705,1.7199950218200684,2019-07-26 12:23:31:225,-172.51645737008573,173.90653428307692,0,-36.28522491455078,20.39169692993164,-33.88620376586914
0.06296275556087494,0.0951865091919899,9.766613006591797,0.0009728239429744294,0.004230132566191211,0.0021611501531499603,1.7299959659576416,2019-07-26 12:23:31:235,-172.66111635002562,174.01668943784517,0,-36.28522491455078,20.39169692993164,-33.88620376586914
0.06296275556087494,0.0951865091919899,9.802534103393555,0.00044006165528668966,0.007426706357336231,0.0056241052019213676,1.7399952411651611,2019-07-26 12:23:31:245,-172.80470356553877,174.1249816260473,0,-36.28522491455078,20.39169692993164,-33.88620376586914
0.024646764621138573,0.13110776245594025,9.776191711425781,-0.002756512168367621,0.004496513953854761,0.0024275314107763475,1.7499945163726807,2019-07-26 12:23:31:255,-172.94824513512356,174.22866279368586,0,-36.28522491455078,20.39169692993164,-33.88620376586914
0.07254175841808319,0.09997601062059402,9.771402359008789,0.00044006165528668966,0.002365464673066639,-0.0010354235079578973,1.7599937915802002,2019-07-26 12:23:31:265,-173.08210135312316,174.33211844629201,0,-36.28522491455078,20.39169692993164,-33.88620376586914
0.04619951173663139,0.11194975674152374,9.836060523986816,0.0007064428153852049,0.007426706357336231,0.0005628633876146128,1.769993543624878,2019-07-26 12:23:31:275,-173.21924703634733,174.4320376715061,0,-36.28522491455078,20.39169692993164,-33.88620376586914
0.031831011176109314,0.07123901695013046,9.754639625549316,-0.0006254629525980806,0.00556203846421166,3.010106944941304e-05,1.7799949645996094,2019-07-26 12:23:31:285,-173.35424631658017,174.53537958797952,0,-36.28522491455078,20.39169692993164,-33.88620376586914
0.04141001030802727,0.12871301174163818,9.761823654174805,0.0025711109035655207,0.005295657336622434,-0.0029000914010824694,1.7900137901306152,2019-07-26 12:23:31:295,-173.48527950604216,174.6281171863749,0,-36.28522491455078,20.39169692993164,-33.88620376586914
0.09648925811052322,0.0951865091919899,9.855218887329102,-0.0008918440801873052,0.0005007965523770329,-0.001834566890725571,1.7999882698059082,2019-07-26 12:23:31:305,-173.6046354647191,174.7249868665521,0,-36.28522491455078,20.39169692993164,-33.88620376586914
0.053383760154247284,0.10716026276350021,9.795350074768066,-0.0024901310407783963,0.007426706357336231,-0.0010354235079578973,1.8099946975708008,2019-07-26 12:23:31:315,-173.73047044825742,174.81935051810333,0,-36.28522491455078,20.39169692993164,-33.88620376586914
0.03662051260471344,0.0951865091919899,9.797744750976562,0.00310387315874397,0.0028982269282450887,-0.0021009480183147955,1.8199894428253174,2019-07-26 12:23:31:325,-173.8532045264582,174.91008921731114,0,-36.28522491455078,20.39169692993164,-33.88620376586914
0.0390152633190155,0.10716026276350021,9.812113761901855,-0.004088417806313744,0.005828419591800884,0.0018947690255607357,1.8299939632415771,2019-07-26 12:23:31:335,-173.97485816010774,175.00166981185282,0,-36.28522491455078,20.39169692993164,-33.88620376586914
0.08451550453901291,0.11673925817012787,9.807323455810547,-9.270064052837282e-05,0.007693087484925456,-0.0031664725286716937,1.839993953704834,2019-07-26 12:23:31:345,-174.08980586324532,175.08804896377316,0,-36.28522491455078,20.39169692993164,-33.88620376586914
0.024646764621138573,0.10237076133489609,9.826481819152832,0.00150558626317146,0.0010335588400647727,-0.00023628007642628753,1.849989414215088,2019-07-26 12:23:31:355,-174.20571564695229,175.17350544484015,0,-34.63589859008789,20.841514587402344,-34.336021423339844
0.010278265923261642,0.11913400888442993,9.78098201751709,0.0023047297759762964,0.005295657336622434,-0.0015681857631363464,1.859997272491455,2019-07-26 12:23:31:365,-174.32337299936768,175.25478346157865,0,-34.63589859008789,20.841514587402344,-34.336021423339844
0.05577851086854935,0.10237076133489609,9.757034301757812,0.0012392051355822353,0.004496513953854761,-0.0010354235079578973,1.8699915409088135,2019-07-26 12:23:31:375,-174.4328780389152,175.33696987892603,0,-34.63589859008789,20.841514587402344,-34.336021423339844
0.06296275556087494,0.14547625184059143,9.807323455810547,-0.0006254629525980806,0.002365464673066639,3.010106944941304e-05,1.8800044059753418,2019-07-26 12:23:31:385,-174.5381937455558,175.4135855168998,0,-34.63589859008789,20.841514587402344,-34.336021423339844
0.048594262450933456,0.07123901695013046,9.802534103393555,0.0007064428153852049,0.007426706357336231,-0.0026337102734932446,1.890033483505249,2019-07-26 12:23:31:395,-174.64593146219428,175.49658829669744,0,-34.63589859008789,20.841514587402344,-34.336021423339844
0.07733125984668732,0.08560751378536224,9.816903114318848,-9.270064052837282e-05,0.002631845800655864,-0.0007690423803686727,1.9000022411346436,2019-07-26 12:23:31:405,-174.7454593932719,175.57671580801,0,-34.63589859008789,20.841514587402344,-34.336021423339844
0.053383760154247284,0.09279175847768784,9.848034858703613,-0.0019573686555627847,0.00502927620903321,-0.0015681857631363464,1.9100053310394287,2019-07-26 12:23:31:415,-174.84716334569652,175.6554839782318,0,-34.63589859008789,20.841514587402344,-34.336021423339844
0.031831011176109314,0.09997601062059402,9.7642183303833,-0.002223749913189172,0.008225849740103906,-0.00023628007642628753,1.9200117588043213,2019-07-26 12:23:31:425,-174.95110621945554,175.73189109305267,0,-34.63589859008789,20.841514587402344,-34.336021423339844
0.019857265055179596,0.10476551204919815,9.759428977966309,-0.003555655551135295,0.00502927620903321,3.010106944941304e-05,1.9300029277801514,2019-07-26 12:23:31:435,-175.05257397053623,175.80694730235763,0,-34.63589859008789,20.841514587402344,-34.336021423339844
0.065357506275177,0.11913400888442993,9.864797592163086,-0.003555655551135295,0.003963751438601987,-0.005031140421796266,1.9400012493133545,2019-07-26 12:23:31:445,-175.14615580459343,175.87896633319863,0,-34.63589859008789,20.841514587402344,-34.336021423339844
0.05817325785756111,0.13110776245594025,9.759428977966309,-0.0014246064003843356,0.00902499312287158,-0.003965616171513693,1.9500069618225098,2019-07-26 12:23:31:455,-175.24147269956822,175.946794121693,0,-34.63589859008789,20.841514587402344,-34.336021423339844
0.04141001030802727,0.07842326164245605,9.79295539855957,-0.0006254629525980806,0.002365464673066639,0.0005628633876146128,1.9600062370300293,2019-07-26 12:23:31:465,-175.33312582099097,176.01903296534246,0,-34.63589859008789,20.841514587402344,-34.336021423339844
0.007883516140282154,0.12871301174163818,9.855218887329102,-0.0016909875279735602,0.0063611818469793335,-0.001834566890725571,1.9700064659118652,2019-07-26 12:23:31:475,-175.429118525619,176.0846365601935,0,-35.83540725708008,19.342124938964844,-34.93577575683594
0.010278265923261642,0.10955500602722168,9.771402359008789,-0.0016909875279735602,0.0020990834154402524,-0.0023673291459040203,1.9800033569335938,2019-07-26 12:23:31:485,-175.52050906491255,176.15104578322237,0,-35.83540725708008,19.342124938964844,-34.93577575683594
0.07733125984668732,0.10476551204919815,9.776191711425781,-0.004088417806313744,0.006627562974568559,-0.003965616171513693,1.9899919033050537,2019-07-26 12:23:31:495,-175.60475180001913,176.21803826753808,0,-35.83540725708008,19.342124938964844,-34.93577575683594
0.03662051260471344,0.10716026276350021,9.754639625549316,-0.0014246064003843356,0.0028982269282450887,-0.0031664725286716937,2.0000016689300537,2019-07-26 12:23:31:505,-175.689983769365,176.28189016995333,0,-35.83540725708008,19.342124938964844,-34.93577575683594
0.04619951173663139,0.15505525469779968,9.869586944580078,-0.0006254629525980806,0.0020990834154402524,0.0005628633876146128,2.0100038051605225,2019-07-26 12:23:31:515,-175.77199898941575,176.33860231565671,0,-35.83540725708008,19.342124938964844,-34.93577575683594
0.04619951173663139,0.09758125990629196,9.766613006591797,0.0028374920311547455,0.005295657336622434,-0.001834566890725571,2.019988775253296,2019-07-26 12:23:31:525,-175.85410750185304,176.39879059892377,0,-35.83540725708008,19.342124938964844,-34.93577575683594
0.05817325785756111,0.13589724898338318,9.800139427185059,0.0017719673907606846,0.007693087484925456,-0.0031664725286716937,2.030000686645508,2019-07-26 12:23:31:535,-175.93454812346937,176.45392940162864,0,-35.83540725708008,19.342124938964844,-34.93577575683594
0.07972601056098938,0.09758125990629196,9.812113761901855,-0.004621180061492193,0.008225849740103906,3.010106944941304e-05,2.040003538131714,2019-07-26 12:23:31:545,-176.01116662016605,176.51605060964107,0,-35.83540725708008,19.342124938964844,-34.93577575683594
0.08451550453901291,0.09758125990629196,9.819297790527344,0.0009728239429744294,0.0020990834154402524,-0.0036992350439244686,2.0500006675720215,2019-07-26 12:23:31:555,-176.08225883562355,176.57379612159284,0,-35.83540725708008,19.342124938964844,-34.93577575683594
0.060568008571863174,0.10716026276350021,9.79295539855957,0.00017368051144281974,0.006627562974568559,-0.0005026612202701574,2.059985399246216,2019-07-26 12:23:31:565,-176.15724211326543,176.62968404652696,0,-35.83540725708008,19.342124938964844,-34.93577575683594
0.06775225698947906,0.09758125990629196,9.828876495361328,0.00017368051144281974,0.007693087484925456,-0.0010354235079578973,2.070005178451538,2019-07-26 12:23:31:575,-176.2305265908632,176.68561635482325,0,-35.83540725708008,19.342124938964844,-34.93577575683594
0.048594262450933456,0.09039700776338577,9.761823654174805,0.00310387315874397,0.007426706357336231,0.0037594370487224705,2.080003499984741,2019-07-26 12:23:31:585,-176.30438113516814,176.73955032873522,0,-35.83540725708008,19.342124938964844,-34.93577575683594
0.04380476102232933,0.09039700776338577,9.795350074768066,0.0025711109035655207,0.00849223086769313,0.0037594370487224705,2.089996337890625,2019-07-26 12:23:31:595,-176.37793397823378,176.79274182655234,0,-35.83540725708008,19.342124938964844,-34.93577575683594
0.065357506275177,0.08321276307106018,9.7642183303833,0.00017368051144281974,0.006627562974568559,-0.0034328539163352434,2.100004196166992,2019-07-26 12:23:31:605,-176.44642943573243,176.84702388996448,0,-35.235652923583984,19.64200210571289,-34.93577575683594
0.053383760154247284,0.1335025131702423,9.876771926879883,-0.0003590817924995654,0.00556203846421166,0.0005628633876146128,2.1100056171417236,2019-07-26 12:23:31:615,-176.51443077666403,176.89479687726927,0,-35.235652923583984,19.64200210571289,-34.93577575683594
0.060568008571863174,0.0951865091919899,9.831271171569824,-0.0032892744235460706,0.009824137025787903,-0.0026337102734932446,2.1200058460235596,2019-07-26 12:23:31:625,-176.5825989162529,176.94765348050754,0,-35.235652923583984,19.64200210571289,-34.93577575683594
0.06296275556087494,0.09758125990629196,9.737875938415527,-0.0014246064003843356,0.007693087484925456,0.0013620067703822866,2.1307754516601562,2019-07-26 12:23:31:636,-176.64818992901832,176.9980792862832,0,-35.235652923583984,19.64200210571289,-34.93577575683594
0.019857265055179596,0.08081801235675812,9.828876495361328,0.0012392051355822353,0.007959468612514682,-0.00023628007642628753,2.1400094032287598,2019-07-26 12:23:31:645,-176.7170379080388,177.04805310373808,0,-35.235652923583984,19.64200210571289,-34.93577575683594
0.053383760154247284,0.12631826102733612,9.843245506286621,0.00017368051144281974,0.003430989183423538,0.002693912538365572,2.150001049041748,2019-07-26 12:23:31:655,-176.7784073498771,177.09228988681426,0,-35.235652923583984,19.64200210571289,-34.93577575683594
0.048594262450933456,0.1406867504119873,9.74266529083252,0.0017719673907606846,0.006094800719390108,0.0008292445152038374,2.1600050926208496,2019-07-26 12:23:31:665,-176.8405472825417,177.132902545082,0,-35.235652923583984,19.64200210571289,-34.93577575683594
0.04141001030802727,0.0951865091919899,9.725902557373047,0.00310387315874397,0.007426706357336231,0.0008292445152038374,2.169999599456787,2019-07-26 12:23:31:675,-176.90302519225867,177.17728801908999,0,-35.235652923583984,19.64200210571289,-34.93577575683594
0.03422576189041138,0.0880022644996643,9.773797035217285,-9.270064052837282e-05,0.00502927620903321,-0.0007690423803686727,2.180015802383423,2019-07-26 12:23:31:685,-176.96378045908088,177.2234769668744,0,-35.235652923583984,19.64200210571289,-34.93577575683594
0.031831011176109314,0.1406867504119873,9.773797035217285,0.005234922179457767,0.00502927620903321,-0.0015681857631363464,2.1900105476379395,2019-07-26 12:23:31:695,-177.0235953271616,177.25957608207187,0,-35.235652923583984,19.64200210571289,-34.93577575683594
0.0390152633190155,0.11673925817012787,9.85042953491211,0.004702159924279317,0.00902499312287158,-0.0015681857631363464,2.200059175491333,2019-07-26 12:23:31:705,-177.08367690249966,177.29815164365013,0,-35.235652923583984,19.64200210571289,-34.93577575683594
0.05817325785756111,0.08560751378536224,9.814508438110352,0.00017368051144281974,0.0063611818469793335,-0.00023628007642628753,2.2100026607513428,2019-07-26 12:23:31:715,-177.1387629000158,177.34209659112076,0,-35.235652923583984,19.64200210571289,-34.93577575683594
0.060568008571863174,0.13589724898338318,9.737875938415527,0.0023047297759762964,0.004230132566191211,-0.00023628007642628753,2.219996452331543,2019-07-26 12:23:31:725,-177.19123406390108,177.37797053532034,0,-36.43516540527344,18.742368698120117,-33.736263275146484
0.04380476102232933,0.13589724898338318,9.778586387634277,0.00150558626317146,0.0063611818469793335,-0.0031664725286716937,2.2300047874450684,2019-07-26 12:23:31:735,-177.24585087461523,177.4136407753631,0,-36.43516540527344,18.742368698120117,-33.736263275146484
0.031831011176109314,0.121528759598732,9.788166046142578,-0.005953085699438316,0.004496513953854761,0.0024275314107763475,2.2400104999542236,2019-07-26 12:23:31:745,-177.29973359378252,177.454485691863,0,-36.43516540527344,18.742368698120117,-33.736263275146484
0.04141001030802727,0.12392351031303406,9.790560722351074,0.0025711109035655207,0.007959468612514682,-0.0036992350439244686,2.2499985694885254,2019-07-26 12:23:31:755,-177.35335610203128,177.4894504329815,0,-36.43516540527344,18.742368698120117,-33.736263275146484
0.0294362623244524,0.08081801235675812,9.78098201751709,0.0009728239429744294,0.006893944102157782,-0.0007690423803686727,2.260002613067627,2019-07-26 12:23:31:765,-177.4067128164064,177.5296467417486,0,-36.43516540527344,18.742368698120117,-33.736263275146484
0.07733125984668732,0.11673925817012787,9.747454643249512,-9.270064052837282e-05,0.002365464673066639,-0.004498378166617817,2.2700040340423584,2019-07-26 12:23:31:775,-177.45081604356648,177.5653825967497,0,-36.43516540527344,18.742368698120117,-33.736263275146484
0.10127875208854675,0.09758125990629196,9.776191711425781,-9.270064052837282e-05,0.007426706357336231,-0.004231997299102917,2.280007839202881,2019-07-26 12:23:31:785,-177.4941004382063,177.60268941555876,0,-36.43516540527344,18.742368698120117,-33.736263275146484
0.08691025525331497,0.11194975674152374,9.840849876403809,0.0023047297759762964,0.003963751438601987,-0.0021009480183147955,2.290001630783081,2019-07-26 12:23:31:795,-177.53632270633642,177.63630692565252,0,-36.43516540527344,18.742368698120117,-33.736263275146484
0.06296275556087494,0.12871301174163818,9.761823654174805,0.0041693976691008685,0.003430989183423538,-0.001834566890725571,2.2999989986419678,2019-07-26 12:23:31:805,-177.5801313060289,177.66613187545937,0,-36.43516540527344,18.742368698120117,-33.736263275146484
0.060568008571863174,0.121528759598732,9.824087142944336,-0.0016909875279735602,0.006893944102157782,-0.0005026612202701574,2.310006618499756,2019-07-26 12:23:31:815,-177.6253377967078,177.69958463573323,0,-36.43516540527344,18.742368698120117,-33.736263275146484
0.07014700770378113,0.121528759598732,9.809718132019043,0.002038348518349909,0.003963751438601987,-0.0031664725286716937,2.3200066089630127,2019-07-26 12:23:31:825,-177.66686264407986,177.73025284052056,0,-36.43516540527344,18.742368698120117,-33.736263275146484
0.06296275556087494,0.10716026276350021,9.797744750976562,0.0025711109035655207,0.003697370311012762,-0.0063630465798910395,2.330009937286377,2019-07-26 12:23:31:835,-177.70823831207605,177.76167097651444,0,-36.43516540527344,18.742368698120117,-33.736263275146484
0.03422576189041138,0.14308150112628937,9.766613006591797,-0.003555655551135295,0.00556203846421166,-0.0031664725286716937,2.340003490447998,2019-07-26 12:23:31:845,-177.75317892116504,177.79164623028367,0,-36.43516540527344,18.742368698120117,-33.736263275146484
0.053383760154247284,0.09758125990629196,9.754639625549316,-0.0008918440801873052,0.0031646080558343135,-0.0015681857631363464,2.350003719329834,2019-07-26 12:23:31:855,-177.79362117046745,177.82485121726398,0,-34.78583526611328,20.39169692993164,-34.78583526611328
0.08930500596761703,0.16463425755500793,9.769007682800293,-0.002756512168367621,0.004496513953854761,3.010106944941304e-05,2.3600082397460938,2019-07-26 12:23:31:865,-177.82979938897486,177.8505927147633,0,-34.78583526611328,20.39169692993164,-34.78583526611328
0.05098900943994522,0.11673925817012787,9.860008239746094,0.00017368051144281974,0.004496513953854761,0.002693912538365572,2.3699991703033447,2019-07-26 12:23:31:875,-177.86980008329903,177.87991679732173,0,-34.78583526611328,20.39169692993164,-34.78583526611328
0.04141001030802727,0.10716026276350021,9.769007682800293,-0.0003590817924995654,0.007160325229747007,-0.004231997299102917,2.3799896240234375,2019-07-26 12:23:31:885,-177.91156334471415,177.90995037761016,0,-34.78583526611328,20.39169692993164,-34.78583526611328
0.08691025525331497,0.07602851092815399,9.79295539855957,-0.0003590817924995654,-0.0005647280555077374,-0.0013018046355471218,2.390031337738037,2019-07-26 12:23:31:895,-177.94284418741606,177.943057592581,0,-34.78583526611328,20.39169692993164,-34.78583526611328
0.0390152633190155,0.0688442662358284,9.812113761901855,-0.0008918440801873052,0.0063611818469793335,-0.005031140421796266,2.400000810623169,2019-07-26 12:23:31:905,-177.9829917900944,177.9766557802374,0,-34.78583526611328,20.39169692993164,-34.78583526611328
0.053383760154247284,0.08560751378536224,9.83366584777832,0.0023047297759762964,0.007693087484925456,-0.0015681857631363464,2.410005807876587,2019-07-26 12:23:31:915,-178.0214330307216,178.0058523367024,0,-34.78583526611328,20.39169692993164,-34.78583526611328
0.04619951173663139,0.12631826102733612,9.838455200195312,-0.0024901310407783963,0.007959468612514682,0.005890486329510593,2.4200069904327393,2019-07-26 12:23:31:925,-178.06009316760986,178.03242178667267,0,-34.78583526611328,20.39169692993164,-34.78583526611328
0.053383760154247284,0.10476551204919815,9.79295539855957,-0.0024901310407783963,0.0020990834154402524,0.0002964822275160976,2.430002450942993,2019-07-26 12:23:31:935,-178.0938228015057,178.06091232847092,0,-34.78583526611328,20.39169692993164,-34.78583526611328
0.017462514340877533,0.1143445074558258,9.80492877960205,-0.0006254629525980806,0.007426706357336231,-0.001834566890725571,2.440000534057617,2019-07-26 12:23:31:945,-178.13407476558137,178.0866822161825,0,-34.78583526611328,20.39169692993164,-34.78583526611328
0.024646764621138573,0.09997601062059402,9.824087142944336,0.0017719673907606846,0.003697370311012762,0.0008292445152038374,2.45001220703125,2019-07-26 12:23:31:955,-178.1705968839986,178.11229130716023,0,-34.78583526611328,20.39169692993164,-34.78583526611328
0.048594262450933456,0.1143445074558258,9.814508438110352,0.0017719673907606846,0.0028982269282450887,0.001095625642793062,2.4600021839141846,2019-07-26 12:23:31:965,-178.20313697674973,178.13570156805343,0,-34.78583526611328,20.39169692993164,-34.78583526611328
0.06296275556087494,0.121528759598732,9.864797592163086,0.00044006165528668966,0.005828419591800884,-0.0029000914010824694,2.470008373260498,2019-07-26 12:23:31:975,-178.2350351259363,178.15862396809425,0,-35.38559341430664,19.492063522338867,-35.08571243286133
0.010278265923261642,0.14308150112628937,9.83366584777832,-0.0006254629525980806,0.0012999400326725785,0.0008292445152038374,2.480003595352173,2019-07-26 12:23:31:985,-178.26986626489702,178.17913042836696,0,-35.38559341430664,19.492063522338867,-35.08571243286133
0.09648925811052322,0.13110776245594025,9.797744750976562,-0.0014246064003843356,0.006094800719390108,-0.0007690423803686727,2.4899919033050537,2019-07-26 12:23:31:995,-178.2966024238192,178.20101373353054,0,-35.38559341430664,19.492063522338867,-35.08571243286133
0.053383760154247284,0.10476551204919815,9.83366584777832,0.0012392051355822353,0.0028982269282450887,3.010106944941304e-05,2.5000078678131104,2019-07-26 12:23:32:005,-178.32607958343638,178.22408868865855,0,-35.38559341430664,19.492063522338867,-35.08571243286133
0.06296275556087494,0.12392351031303406,9.795350074768066,-0.004354798933902968,0.00502927620903321,-0.0021009480183147955,2.5099990367889404,2019-07-26 12:23:32:015,-178.35501379099787,178.2475534676946,0,-35.38559341430664,19.492063522338867,-35.08571243286133
0.05577851086854935,0.1406867504119873,9.828876495361328,0.0025711109035655207,0.004230132566191211,0.001628387897971511,2.520007610321045,2019-07-26 12:23:32:025,-178.38378780643828,178.264756411189,0,-35.38559341430664,19.492063522338867,-35.08571243286133
0.05098900943994522,0.10955500602722168,9.845640182495117,-0.002223749913189172,0.007160325229747007,3.010106944941304e-05,2.530001401901245,2019-07-26 12:23:32:035,-178.41419560498127,178.28795876490324,0,-35.38559341430664,19.492063522338867,-35.08571243286133
0.05098900943994522,0.10476551204919815,9.790560722351074,0.00044006165528668966,0.005295657336622434,-0.0005026612202701574,2.5399932861328125,2019-07-26 12:23:32:045,-178.44291493661729,178.3096911050708,0,-35.38559341430664,19.492063522338867,-35.08571243286133
0.0390152633190155,0.11913400888442993,9.735481262207031,-0.003555655551135295,0.007959468612514682,-0.0010354235079578973,2.550006628036499,2019-07-26 12:23:32:055,-178.47393956142096,178.331474464397,0,-35.38559341430664,19.492063522338867,-35.08571243286133
0.07254175841808319,0.121528759598732,9.80492877960205,0.00310387315874397,0.0028982269282450887,0.0008292445152038374,2.5600056648254395,2019-07-26 12:23:32:065,-178.49761006294764,178.34889981544083,0,-35.38559341430664,19.492063522338867,-35.08571243286133
0.01506776548922062,0.14308150112628937,9.819297790527344,-0.0014246064003843356,0.0063611818469793335,0.003493055921133246,2.570003032684326,2019-07-26 12:23:32:075,-178.52947030421117,178.36602504204174,0,-35.38559341430664,19.492063522338867,-35.08571243286133
0.08691025525331497,0.11913400888442993,9.879166603088379,0.0023047297759762964,0.002631845800655864,0.0005628633876146128,2.5799992084503174,2019-07-26 12:23:32:085,-178.55027737716338,178.38359287505682,0,-35.38559341430664,19.492063522338867,-35.08571243286133
0.05577851086854935,0.12631826102733612,9.785771369934082,0.0009728239429744294,0.003963751438601987,-0.0010354235079578973,2.5899906158447266,2019-07-26 12:23:32:095,-178.5749639553184,178.4005841779636,0,-35.38559341430664,19.492063522338867,-35.08571243286133
0.053383760154247284,0.12871301174163818,9.814508438110352,-0.002223749913189172,0.006893944102157782,-0.0005026612202701574,2.600003242492676,2019-07-26 12:23:32:105,-178.6011076214543,178.41879538021493,0,-34.485958099365234,19.492063522338867,-34.78583526611328
0.024646764621138573,0.09997601062059402,9.7642183303833,-0.0016909875279735602,0.003430989183423538,-0.0034328539163352434,2.6100122928619385,2019-07-26 12:23:32:115,-178.62812120317878,178.43963717837113,0,-34.485958099365234,19.492063522338867,-34.78583526611328
0.03662051260471344,0.1143445074558258,9.785771369934082,-9.270064052837282e-05,0.006094800719390108,0.001095625642793062,2.6200110912323,2019-07-26 12:23:32:125,-178.65469234159596,178.45750732674668,0,-34.485958099365234,19.492063522338867,-34.78583526611328
0.027041513472795486,0.09997601062059402,9.879166603088379,-0.001158225272795111,0.0063611818469793335,-0.0007690423803686727,2.6300013065338135,2019-07-26 12:23:32:135,-178.68203017250002,178.4774107498822,0,-34.485958099365234,19.492063522338867,-34.78583526611328
0.017462514340877533,0.08081801235675812,9.85042953491211,-0.0048875611890814175,0.004230132566191211,-0.005031140421796266,2.6400084495544434,2019-07-26 12:23:32:145,-178.70873504037593,178.50120738163943,0,-34.485958099365234,19.492063522338867,-34.78583526611328
0.060568008571863174,0.09758125990629196,9.819297790527344,-0.002223749913189172,0.00556203846421166,0.001095625642793062,2.6500072479248047,2019-07-26 12:23:32:155,-178.73061482253658,178.52104432318103,0,-34.485958099365234,19.492063522338867,-34.78583526611328
0.027041513472795486,0.10476551204919815,9.795350074768066,0.0012392051355822353,0.00902499312287158,-0.0010354235079578973,2.6600096225738525,2019-07-26 12:23:32:165,-178.75790778926995,178.53767186318214,0,-34.485958099365234,19.492063522338867,-34.78583526611328
0.05577851086854935,0.10476551204919815,9.807323455810547,0.00150558626317146,0.006893944102157782,-0.0015681857631363464,2.6700026988983154,2019-07-26 12:23:32:175,-178.78010064388388,178.55383299153397,0,-34.485958099365234,19.492063522338867,-34.78583526611328
0.07014700770378113,0.10237076133489609,9.809718132019043,-0.0030228932959568454,0.006627562974568559,-0.0005026612202701574,2.679997444152832,2019-07-26 12:23:32:185,-178.8000240075036,178.57249485307022,0,-34.485958099365234,19.492063522338867,-34.78583526611328
0.08451550453901291,0.11194975674152374,9.807323455810547,0.0007064428153852049,0.002631845800655864,0.0005628633876146128,2.689992666244507,2019-07-26 12:23:32:195,-178.81562581142558,178.58756851868503,0,-34.485958099365234,19.492063522338867,-34.78583526611328
0.031831011176109314,0.12631826102733612,9.809718132019043,-0.001158225272795111,0.004762895081443986,0.0024275314107763475,2.7000014781951904,2019-07-26 12:23:32:205,-178.83827170593975,178.60171309654538,0,-34.485958099365234,19.492063522338867,-34.78583526611328
0.07493650913238525,0.09279175847768784,9.840849876403809,0.0023047297759762964,0.003963751438601987,0.0013620067703822866,2.710010528564453,2019-07-26 12:23:32:215,-178.8550081305478,178.617578765163,0,-34.485958099365234,19.492063522338867,-34.78583526611328
0.05817325785756111,0.1406867504119873,9.759428977966309,-0.0016909875279735602,0.006893944102157782,-0.0036992350439244686,2.7200324535369873,2019-07-26 12:23:32:225,-178.87495699007783,178.62966099170364,0,-35.38559341430664,19.492063522338867,-34.485958099365234
0.04619951173663139,0.10955500602722168,9.72350788116455,-0.0006254629525980806,0.003697370311012762,-0.0005026612202701574,2.730013847351074,2019-07-26 12:23:32:235,-178.89408548352932,178.64450780175574,0,-35.38559341430664,19.492063522338867,-34.485958099365234
0.053383760154247284,0.10476551204919815,9.776191711425781,-0.0030228932959568454,0.004762895081443986,0.001095625642793062,2.740002155303955,2019-07-26 12:23:32:245,-178.9126176947772,178.66103339992998,0,-35.38559341430664,19.492063522338867,-34.485958099365234
0.06775225698947906,0.10476551204919815,9.776191711425781,0.0012392051355822353,0.005828419591800884,-0.0005026612202701574,2.7500061988830566,2019-07-26 12:23:32:255,-178.92969786520783,178.67483702686422,0,-35.38559341430664,19.492063522338867,-34.485958099365234
0.07733125984668732,0.12631826102733612,9.759428977966309,0.0012392051355822353,0.007160325229747007,-0.0023673291459040203,2.7600059509277344,2019-07-26 12:23:32:265,-178.94604456427288,178.685813502738,0,-35.38559341430664,19.492063522338867,-34.485958099365234
0.0916997566819191,0.059265267103910446,9.812113761901855,0.0039030165415116433,0.006094800719390108,-0.0036992350439244686,2.7700014114379883,2019-07-26 12:23:32:275,-178.9598354237771,178.70298543137693,0,-35.38559341430664,19.492063522338867,-34.485958099365234
0.01267301570624113,0.09279175847768784,9.773797035217285,0.002038348518349909,0.004230132566191211,-0.0036992350439244686,2.7800052165985107,2019-07-26 12:23:32:285,-178.98152900306582,178.716901840173,0,-35.38559341430664,19.492063522338867,-34.485958099365234
0.060568008571863174,0.14308150112628937,9.809718132019043,-0.003555655551135295,0.005295657336622434,-0.0036992350439244686,2.79001522064209,2019-07-26 12:23:32:295,-178.9977997810389,178.7278495127287,0,-35.38559341430664,19.492063522338867,-34.485958099365234
0.053383760154247284,0.121528759598732,9.759428977966309,-9.270064052837282e-05,0.0031646080558343135,-0.0021009480183147955,2.799992084503174,2019-07-26 12:23:32:305,-179.01334853880172,178.73907573913252,0,-35.38559341430664,19.492063522338867,-34.485958099365234
0.04380476102232933,0.11913400888442993,9.788166046142578,-0.0038220366787245193,0.002631845800655864,0.003493055921133246,2.8100035190582275,2019-07-26 12:23:32:315,-179.029432779408,178.75249623444188,0,-35.38559341430664,19.492063522338867,-34.485958099365234
0.08451550453901291,0.14308150112628937,9.855218887329102,0.0007064428153852049,0.008758612515431006,-0.0013018046355471218,2.8200056552886963,2019-07-26 12:23:32:325,-179.04393632389665,178.76041392535507,0,-35.38559341430664,19.492063522338867,-34.485958099365234
0.053383760154247284,0.09997601062059402,9.80492877960205,-0.002756512168367621,0.0063611818469793335,-0.0036992350439244686,2.8300063610076904,2019-07-26 12:23:32:335,-179.06039067218745,178.7750696041545,0,-35.38559341430664,19.492063522338867,-34.485958099365234
0.03422576189041138,0.09997601062059402,9.773797035217285,0.0009728239429744294,0.002631845800655864,-0.0005026612202701574,2.8399863243103027,2019-07-26 12:23:32:345,-179.07664493892452,178.78730192412425,0,-35.38559341430664,19.492063522338867,-34.485958099365234
0.04141001030802727,0.10237076133489609,9.75224494934082,-0.0008918440801873052,0.0063611818469793335,0.0013620067703822866,2.849985361099243,2019-07-26 12:23:32:355,-179.0938177302548,178.80002820256342,0,-35.83540725708008,19.042245864868164,-34.63589859008789
0.017462514340877533,0.10237076133489609,9.809718132019043,-0.0006254629525980806,0.0028982269282450887,0.0008292445152038374,2.8600287437438965,2019-07-26 12:23:32:365,-179.11153591635295,178.81242242150182,0,-35.83540725708008,19.042245864868164,-34.63589859008789
0.05577851086854935,0.10955500602722168,9.83366584777832,-0.0024901310407783963,0.006893944102157782,-0.004231997299102917,2.870004415512085,2019-07-26 12:23:32:375,-179.12666692923784,178.82480287657543,0,-35.83540725708008,19.042245864868164,-34.63589859008789
0.07014700770378113,0.10237076133489609,9.814508438110352,-0.0048875611890814175,0.004496513953854761,-0.001834566890725571,2.8800048828125,2019-07-26 12:23:32:385,-179.1384684587353,178.83909920511024,0,-35.83540725708008,19.042245864868164,-34.63589859008789
0.065357506275177,0.12871301174163818,9.795350074768066,0.0028374920311547455,0.006094800719390108,0.001095625642793062,2.890000343322754,2019-07-26 12:23:32:395,-179.15147398016384,178.84566798499586,0,-35.83540725708008,19.042245864868164,-34.63589859008789
0.060568008571863174,0.13110776245594025,9.7642183303833,0.0009728239429744294,0.00556203846421166,-0.0010354235079578973,2.899988889694214,2019-07-26 12:23:32:405,-179.1644559113069,178.85282330475903,0,-35.83540725708008,19.042245864868164,-34.63589859008789
0.0390152633190155,0.11194975674152374,9.797744750976562,0.0007064428153852049,0.008225849740103906,0.007222391967456715,2.9099948406219482,2019-07-26 12:23:32:415,-179.1812252580834,178.8622771893327,0,-35.83540725708008,19.042245864868164,-34.63589859008789
0.09888400137424469,0.121528759598732,9.824087142944336,-9.270064052837282e-05,0.003963751438601987,-0.0029000914010824694,2.9200050830841064,2019-07-26 12:23:32:425,-179.18829489025475,178.8709089372343,0,-35.83540725708008,19.042245864868164,-34.63589859008789
0.08212075382471085,0.09279175847768784,9.754639625549316,-0.0019573686555627847,0.004230132566191211,0.0008292445152038374,2.930004119873047,2019-07-26 12:23:32:435,-179.19725715976455,178.88368943119625,0,-35.83540725708008,19.042245864868164,-34.63589859008789
0.06775225698947906,0.10716026276350021,9.771402359008789,-0.0006254629525980806,0.00556203846421166,0.002693912538365572,2.9400079250335693,2019-07-26 12:23:32:445,-179.20849094101922,178.89380053774022,0,-35.83540725708008,19.042245864868164,-34.63589859008789
0.053383760154247284,0.09997601062059402,9.826481819152832,-0.0032892744235460706,0.003430989183423538,-0.00023628007642628753,2.950000524520874,2019-07-26 12:23:32:455,-179.22002090406033,178.90611177885233,0,-35.83540725708008,19.042245864868164,-34.63589859008789
0.07254175841808319,0.11673925817012787,9.795350074768066,0.00017368051144281974,0.005295657336622434,0.0056241052019213676,2.9599976539611816,2019-07-26 12:23:32:465,-179.2301069457412,178.91423587610447,0,-35.83540725708008,19.042245864868164,-34.63589859008789
0.07733125984668732,0.10716026276350021,9.812113761901855,-0.0048875611890814175,0.00556203846421166,-0.005031140421796266,2.970005750656128,2019-07-26 12:23:32:475,-179.23959940617337,178.9261834396907,0,-34.78583526611328,20.091819763183594,-34.78583526611328
0.08451550453901291,0.08560751378536224,9.7642183303833,-9.270064052837282e-05,0.007426706357336231,-0.0010354235079578973,2.980001449584961,2019-07-26 12:23:32:485,-179.2490573312124,178.93766527400743,0,-34.78583526611328,20.091819763183594,-34.78583526611328
0.06296275556087494,0.10476551204919815,9.78098201751709,-0.002756512168367621,0.009291374770609455,-0.004231997299102917,2.990004539489746,2019-07-26 12:23:32:495,-179.26191843254443,178.9481866264626,0,-34.78583526611328,20.091819763183594,-34.78583526611328
0.05817325785756111,0.08560751378536224,9.721113204956055,0.00017368051144281974,0.0063611818469793335,3.010106944941304e-05,3.000007390975952,2019-07-26 12:23:32:505,-179.27339555081576,178.959034273205,0,-34.78583526611328,20.091819763183594,-34.78583526611328
0.07014700770378113,0.09758125990629196,9.840849876403809,-0.006219466827027541,0.006893944102157782,0.001628387897971511,3.0100064277648926,2019-07-26 12:23:32:515,-179.28363009270012,178.9719830176676,0,-34.78583526611328,20.091819763183594,-34.78583526611328
0.0294362623244524,0.08560751378536224,9.828876495361328,-0.0014246064003843356,0.003963751438601987,-0.00023628007642628753,3.0199975967407227,2019-07-26 12:23:32:525,-179.29674930204345,178.98336212627092,0,-34.78583526611328,20.091819763183594,-34.78583526611328
0.0390152633190155,0.10716026276350021,9.79295539855957,0.003636635413922419,0.007160325229747007,0.005890486329510593,3.030005693435669,2019-07-26 12:23:32:535,-179.31027276550842,178.98911248442977,0,-34.78583526611328,20.091819763183594,-34.78583526611328
0.07493650913238525,0.121528759598732,9.790560722351074,-0.0019573686555627847,0.007426706357336231,0.004558580691564469,3.0400025844573975,2019-07-26 12:23:32:545,-179.31946548438796,178.996205605265,0,-34.78583526611328,20.091819763183594,-34.78583526611328
0.07972601056098938,0.10237076133489609,9.838455200195312,-0.001158225272795111,0.008758612515431006,0.002693912538365572,3.049988031387329,2019-07-26 12:23:32:555,-179.32870123250106,179.0050078767587,0,-34.78583526611328,20.091819763183594,-34.78583526611328
0.0294362623244524,0.08560751378536224,9.831271171569824,-0.001158225272795111,0.003430989183423538,0.001628387897971511,3.059997797012329,2019-07-26 12:23:32:565,-179.3406245564994,179.0155806879328,0,-34.78583526611328,20.091819763183594,-34.78583526611328
0.0294362623244524,0.0951865091919899,9.845640182495117,0.0023047297759762964,0.0063611818469793335,0.003226674793544021,3.0699920654296875,2019-07-26 12:23:32:575,-179.35395579197564,179.02289747917814,0,-34.78583526611328,20.091819763183594,-34.78583526611328
0.05098900943994522,0.13589724898338318,9.761823654174805,-0.0019573686555627847,0.005828419591800884,-0.0031664725286716937,3.080008029937744,2019-07-26 12:23:32:585,-179.36416913504496,179.02758874288176,0,-34.78583526611328,20.091819763183594,-34.78583526611328
0.024646764621138573,0.11913400888442993,9.78098201751709,-0.001158225272795111,0.0018327022878510278,0.003493055921133246,3.089988946914673,2019-07-26 12:23:32:595,-179.3750253007355,179.0337293140997,0,-34.78583526611328,20.091819763183594,-34.78583526611328
0.031831011176109314,0.13110776245594025,9.771402359008789,-0.0016909875279735602,0.005828419591800884,0.0005628633876146128,3.100005626678467,2019-07-26 12:23:32:605,-179.38707001792466,179.03863140223805,0,-35.235652923583984,19.94188117980957,-35.235652923583984
0.017462514340877533,0.11913400888442993,9.766613006591797,-0.0006254629525980806,0.006893944102157782,0.0005628633876146128,3.1099965572357178,2019-07-26 12:23:32:615,-179.40114717443853,179.04423236581314,0,-35.235652923583984,19.94188117980957,-35.235652923583984
0.06296275556087494,0.09039700776338577,9.778586387634277,0.00150558626317146,0.007160325229747007,-0.0023673291459040203,3.1199965476989746,2019-07-26 12:23:32:625,-179.409766474533,179.05190935263852,0,-35.235652923583984,19.94188117980957,-35.235652923583984
0.05577851086854935,0.10476551204919815,9.797744750976562,-0.001158225272795111,0.003430989183423538,-0.0005026612202701574,3.129992961883545,2019-07-26 12:23:32:635,-179.41697332886324,179.05926867316649,0,-35.235652923583984,19.94188117980957,-35.235652923583984
0.06296275556087494,0.10237076133489609,9.879166603088379,-9.270064052837282e-05,0.003430989183423538,-0.0007690423803686727,3.1400089263916016,2019-07-26 12:23:32:645,-179.42326028453388,179.0662615526476,0,-35.235652923583984,19.94188117980957,-35.235652923583984
0.07254175841808319,0.1143445074558258,9.778586387634277,0.0041693976691008685,0.006627562974568559,0.0013620067703822866,3.150003433227539,2019-07-26 12:23:32:655,-179.43001366359582,179.06919750639076,0,-35.235652923583984,19.94188117980957,-35.235652923583984
0.048594262450933456,0.07842326164245605,9.812113761901855,0.00017368051144281974,0.002631845800655864,-0.0015681857631363464,3.1600077152252197,2019-07-26 12:23:32:665,-179.4372167273525,179.0785574645173,0,-35.235652923583984,19.94188117980957,-35.235652923583984
0.05098900943994522,0.10955500602722168,9.831271171569824,-0.003555655551135295,0.004230132566191211,-0.0023673291459040203,3.1700024604797363,2019-07-26 12:23:32:675,-179.44490322284474,179.08621275254316,0,-35.235652923583984,19.94188117980957,-35.235652923583984
0.06296275556087494,0.08560751378536224,9.826481819152832,-0.001158225272795111,0.004496513953854761,-0.0034328539163352434,3.1800036430358887,2019-07-26 12:23:32:685,-179.45118793951843,179.09515604504938,0,-35.235652923583984,19.94188117980957,-35.235652923583984
0.05098900943994522,0.07363376021385193,9.852824211120605,-0.0038220366787245193,0.0028982269282450887,-0.0034328539163352434,3.190007448196411,2019-07-26 12:23:32:695,-179.45786201527991,179.10683612211858,0,-35.235652923583984,19.94188117980957,-35.235652923583984
0.05817325785756111,0.09997601062059402,9.75224494934082,-0.0030228932959568454,0.007160325229747007,-0.004231997299102917,3.2000014781951904,2019-07-26 12:23:32:705,-179.46588745095866,179.11464869225745,0,-35.235652923583984,19.94188117980957,-35.235652923583984
0.09888400137424469,0.12631826102733612,9.778586387634277,0.00310387315874397,0.00556203846421166,-0.00023628007642628753,3.21000599861145,2019-07-26 12:23:32:715,-179.46810674320395,179.11581017361507,0,-35.235652923583984,19.94188117980957,-35.235652923583984
0.0916997566819191,0.121528759598732,9.757034301757812,0.0007064428153852049,0.004230132566191211,0.0018947690255607357,3.220004081726074,2019-07-26 12:23:32:725,-179.47034999932018,179.11882516368203,0,-35.985347747802734,19.492063522338867,-35.68547058105469
0.048594262450933456,0.12631826102733612,9.735481262207031,0.0009728239429744294,0.007426706357336231,0.0002964822275160976,3.230006694793701,2019-07-26 12:23:32:735,-179.47939443052377,179.12103481175282,0,-35.985347747802734,19.492063522338867,-35.68547058105469
0.07254175841808319,0.13829199969768524,9.766613006591797,-0.0019573686555627847,0.004496513953854761,0.0005628633876146128,3.240001916885376,2019-07-26 12:23:32:745,-179.48381896233,179.12348794995245,0,-35.985347747802734,19.492063522338867,-35.68547058105469
0.07493650913238525,0.09279175847768784,9.785771369934082,0.004968541051868542,0.00502927620903321,-0.0005026612202701574,3.2499966621398926,2019-07-26 12:23:32:755,-179.4881901237267,179.12736422191432,0,-35.985347747802734,19.492063522338867,-35.68547058105469
0.04141001030802727,0.12392351031303406,9.745059967041016,0.00310387315874397,0.005295657336622434,-0.0031664725286716937,3.2599899768829346,2019-07-26 12:23:32:765,-179.49652848951635,179.12850397831687,0,-35.985347747802734,19.492063522338867,-35.68547058105469
0.05098900943994522,0.09997601062059402,9.78098201751709,-0.003555655551135295,0.006627562974568559,0.0029602936659547966,3.2700023651123047,2019-07-26 12:23:32:775,-179.50435020568523,179.13622033429817,0,-35.985347747802734,19.492063522338867,-35.68547058105469
0.048594262450933456,0.1143445074558258,9.783376693725586,0.00017368051144281974,0.00849223086769313,0.0021611501531499603,3.2800071239471436,2019-07-26 12:23:32:785,-179.51334210392162,179.14000592978326,0,-35.985347747802734,19.492063522338867,-35.68547058105469
0.04619951173663139,0.12871301174163818,9.838455200195312,-0.001158225272795111,0.006893944102157782,-0.001834566890725571,3.290001392364502,2019-07-26 12:23:32:795,-179.52156302161023,179.14286502927854,0,-35.985347747802734,19.492063522338867,-35.68547058105469
0.04380476102232933,0.0880022644996643,9.790560722351074,0.0025711109035655207,0.008225849740103906,-0.00023628007642628753,3.300004243850708,2019-07-26 12:23:32:805,-179.53062487973745,179.14826387915332,0,-35.985347747802734,19.492063522338867,-35.68547058105469
0.05098900943994522,0.10716026276350021,9.809718132019043,-0.0003590817924995654,0.0063611818469793335,-0.0007690423803686727,3.3100054264068604,2019-07-26 12:23:32:815,-179.53762840645896,179.15298289360672,0,-35.985347747802734,19.492063522338867,-35.68547058105469
0.02225201390683651,0.10476551204919815,9.795350074768066,-0.001158225272795111,0.005295657336622434,-0.0013018046355471218,3.3200042247772217,2019-07-26 12:23:32:825,-179.54724582313776,179.15831790319515,0,-35.985347747802734,19.492063522338867,-35.68547058105469
0.05577851086854935,0.10237076133489609,9.83366584777832,0.002038348518349909,0.006627562974568559,0.003493055921133246,3.3300085067749023,2019-07-26 12:23:32:835,-179.55352407604815,179.1620777067356,0,-35.985347747802734,19.492063522338867,-35.68547058105469
0.0390152633190155,0.09758125990629196,9.812113761901855,-0.0003590817924995654,0.005295657336622434,0.0024275314107763475,3.3400003910064697,2019-07-26 12:23:32:845,-179.56086828082337,179.1676418827345,0,-35.985347747802734,19.492063522338867,-35.68547058105469
0.053383760154247284,0.18858174979686737,9.737875938415527,-0.0016909875279735602,0.003963751438601987,-0.004498378166617817,3.350001335144043,2019-07-26 12:23:32:855,-179.56559483481323,179.16304982430506,0,-35.08571243286133,20.39169692993164,-34.78583526611328
0.0390152633190155,0.08560751378536224,9.773797035217285,-0.004621180061492193,0.0028982269282450887,-0.0031664725286716937,3.3600058555603027,2019-07-26 12:23:32:865,-179.57133675683622,179.17234810678713,0,-35.08571243286133,20.39169692993164,-34.78583526611328
0.06775225698947906,0.10476551204919815,9.79295539855957,-0.0024901310407783963,0.0020990834154402524,-0.0036992350439244686,3.370037078857422,2019-07-26 12:23:32:875,-179.57316447941855,179.1780451225545,0,-35.08571243286133,20.39169692993164,-34.78583526611328
0.09409450739622116,0.07842326164245605,9.795350074768066,0.00150558626317146,0.00023441540853316294,-0.0013018046355471218,3.3800079822540283,2019-07-26 12:23:32:885,-179.57082506036542,179.18446709346478,0,-35.08571243286133,20.39169692993164,-34.78583526611328
0.04380476102232933,0.09279175847768784,9.7642183303833,0.0009728239429744294,0.0020990834154402524,0.002693912538365572,3.3899929523468018,2019-07-26 12:23:32:895,-179.57544458654974,179.18934274453989,0,-35.08571243286133,20.39169692993164,-34.78583526611328
0.0390152633190155,0.09758125990629196,9.759428977966309,0.0007064428153852049,0.00849223086769313,0.0002964822275160976,3.4000062942504883,2019-07-26 12:23:32:905,-179.58412943115852,179.19370144955298,0,-35.08571243286133,20.39169692993164,-34.78583526611328
0.03422576189041138,0.12631826102733612,9.828876495361328,-0.001158225272795111,0.0063611818469793335,0.0021611501531499603,3.4100019931793213,2019-07-26 12:23:32:915,-179.59202685111137,179.19575127308877,0,-35.08571243286133,20.39169692993164,-34.78583526611328
0.07014700770378113,0.07363376021385193,9.814508438110352,0.00017368051144281974,0.0010335588400647727,0.004292199303900919,3.4200103282928467,2019-07-26 12:23:32:925,-179.5925771033254,179.2031415266107,0,-35.08571243286133,20.39169692993164,-34.78583526611328
0.05817325785756111,0.11194975674152374,9.840849876403809,-9.270064052837282e-05,0.00502927620903321,-0.0005026612202701574,3.430006504058838,2019-07-26 12:23:32:935,-179.59677451980997,179.20609532506106,0,-35.08571243286133,20.39169692993164,-34.78583526611328
0.05817325785756111,0.0688442662358284,9.828876495361328,-9.270064052837282e-05,0.006094800719390108,-0.001834566890725571,3.4400031566619873,2019-07-26 12:23:32:945,-179.60147796125497,179.21399926265693,0,-35.08571243286133,20.39169692993164,-34.78583526611328
0.06296275556087494,0.1143445074558258,9.790560722351074,0.0009728239429744294,0.00849223086769313,0.0024275314107763475,3.4500064849853516,2019-07-26 12:23:32:955,-179.60684912345107,179.2157902523099,0,-35.08571243286133,20.39169692993164,-34.78583526611328
0.017462514340877533,0.059265267103910446,9.740270614624023,-0.001158225272795111,0.003430989183423538,-0.001834566890725571,3.4600093364715576,2019-07-26 12:23:32:965,-179.61458477231608,179.22515266777876,0,-35.08571243286133,20.39169692993164,-34.78583526611328
0.060568008571863174,0.10476551204919815,9.790560722351074,-0.0038220366787245193,0.006893944102157782,-0.0007690423803686727,3.469985246658325,2019-07-26 12:23:32:975,-179.6190657273235,179.23052892192916,0,-35.985347747802734,19.19218635559082,-33.88620376586914
0.07972601056098938,0.13110776245594025,9.74266529083252,0.0017719673907606846,0.005828419591800884,0.001628387897971511,3.4800004959106445,2019-07-26 12:23:32:985,-179.6205850256054,179.22950212946273,0,-35.985347747802734,19.19218635559082,-33.88620376586914
0.05817325785756111,0.07363376021385193,9.790560722351074,-0.001158225272795111,0.007693087484925456,-0.0034328539163352434,3.4899985790252686,2019-07-26 12:23:32:995,-179.62568346871595,179.23694415800142,0,-35.985347747802734,19.19218635559082,-33.88620376586914
0.08212075382471085,0.09997601062059402,9.78098201751709,0.0017719673907606846,0.001566321160261803,-0.0005026612202701574,3.5000061988830566,2019-07-26 12:23:33:005,-179.62442911895118,179.23949702590878,0,-35.985347747802734,19.19218635559082,-33.88620376586914
0.04141001030802727,0.08560751378536224,9.797744750976562,-0.0006254629525980806,0.003430989183423538,-0.0013018046355471218,3.5100033283233643,2019-07-26 12:23:33:015,-179.62902331437888,179.24504603134855,0,-35.985347747802734,19.19218635559082,-33.88620376586914
0.06296275556087494,0.1335025131702423,9.814508438110352,-0.0032892744235460706,0.003697370311012762,-0.0007690423803686727,3.520008087158203,2019-07-26 12:23:33:025,-179.63116864342408,179.2464064798993,0,-35.985347747802734,19.19218635559082,-33.88620376586914
0.053383760154247284,0.13829199969768524,9.819297790527344,-0.0014246064003843356,0.002365464673066639,-0.0015681857631363464,3.5300374031066895,2019-07-26 12:23:33:035,-179.63364752684242,179.24614295060198,0,-35.985347747802734,19.19218635559082,-33.88620376586914
0.0916997566819191,0.10237076133489609,9.838455200195312,0.0017719673907606846,0.007693087484925456,0.0024275314107763475,3.5400002002716064,2019-07-26 12:23:33:045,-179.6345979164496,179.24830582396598,0,-35.985347747802734,19.19218635559082,-33.88620376586914
0.07014700770378113,0.07363376021385193,9.75224494934082,0.0017719673907606846,0.006094800719390108,0.001095625642793062,3.5500104427337646,2019-07-26 12:23:33:055,-179.6370893615363,179.25369172629604,0,-35.985347747802734,19.19218635559082,-33.88620376586914
0.019857265055179596,0.0951865091919899,9.802534103393555,-0.0016909875279735602,0.0028982269282450887,0.0013620067703822866,3.5600106716156006,2019-07-26 12:23:33:065,-179.6436536522288,179.2584404537685,0,-35.985347747802734,19.19218635559082,-33.88620376586914
0.053383760154247284,0.13110776245594025,9.852824211120605,-0.0006254629525980806,0.0012999400326725785,-0.0023673291459040203,3.57000470161438,2019-07-26 12:23:33:075,-179.6453014133233,179.25837527113782,0,-35.985347747802734,19.19218635559082,-33.88620376586914
0.05817325785756111,0.10716026276350021,9.790560722351074,-0.0019573686555627847,0.001566321160261803,-0.0007690423803686727,3.579998254776001,2019-07-26 12:23:33:085,-179.6464656187631,179.26176427022435,0,-35.985347747802734,19.19218635559082,-33.88620376586914
0.007883516140282154,0.11194975674152374,9.802534103393555,-0.0030228932959568454,0.00849223086769313,0.004025818176311695,3.5900070667266846,2019-07-26 12:23:33:095,-179.6573873020153,179.26514148072908,0,-35.985347747802734,19.19218635559082,-33.88620376586914
0.06775225698947906,0.12871301174163818,9.816903114318848,-0.0008918440801873052,0.005295657336622434,-0.001834566890725571,3.6000027656555176,2019-07-26 12:23:33:105,-179.65930326548323,179.26531554687813,0,-34.93577575683594,19.64200210571289,-34.336021423339844
0.04380476102232933,0.0951865091919899,9.790560722351074,0.0028374920311547455,-0.0002983468954092222,-0.0031664725286716937,3.6100099086761475,2019-07-26 12:23:33:115,-179.6608225572153,179.26727429617674,0,-34.93577575683594,19.64200210571289,-34.336021423339844
0.019857265055179596,0.13110776245594025,9.797744750976562,-0.0006254629525980806,0.004762895081443986,0.001095625642793062,3.6200075149536133,2019-07-26 12:23:33:125,-179.6679573805064,179.2669468572228,0,-34.93577575683594,19.64200210571289,-34.336021423339844
0.053383760154247284,0.12392351031303406,9.807323455810547,0.0009728239429744294,0.005295657336622434,-0.0021009480183147955,3.630009651184082,2019-07-26 12:23:33:135,-179.67133492359687,179.26658275890867,0,-34.93577575683594,19.64200210571289,-34.336021423339844
0.04619951173663139,0.07602851092815399,9.75224494934082,-0.005420323444259867,0.009824137025787903,-0.0005026612202701574,3.6400067806243896,2019-07-26 12:23:33:145,-179.67799435220562,179.275360356258,0,-34.93577575683594,19.64200210571289,-34.336021423339844
0.04619951173663139,0.09039700776338577,9.773797035217285,-0.0038220366787245193,0.005295657336622434,0.001628387897971511,3.650007724761963,2019-07-26 12:23:33:155,-179.68199169147573,179.2814012476456,0,-34.93577575683594,19.64200210571289,-34.336021423339844
0.06775225698947906,0.11673925817012787,9.869586944580078,-0.0008918440801873052,0.0028982269282450887,-0.0021009480183147955,3.6600122451782227,2019-07-26 12:23:33:165,-179.68211364210651,179.28272075363498,0,-34.93577575683594,19.64200210571289,-34.336021423339844
0.05098900943994522,0.11913400888442993,9.840849876403809,-0.0024901310407783963,0.004762895081443986,3.010106944941304e-05,3.670008897781372,2019-07-26 12:23:33:175,-179.68520748234724,179.28459222001317,0,-34.93577575683594,19.64200210571289,-34.336021423339844
0.07254175841808319,0.1478710025548935,9.843245506286621,-0.0019573686555627847,0.005295657336622434,0.0018947690255607357,3.6800079345703125,2019-07-26 12:23:33:185,-179.68603165036754,179.2827860088466,0,-34.93577575683594,19.64200210571289,-34.336021423339844
0.031831011176109314,0.10237076133489609,9.783376693725586,-0.005953085699438316,0.006893944102157782,0.0002964822275160976,3.690006971359253,2019-07-26 12:23:33:195,-179.69245326839248,179.2884824850024,0,-34.93577575683594,19.64200210571289,-34.336021423339844
0.024646764621138573,0.11673925817012787,9.828876495361328,-0.002223749913189172,0.00556203846421166,-0.0015681857631363464,3.7000086307525635,2019-07-26 12:23:33:205,-179.69885432108268,179.2903520782476,0,-34.93577575683594,19.64200210571289,-34.336021423339844
0.017462514340877533,0.10955500602722168,9.749850273132324,-0.0019573686555627847,0.00556203846421166,-0.0010354235079578973,3.7100133895874023,2019-07-26 12:23:33:215,-179.70594940269746,179.29276898528732,0,-34.93577575683594,19.64200210571289,-34.336021423339844
0.08451550453901291,0.08560751378536224,9.761823654174805,0.0039030165415116433,0.004496513953854761,0.004025818176311695,3.720000982284546,2019-07-26 12:23:33:225,-179.70443125680399,179.29467579603718,0,-35.235652923583984,20.241758346557617,-34.93577575683594
0.09888400137424469,0.09758125990629196,9.80492877960205,0.0025711109035655207,0.0063611818469793335,0.005357724074332143,3.7299964427948,2019-07-26 12:23:33:235,-179.70235648695964,179.29593517986766,0,-35.235652923583984,20.241758346557617,-34.93577575683594
0.060568008571863174,0.121528759598732,9.826481819152832,-0.0014246064003843356,0.007959468612514682,0.006423248584689041,3.7400083541870117,2019-07-26 12:23:33:245,-179.70572086007192,179.2966459847223,0,-35.235652923583984,20.241758346557617,-34.93577575683594
0.060568008571863174,0.10955500602722168,9.785771369934082,0.0009728239429744294,0.007959468612514682,-0.0029000914010824694,3.750009059906006,2019-07-26 12:23:33:255,-179.708983554919,179.29733841214974,0,-35.235652923583984,20.241758346557617,-34.93577575683594
0.04380476102232933,0.04968626797199249,9.869586944580078,-0.0038220366787245193,0.002631845800655864,-0.00023628007642628753,3.760006904602051,2019-07-26 12:23:33:265,-179.71119539282014,179.30776843811256,0,-35.235652923583984,20.241758346557617,-34.93577575683594
0.05098900943994522,0.07123901695013046,9.795350074768066,-0.002223749913189172,0.006094800719390108,-0.00023628007642628753,3.7700061798095703,2019-07-26 12:23:33:275,-179.71442852968366,179.314527814211,0,-35.235652923583984,20.241758346557617,-34.93577575683594
0.04619951173663139,0.09758125990629196,9.79295539855957,0.0025711109035655207,0.0063611818469793335,0.0013620067703822866,3.780005693435669,2019-07-26 12:23:33:285,-179.7183056179848,179.31537563023505,0,-35.235652923583984,20.241758346557617,-34.93577575683594
0.09888400137424469,0.11913400888442993,9.788166046142578,-0.002756512168367621,0.005828419591800884,0.001628387897971511,3.7900021076202393,2019-07-26 12:23:33:295,-179.71563487409745,179.31666882822148,0,-35.235652923583984,20.241758346557617,-34.93577575683594
0.09648925811052322,0.10955500602722168,9.778586387634277,-0.0024901310407783963,0.0063611818469793335,0.004824961819153694,3.7999892234802246,2019-07-26 12:23:33:305,-179.71358252500028,179.31889405529415,0,-35.235652923583984,20.241758346557617,-34.93577575683594
0.04380476102232933,0.11673925817012787,9.824087142944336,0.003636635413922419,0.00849223086769313,0.005890486329510593,3.810009241104126,2019-07-26 12:23:33:315,-179.71897929037186,179.31685388981293,0,-35.235652923583984,20.241758346557617,-34.93577575683594
0.05817325785756111,0.10476551204919815,9.831271171569824,0.00017368051144281974,0.006893944102157782,-0.00023628007642628753,3.820014238357544,2019-07-26 12:23:33:325,-179.7216920862273,179.31820842120595,0,-35.235652923583984,20.241758346557617,-34.93577575683594
0.0390152633190155,0.11673925817012787,9.80492877960205,0.0009728239429744294,0.004230132566191211,-0.00023628007642628753,3.8300063610076904,2019-07-26 12:23:33:335,-179.72507184341274,179.31765560979025,0,-35.235652923583984,20.241758346557617,-34.93577575683594
0.08691025525331497,0.10476551204919815,9.778586387634277,-0.0003590817924995654,0.003430989183423538,-0.0005026612202701574,3.8400118350982666,2019-07-26 12:23:33:345,-179.72231354062274,179.31922762711207,0,-35.235652923583984,20.241758346557617,-34.93577575683594
0.05577851086854935,0.10237076133489609,9.78098201751709,0.0007064428153852049,0.002631845800655864,0.001095625642793062,3.850006341934204,2019-07-26 12:23:33:355,-179.72280943475002,179.32045355923924,0,-35.83540725708008,19.94188117980957,-34.336021423339844
0.05098900943994522,0.121528759598732,9.824087142944336,0.0017719673907606846,0.010623279888406926,3.010106944941304e-05,3.8599982261657715,2019-07-26 12:23:33:365,-179.72836588076976,179.31887552535147,0,-35.83540725708008,19.94188117980957,-34.336021423339844
0.08212075382471085,0.0951865091919899,9.790560722351074,0.0009728239429744294,0.002631845800655864,-0.0021009480183147955,3.870008945465088,2019-07-26 12:23:33:375,-179.7256664995299,179.32081063620473,0,-35.83540725708008,19.94188117980957,-34.336021423339844
0.0916997566819191,0.10716026276350021,9.83366584777832,0.0028374920311547455,0.007160325229747007,-0.0005026612202701574,3.880006790161133,2019-07-26 12:23:33:385,-179.7244873668452,179.3203146440474,0,-35.83540725708008,19.94188117980957,-34.336021423339844
0.060568008571863174,0.12631826102733612,9.809718132019043,-0.0003590817924995654,0.005295657336622434,0.0013620067703822866,3.8899996280670166,2019-07-26 12:23:33:395,-179.72589387318416,179.31935486394073,0,-35.83540725708008,19.94188117980957,-34.336021423339844
0.065357506275177,0.07842326164245605,9.795350074768066,-0.002756512168367621,0.002631845800655864,-0.006895808835069488,3.899991750717163,2019-07-26 12:23:33:405,-179.72520683126615,179.32534012347193,0,-35.83540725708008,19.94188117980957,-34.336021423339844
0.03662051260471344,0.10237076133489609,9.785771369934082,-0.0030228932959568454,0.0031646080558343135,-0.0031664725286716937,3.9100053310394287,2019-07-26 12:23:33:415,-179.72819378227155,179.32854577920335,0,-35.83540725708008,19.94188117980957,-34.336021423339844
0.053383760154247284,0.1478710025548935,9.80492877960205,-0.0006254629525980806,0.003430989183423538,3.010106944941304e-05,3.920006513595581,2019-07-26 12:23:33:425,-179.72931765795218,179.32504552316882,0,-35.83540725708008,19.94188117980957,-34.336021423339844
0.060568008571863174,0.10716026276350021,9.769007682800293,-0.0019573686555627847,0.006627562974568559,-0.0063630465798910395,3.9300074577331543,2019-07-26 12:23:33:435,-179.73134841922837,179.32707426108124,0,-35.83540725708008,19.94188117980957,-34.336021423339844
0.04380476102232933,0.08081801235675812,9.795350074768066,-9.270064052837282e-05,0.003963751438601987,-0.0007690423803686727,3.940011501312256,2019-07-26 12:23:33:445,-179.73382349668697,179.33113051340126,0,-35.83540725708008,19.94188117980957,-34.336021423339844
0.06296275556087494,0.11913400888442993,9.838455200195312,-0.0048875611890814175,0.006893944102157782,-0.0031664725286716937,3.9500110149383545,2019-07-26 12:23:33:455,-179.73568441013273,179.333376896832,0,-35.83540725708008,19.94188117980957,-34.336021423339844
0.04141001030802727,0.121528759598732,9.78098201751709,-0.0032892744235460706,0.002631845800655864,3.010106944941304e-05,3.959994077682495,2019-07-26 12:23:33:465,-179.737594531717,179.33431587844322,0,-35.83540725708008,19.94188117980957,-34.336021423339844
0.060568008571863174,0.1143445074558258,9.747454643249512,-0.0016909875279735602,0.00502927620903321,-0.0021009480183147955,3.9700100421905518,2019-07-26 12:23:33:475,-179.7385507676841,179.33513878356243,0,-35.38559341430664,20.091819763183594,-34.78583526611328
0.05817325785756111,0.0951865091919899,9.773797035217285,0.0012392051355822353,0.009824137025787903,-0.00023628007642628753,3.9799911975860596,2019-07-26 12:23:33:485,-179.74246523251006,179.33658184663966,0,-35.38559341430664,20.091819763183594,-34.78583526611328
0.048594262450933456,0.10955500602722168,9.761823654174805,0.002038348518349909,0.007693087484925456,0.0002964822275160976,3.989999294281006,2019-07-26 12:23:33:495,-179.74623477405316,179.33584491014412,0,-35.38559341430664,20.091819763183594,-34.78583526611328
0.0294362623244524,0.12392351031303406,9.802534103393555,-0.004621180061492193,0.00502927620903321,-0.001834566890725571,4.00000786781311,2019-07-26 12:23:33:505,-179.75069534464555,179.33723914439966,0,-35.38559341430664,20.091819763183594,-34.78583526611328
0.01506776548922062,0.1598447561264038,9.848034858703613,0.0041693976691008685,0.00556203846421166,3.010106944941304e-05,4.0099828243255615,2019-07-26 12:23:33:515,-179.75704341235468,179.32956123895428,0,-35.38559341430664,20.091819763183594,-34.78583526611328
0.03422576189041138,0.1143445074558258,9.785771369934082,0.00044006165528668966,0.004230132566191211,-0.00023628007642628753,4.019982814788818,2019-07-26 12:23:33:525,-179.76026992898107,179.3293337673043,0,-35.38559341430664,20.091819763183594,-34.78583526611328
0.04141001030802727,0.11673925817012787,9.80492877960205,0.00017368051144281974,0.010090517633228477,0.0018947690255607357,4.029990196228027,2019-07-26 12:23:33:535,-179.765894908091,179.32900666463934,0,-35.38559341430664,20.091819763183594,-34.78583526611328
0.031831011176109314,0.10955500602722168,9.759428977966309,-0.005686704571849092,0.00502927620903321,-0.0007690423803686727,4.0399768352508545,2019-07-26 12:23:33:545,-179.76965970379246,179.33275234384877,0,-35.38559341430664,20.091819763183594,-34.78583526611328
0.027041513472795486,0.08321276307106018,9.80492877960205,-0.004354798933902968,0.003697370311012762,0.0002964822275160976,4.049976825714111,2019-07-26 12:23:33:555,-179.77318220506012,179.33881755106137,0,-35.38559341430664,20.091819763183594,-34.78583526611328
0.048594262450933456,0.11913400888442993,9.843245506286621,-0.0019573686555627847,0.007160325229747007,-0.0015681857631363464,4.059985399246216,2019-07-26 12:23:33:565,-179.77608539579845,179.33927272222942,0,-35.38559341430664,20.091819763183594,-34.78583526611328
0.031831011176109314,0.07363376021385193,9.80492877960205,0.0025711109035655207,0.007959468612514682,-0.0007690423803686727,4.069981098175049,2019-07-26 12:23:33:575,-179.78131087518852,179.34243869580374,0,-35.38559341430664,20.091819763183594,-34.78583526611328
0.0390152633190155,0.121528759598732,9.809718132019043,-0.0016909875279735602,0.0012999400326725785,-0.005563903197123366,4.079988479614258,2019-07-26 12:23:33:585,-179.78185759345408,179.34234453627158,0,-35.38559341430664,20.091819763183594,-34.78583526611328
0.07014700770378113,0.12631826102733612,9.759428977966309,-9.270064052837282e-05,0.004496513953854761,-0.0021009480183147955,4.089985370635986,2019-07-26 12:23:33:595,-179.780508186069,179.34071869180244,0,-35.38559341430664,20.091819763183594,-34.78583526611328
0.07493650913238525,0.11673925817012787,9.769007682800293,0.0023047297759762964,0.00556203846421166,-0.0021009480183147955,4.099974155426025,2019-07-26 12:23:33:605,-179.77922763236663,179.3389186721632,0,-34.93577575683594,20.841514587402344,-34.336021423339844
0.065357506275177,0.12631826102733612,9.79295539855957,0.0012392051355822353,0.004762895081443986,-0.0021009480183147955,4.109986782073975,2019-07-26 12:23:33:615,-179.7786731678823,179.3366633879103,0,-34.93577575683594,20.841514587402344,-34.336021423339844
0.05577851086854935,0.0880022644996643,9.745059967041016,-0.004354798933902968,0.003430989183423538,-0.0007690423803686727,4.119982481002808,2019-07-26 12:23:33:625,-179.77846648262278,179.3420264314052,0,-34.93577575683594,20.841514587402344,-34.336021423339844
0.060568008571863174,0.11194975674152374,9.785771369934082,0.00310387315874397,0.003963751438601987,0.0002964822275160976,4.129991769790649,2019-07-26 12:23:33:635,-179.77803242721157,179.34033269852088,0,-34.93577575683594,20.841514587402344,-34.336021423339844
0.060568008571863174,0.11913400888442993,9.797744750976562,-0.004088417806313744,0.003963751438601987,-0.0013018046355471218,4.13998556137085,2019-07-26 12:23:33:645,-179.77761227090875,179.34188738149655,0,-34.93577575683594,20.841514587402344,-34.336021423339844
0.09648925811052322,0.13110776245594025,9.754639625549316,-0.002756512168367621,0.005295657336622434,-0.003965616171513693,4.1499857902526855,2019-07-26 12:23:33:655,-179.77369899784406,179.3411966338733,0,-34.93577575683594,20.841514587402344,-34.336021423339844
0.08691025525331497,0.11194975674152374,9.831271171569824,-0.0003590817924995654,0.007426706357336231,0.001095625642793062,4.159977436065674,2019-07-26 12:23:33:665,-179.77226177777436,179.34152605487358,0,-34.93577575683594,20.841514587402344,-34.336021423339844
0.09648925811052322,0.11194975674152374,9.855218887329102,0.0007064428153852049,0.003430989183423538,3.010106944941304e-05,4.169989585876465,2019-07-26 12:23:33:675,-179.76752644847036,179.34128198687412,0,-34.93577575683594,20.841514587402344,-34.336021423339844
0.06296275556087494,0.11913400888442993,9.795350074768066,-0.001158225272795111,0.0028982269282450887,-0.0021009480183147955,4.179983854293823,2019-07-26 12:23:33:685,-179.76643669855144,179.34117003159892,0,-34.93577575683594,20.841514587402344,-34.336021423339844
0.08212075382471085,0.1406867504119873,9.776191711425781,0.0017719673907606846,0.003963751438601987,-0.00023628007642628753,4.189980983734131,2019-07-26 12:23:33:695,-179.7637074150272,179.33686251045006,0,-34.93577575683594,20.841514587402344,-34.336021423339844
0.07972601056098938,0.11913400888442993,9.852824211120605,-0.0019573686555627847,0.008758612515431006,-0.0021009480183147955,4.199986696243286,2019-07-26 12:23:33:705,-179.76408183243123,179.33736994931158,0,-34.93577575683594,20.841514587402344,-34.336021423339844
0.053383760154247284,0.09039700776338577,9.783376693725586,-0.0019573686555627847,0.000767177712475548,-0.0031664725286716937,4.209985017776489,2019-07-26 12:23:33:715,-179.762978176729,179.3411336300856,0,-34.93577575683594,20.841514587402344,-34.336021423339844
0.065357506275177,0.11194975674152374,9.757034301757812,-0.0008918440801873052,0.003697370311012762,-0.001834566890725571,4.219990253448486,2019-07-26 12:23:33:725,-179.76211996636565,179.3416646186501,0,-35.235652923583984,20.241758346557617,-36.13528823852539
0.05817325785756111,0.13829199969768524,9.79295539855957,-0.002756512168367621,0.007160325229747007,0.0008292445152038374,4.22999119758606,2019-07-26 12:23:33:735,-179.76409143789266,179.34019818750346,0,-35.235652923583984,20.241758346557617,-36.13528823852539
0.09888400137424469,0.12871301174163818,9.80492877960205,-0.0016909875279735602,0.006627562974568559,-0.0007690423803686727,4.239986896514893,2019-07-26 12:23:33:745,-179.76097305789318,179.3393012988423,0,-35.235652923583984,20.241758346557617,-36.13528823852539
0.019857265055179596,0.12631826102733612,9.802534103393555,-9.270064052837282e-05,0.005295657336622434,-0.0007690423803686727,4.249983787536621,2019-07-26 12:23:33:755,-179.76640486686736,179.3378015288633,0,-35.235652923583984,20.241758346557617,-36.13528823852539
0.08930500596761703,0.13589724898338318,9.778586387634277,-0.004088417806313744,0.005828419591800884,0.0021611501531499603,4.259990692138672,2019-07-26 12:23:33:765,-179.76388665356833,179.33741846439455,0,-35.235652923583984,20.241758346557617,-36.13528823852539
0.05577851086854935,0.1143445074558258,9.749850273132324,-0.001158225272795111,0.002365464673066639,-0.0007690423803686727,4.269983530044556,2019-07-26 12:23:33:775,-179.76338050780848,179.3378814933918,0,-35.235652923583984,20.241758346557617,-36.13528823852539
0.06296275556087494,0.10716026276350021,9.785771369934082,0.00310387315874397,0.0028982269282450887,-0.0013018046355471218,4.2799882888793945,2019-07-26 12:23:33:785,-179.76236817427818,179.33683222906797,0,-35.235652923583984,20.241758346557617,-36.13528823852539
0.07493650913238525,0.06644951552152634,9.80492877960205,-0.0008918440801873052,0.007160325229747007,0.0018947690255607357,4.289987802505493,2019-07-26 12:23:33:795,-179.76238336514672,179.34283040145948,0,-35.235652923583984,20.241758346557617,-36.13528823852539
0.05098900943994522,0.09758125990629196,9.754639625549316,0.00017368051144281974,0.0063611818469793335,0.0029602936659547966,4.299988746643066,2019-07-26 12:23:33:805,-179.76471800661983,179.34441339373896,0,-35.235652923583984,20.241758346557617,-36.13528823852539
0.031831011176109314,0.16463425755500793,9.771402359008789,0.002038348518349909,0.00556203846421166,0.005091342946742919,4.309988498687744,2019-07-26 12:23:33:815,-179.76881376090992,179.33707540006978,0,-35.235652923583984,20.241758346557617,-36.13528823852539
0.065357506275177,0.121528759598732,9.814508438110352,0.002038348518349909,0.011422423791323251,-0.0021009480183147955,4.319980621337891,2019-07-26 12:23:33:825,-179.77221525510038,179.33500161799145,0,-35.235652923583984,20.241758346557617,-36.13528823852539
0.07733125984668732,0.11913400888442993,9.766613006591797,-0.0024901310407783963,0.003963751438601987,-0.0029000914010824694,4.329983949661255,2019-07-26 12:23:33:835,-179.76992425350826,179.33572296972923,0,-35.235652923583984,20.241758346557617,-36.13528823852539
0.04619951173663139,0.10716026276350021,9.819297790527344,-0.0024901310407783963,0.008225849740103906,-0.0013018046355471218,4.339986801147461,2019-07-26 12:23:33:845,-179.77375442903565,179.33790196937784,0,-35.235652923583984,20.241758346557617,-36.13528823852539
0.04380476102232933,0.09039700776338577,9.718718528747559,0.004435778796690093,0.005295657336622434,0.0013620067703822866,4.349982500076294,2019-07-26 12:23:33:855,-179.7760866649571,179.3379960858463,0,-35.53553009033203,19.64200210571289,-33.736263275146484
0.04141001030802727,0.09758125990629196,9.79295539855957,0.00044006165528668966,0.003697370311012762,0.001628387897971511,4.359990358352661,2019-07-26 12:23:33:865,-179.77779709797457,179.33957085330078,0,-35.53553009033203,19.64200210571289,-33.736263275146484
0.07254175841808319,0.10476551204919815,9.78098201751709,-0.0014246064003843356,0.003697370311012762,-0.005563903197123366,4.369986057281494,2019-07-26 12:23:33:875,-179.7758176748378,179.3413054085962,0,-35.53553009033203,19.64200210571289,-33.736263275146484
0.053383760154247284,0.09758125990629196,9.867192268371582,-0.0038220366787245193,0.010356899280966352,0.0013620067703822866,4.379981517791748,2019-07-26 12:23:33:885,-179.77991446215157,179.34529227106336,0,-35.53553009033203,19.64200210571289,-33.736263275146484
0.03662051260471344,0.10955500602722168,9.757034301757812,-0.0024901310407783963,0.006094800719390108,-0.0013018046355471218,4.3899853229522705,2019-07-26 12:23:33:895,-179.78343881890683,179.34691900804873,0,-35.53553009033203,19.64200210571289,-33.736263275146484
0.05577851086854935,0.10237076133489609,9.843245506286621,-0.0038220366787245193,0.00556203846421166,-0.0010354235079578973,4.399986267089844,2019-07-26 12:23:33:905,-179.7843999483137,179.35020968905692,0,-35.53553009033203,19.64200210571289,-33.736263275146484
0.03662051260471344,0.08321276307106018,9.730691909790039,-0.0032892744235460706,0.002365464673066639,0.004025818176311695,4.409991502761841,2019-07-26 12:23:33:915,-179.7857283284335,179.35525423860693,0,-35.53553009033203,19.64200210571289,-33.736263275146484
0.0390152633190155,0.10237076133489609,9.761823654174805,-0.002223749913189172,0.00556203846421166,0.0013620067703822866,4.419996976852417,2019-07-26 12:23:33:925,-179.78855867059164,179.35738186771823,0,-35.53553009033203,19.64200210571289,-33.736263275146484
0.027041513472795486,0.12631826102733612,9.82169246673584,-0.001158225272795111,0.006893944102157782,-0.0007690423803686727,4.429979085922241,2019-07-26 12:23:33:935,-179.79349653496627,179.3561464288588,0,-35.53553009033203,19.64200210571289,-33.736263275146484
0.02225201390683651,0.10716026276350021,9.797744750976562,0.00150558626317146,0.007160325229747007,0.001628387897971511,4.439985513687134,2019-07-26 12:23:33:945,-179.79904717539495,179.35564492083003,0,-35.53553009033203,19.64200210571289,-33.736263275146484
0.05098900943994522,0.10955500602722168,9.800139427185059,0.00017368051144281974,0.004230132566191211,-0.0034328539163352434,4.449988842010498,2019-07-26 12:23:33:955,-179.79948022158757,179.35562489978358,0,-35.53553009033203,19.64200210571289,-33.736263275146484
0.08930500596761703,0.11194975674152374,9.836060523986816,-0.0019573686555627847,0.008225849740103906,-0.0036992350439244686,4.459984540939331,2019-07-26 12:23:33:965,-179.7977035546827,179.3565692398949,0,-35.53553009033203,19.64200210571289,-33.736263275146484
0.05577851086854935,0.08321276307106018,9.735481262207031,-0.0003590817924995654,0.003963751438601987,0.0018947690255607357,4.469983339309692,2019-07-26 12:23:33:975,-179.7974095150023,179.35984512847477,0,-34.63589859008789,18.742368698120117,-33.43638610839844
0.04619951173663139,0.0880022644996643,9.761823654174805,-0.0024901310407783963,0.006094800719390108,-0.0010354235079578973,4.479981184005737,2019-07-26 12:23:33:985,-179.79945960701573,179.3637160481122,0,-34.63589859008789,18.742368698120117,-33.43638610839844
0.06296275556087494,0.1143445074558258,9.80492877960205,0.0012392051355822353,0.006893944102157782,0.0013620067703822866,4.489988803863525,2019-07-26 12:23:33:995,-179.79998586150987,179.36238238995836,0,-34.63589859008789,18.742368698120117,-33.43638610839844
0.06296275556087494,0.121528759598732,9.72350788116455,-0.001158225272795111,0.007959468612514682,-0.0010354235079578973,4.499984979629517,2019-07-26 12:23:34:005,-179.80103360769158,179.36146341440968,0,-34.63589859008789,18.742368698120117,-33.43638610839844
0.04380476102232933,0.09279175847768784,9.754639625549316,-0.0014246064003843356,0.006094800719390108,-0.00023628007642628753,4.509990930557251,2019-07-26 12:23:34:015,-179.80329131272612,179.36413425543282,0,-34.63589859008789,18.742368698120117,-33.43638610839844
0.065357506275177,0.15745000541210175,9.78098201751709,0.004702159924279317,0.00502927620903321,-0.0031664725286716937,4.519982814788818,2019-07-26 12:23:34:025,-179.80239011703534,179.35576859774133,0,-34.63589859008789,18.742368698120117,-33.43638610839844
0.05577851086854935,0.0880022644996643,9.769007682800293,0.0012392051355822353,0.006094800719390108,0.0021611501531499603,4.530036926269531,2019-07-26 12:23:34:035,-179.8032402441874,179.35763116324472,0,-34.63589859008789,18.742368698120117,-33.43638610839844
