ACCELEROMETER X (m/s²),ACCELEROMETER Y (m/s²),ACCELEROMETER Z (m/s²),GYROSCOPE X (rad/s),GYROSCOPE Y (rad/s),GYROSCOPE Z (rad/s),Pitch (Deg),Roll (Deg),Heading (Deg),Time since start in ms ,YYYY-MO-DD HH-MI-SS_SSS
0.31514427065849304,-0.04925042390823364,9.825334548950195,0.0019285994937831485,-0.0006920582344953867,0.0042735527550068365,-3.5632577428909116,-3.594256037223969,0,0.0,2019-08-06 13:46:48:013
0.2648545205593109,0.01301306951791048,9.830123901367188,0.002994124134177209,-0.005753299723709235,0.0008105978362725917,-7.060114970311075,0.07558623999586,0,0.0031280517578125,2019-08-06 13:46:48:016
0.24090702831745148,-0.04685567319393158,9.787018775939941,-0.0012679742973618717,-0.0033558695754062136,0.003474409372239163,-10.490155840293788,-3.5202293916854512,0,0.006078004837036133,2019-08-06 13:46:48:019
0.35346025228500366,-0.022908175364136696,9.851676940917969,6.393147468507523e-05,-0.0017575828098708665,0.003208027984575613,-13.838885577215807,-7.0471737126517215,0,0.009841442108154297,2019-08-06 13:46:48:023
0.31514427065849304,-0.0779874175786972,9.882808685302734,-0.0007352119771648412,-0.0054869185961200105,0.0013433600914510408,-17.12452455685547,-10.497046446608536,0,0.01326441764831543,2019-08-06 13:46:48:026
0.3582497537136078,-0.07080317288637161,9.930704116821289,0.0021949807514095357,-0.003622250702995438,0.0008105978362725917,-20.340102033228213,-13.879305899487505,0,0.01626896858215332,2019-08-06 13:46:48:029
0.3175390064716339,-0.0324871726334095,9.921124458312988,0.0037932675169448835,-0.0054869185961200105,0.0021425034742187147,-23.495471899930024,-17.198772170673468,0,0.02004718780517578,2019-08-06 13:46:48:033
0.32711800932884216,-0.03967142477631569,9.940282821655273,0.003260505261766434,-0.00255672619263854,-0.0015868324420675922,-26.587416812034682,-20.450796148295947,0,0.023175477981567383,2019-08-06 13:46:48:036
0.24090702831745148,-0.03967142477631569,9.928308486938477,0.002727743006587985,-0.003888631830584663,0.004539933882596061,-29.627222954170367,-23.63765436682031,0,0.026132822036743164,2019-08-06 13:46:48:039
0.30077576637268066,-0.0037501780316233635,9.882808685302734,-0.00020244967322245603,-0.006552443626625559,0.0008105978362725917,-32.598388144581676,-26.764422384691038,0,0.030008792877197266,2019-08-06 13:46:48:043
0.3438812792301178,-0.05643467232584953,9.842098236083984,0.002994124134177209,-0.0054869185961200105,0.00507269613777451,-35.50538386399516,-29.823117024083075,0,0.03330230712890625,2019-08-06 13:46:48:046
0.28161776065826416,-0.022908175364136696,9.923519134521484,0.0024613618789987605,-0.007617968136982457,0.0010769789638618162,-38.3613763754896,-32.824458095420624,0,0.03654909133911133,2019-08-06 13:46:48:049
0.28880202770233154,-0.10672441124916077,9.830123901367188,0.002994124134177209,0.00010708522141819095,0.006670982903309857,-41.16051300004072,-35.75610583537561,0,0.03998398780822754,2019-08-06 13:46:48:053
0.2864072620868683,0.024986818432807922,9.861255645751953,0.002727743006587985,-0.006818824754214785,0.0037407904998283874,-43.902835283531196,-31.44436539019948,0,0.0431056022644043,2019-08-06 13:46:48:056
0.3558550179004669,-0.0324871726334095,9.882808685302734,0.0016622183661939237,-0.003622250702995438,0.0008105978362725917,-46.582935557017294,-34.41198621282595,0,0.04605221748352051,2019-08-06 13:46:48:059
0.3774077594280243,-0.08038216829299927,9.894782066345215,0.000863074918407669,-0.0028231073202277645,0.0010769789638618162,-49.2069947725186,-37.31461972040098,0,0.04980969429016113,2019-08-06 13:46:48:063
0.31993377208709717,-0.0588294193148613,9.861255645751953,0.0016622183661939237,-0.003622250702995438,0.004007171627417612,-51.78499045700175,-40.16181239491104,0,0.053251028060913086,2019-08-06 13:46:48:066
0.3103547692298889,-0.05164517089724541,9.820545196533203,6.393147468507523e-05,-0.002023963937460091,0.0037407904998283874,-54.31272112952642,-42.952561571249774,0,0.05648612976074219,2019-08-06 13:46:48:069
0.38698676228523254,-0.06122417002916336,9.79420280456543,0.004059648644534107,-0.004155012958173888,0.004007171627417612,-56.78039686921989,-45.687144680207496,0,0.059984445571899414,2019-08-06 13:46:48:073
0.27443352341651917,-0.030092423781752586,9.770255088806152,0.002727743006587985,-0.003888631830584663,0.0021425034742187147,-59.21192750813738,-48.3703512175692,0,0.0631108283996582,2019-08-06 13:46:48:076
0.2911967635154724,-0.006144927814602852,9.88520336151123,0.002727743006587985,-0.002023963937460091,0.0010769789638618162,-61.59360588592931,-51.00268554333816,0,0.06607294082641602,2019-08-06 13:46:48:079
0.30796003341674805,-0.05643467232584953,10.000151634216309,-0.0004688308170663259,-0.005220537468530785,0.006670982903309857,-63.92535243694684,-53.57606597158406,0,0.06983709335327148,2019-08-06 13:46:48:083
0.3510655164718628,0.01301306951791048,9.839703559875488,0.0013958372386046994,-0.004421394085763112,1.1454389502251989e-05,-66.20512576023947,-48.90632925206413,0,0.07327079772949219,2019-08-06 13:46:48:086
0.32232850790023804,-0.027697674930095673,9.880414009094238,0.002727743006587985,-0.004421394085763112,0.004539933882596061,-68.44284958126461,-51.52548620176589,0,0.0765082836151123,2019-08-06 13:46:48:089
0.3582497537136078,-0.010934427380561829,9.868440628051758,0.003260505261766434,-0.0017575828098708665,0.005339077265363735,-70.63206444478753,-54.094349991904636,0,0.08002161979675293,2019-08-06 13:46:48:093
0.31514427065849304,-0.015723926946520805,9.86365032196045,-0.0010015931047540657,-0.005753299723709235,0.0021425034742187147,-72.7818179500036,-56.61046119546458,0,0.08313441276550293,2019-08-06 13:46:48:096
0.3319075107574463,-0.04925042390823364,9.810966491699219,0.000863074918407669,-0.003888631830584663,0.003208027984575613,-74.88678506852305,-59.07264268330969,0,0.08608698844909668,2019-08-06 13:46:48:099
0.3366970121860504,-0.08038216829299927,9.820545196533203,0.0019285994937831485,-0.0054869185961200105,0.0016097412190402653,-76.94862017281461,-61.482217243850535,0,0.08984208106994629,2019-08-06 13:46:48:103
0.1930120289325714,0.0010393214179202914,9.83491325378418,0.0035268863893556587,-0.004421394085763112,0.0021425034742187147,-78.98631039857473,-56.65337318379133,0,0.09327173233032227,2019-08-06 13:46:48:106
0.3055652678012848,-0.042066171765327454,9.815755844116211,-0.00020244967322245603,-0.0033558695754062136,0.003474409372239163,-80.97031631787574,-59.11535822616499,0,0.09649276733398438,2019-08-06 13:46:48:109
0.3319075107574463,-0.0037501780316233635,9.88520336151123,0.0024613618789987605,-0.005753299723709235,0.003208027984575613,-82.91131868113278,-61.53309988347793,0,0.0999915599822998,2019-08-06 13:46:48:113
0.3031705319881439,-0.00853967759758234,9.741518020629883,0.002727743006587985,-0.004687775213352337,0.0008105978362725917,-84.81661760629449,-63.901912591511035,0,0.10312056541442871,2019-08-06 13:46:48:116
0.30077576637268066,-0.02530292607843876,9.731939315795898,0.000863074918407669,-0.006552443626625559,0.0042735527550068365,-86.68380028495585,-66.22103730332475,0,0.10605740547180176,2019-08-06 13:46:48:119
0.3965657651424408,-0.0779874175786972,9.760676383972168,0.0013958372386046994,-0.0030894884478169893,-0.0005213078992014032,-88.50294151560715,-68.48775507315041,0,0.10981035232543945,2019-08-06 13:46:48:123
0.3319075107574463,-0.03488192334771156,9.887598037719727,-0.00020244967322245603,-0.0017575828098708665,0.0021425034742187147,-90.2940934328654,-70.7139184964826,0,0.11323046684265137,2019-08-06 13:46:48:126
0.36782875657081604,-0.08277691900730133,9.909151077270508,0.0035268863893556587,-0.006019680851298459,0.0018761223466294901,-92.04469119238527,-72.890655722207,0,0.11619901657104492,2019-08-06 13:46:48:129
0.28880202770233154,-0.05403992161154747,9.866044998168945,-0.0007352119771648412,-0.006286061978887684,-0.0010540701868891429,-93.76890511370101,-75.02640721703733,0,0.12004709243774414,2019-08-06 13:46:48:133
0.29598626494407654,-0.05164517089724541,9.796597480773926,0.004059648644534107,-0.002023963937460091,0.0042735527550068365,-95.45855982170725,-77.12055216668352,0,0.12317943572998047,2019-08-06 13:46:48:136
0.3175390064716339,-0.010934427380561829,9.803781509399414,0.0019285994937831485,-0.006818824754214785,0.0021425034742187147,-97.11106354463189,-79.1772088139075,0,0.1263723373413086,2019-08-06 13:46:48:139
0.34148651361465454,-0.08277691900730133,9.810966491699219,0.0035268863893556587,-0.0017575828098708665,0.0018761223466294901,-98.72861382812773,-81.18471716337243,0,0.13001108169555664,2019-08-06 13:46:48:143
0.2600650191307068,-0.03488192334771156,9.763071060180664,0.000863074918407669,-0.004687775213352337,0.0026752657293971638,-100.32270257148939,-83.15707995044446,0,0.1331329345703125,2019-08-06 13:46:48:146
0.23851227760314941,-0.04685567319393158,9.79420280456543,6.393147468507523e-05,-0.00015929593055300162,0.0002778355485848519,-101.88832195137041,-85.08846686248658,0,0.13607287406921387,2019-08-06 13:46:48:149
0.38698676228523254,-0.037276674062013626,9.909151077270508,6.393147468507523e-05,-0.006019680851298459,0.006404601775720633,-103.4045558941857,-86.98240028243264,0,0.1398313045501709,2019-08-06 13:46:48:153
0.3031705319881439,-0.0779874175786972,9.803781509399414,0.004326029772123333,-0.004155012958173888,0.0013433600914510408,-104.90023658412409,-88.8344733468491,0,0.14327478408813477,2019-08-06 13:46:48:156
0.29598626494407654,-0.09475066512823105,9.79420280456543,0.0024613618789987605,-0.004155012958173888,0.004007171627417612,-106.36685875624993,-90.64714477413766,0,0.14650416374206543,2019-08-06 13:46:48:159
0.2768282890319824,-0.06601367145776749,9.916335105895996,0.004059648644534107,-0.006286061978887684,-0.0007876890592999184,-107.80631202094374,-92.42736664744025,0,0.14998340606689453,2019-08-06 13:46:48:163
0.27443352341651917,-0.02530292607843876,9.916335105895996,0.0013958372386046994,-0.0022903450650493154,0.0021425034742187147,-109.21807905703274,-94.17614018382031,0,0.1531071662902832,2019-08-06 13:46:48:166
0.3438812792301178,-0.03967142477631569,9.906756401062012,0.003260505261766434,-0.0054869185961200105,0.0018761223466294901,-110.59304354457814,-95.88857120663644,0,0.15607094764709473,2019-08-06 13:46:48:169
0.3055652678012848,-0.06361892074346542,9.79420280456543,-0.001534355424951096,-0.0033558695754062136,0.0021425034742187147,-111.94473497957063,-97.56303264845609,0,0.15983009338378906,2019-08-06 13:46:48:173
0.3103547692298889,-0.015723926946520805,9.856466293334961,0.0005966937908184444,-0.004155012958173888,0.005871839520542184,-113.26896866766998,-99.21005904446244,0,0.16326594352722168,2019-08-06 13:46:48:176
0.31993377208709717,-0.0851716697216034,9.837308883666992,-0.0007352119771648412,-0.004421394085763112,0.0013433600914510408,-114.5655289412299,-100.81580280974346,0,0.16651034355163574,2019-08-06 13:46:48:179
0.3510655164718628,0.0010393214179202914,9.801386833190918,0.0013958372386046994,-0.00255672619263854,0.002941646856986388,-115.83269180845234,-95.19988110320874,0,0.16999149322509766,2019-08-06 13:46:48:183
0.3821972608566284,-0.0779874175786972,9.837308883666992,0.0005966937908184444,-0.004155012958173888,0.004806315010185286,-117.07080032754855,-96.88690532009987,0,0.17315959930419922,2019-08-06 13:46:48:186
0.33430227637290955,-0.05643467232584953,9.796597480773926,0.000863074918407669,-0.003888631830584663,0.0016097412190402653,-118.28964897067536,-98.54270966260215,0,0.17612242698669434,2019-08-06 13:46:48:189
0.30796003341674805,0.015407819300889969,9.849282264709473,0.0011294561110154748,-0.007884349264571683,0.0013433600914510408,-119.48632654493751,-92.97389326634362,0,0.17998838424682617,2019-08-06 13:46:48:193
0.3295127749443054,0.01301306951791048,9.923519134521484,0.0013958372386046994,-0.0014912016822816417,0.0010769789638618162,-120.65828866406434,-87.5161754285919,0,0.1832718849182129,2019-08-06 13:46:48:196
0.3055652678012848,-0.042066171765327454,9.784624099731445,0.0037932675169448835,-0.004421394085763112,0.003474409372239163,-121.80853779005439,-89.36162101628312,0,0.1865377426147461,2019-08-06 13:46:48:199
0.36543402075767517,-0.0779874175786972,9.820545196533203,0.00033031263071992917,-0.0028231073202277645,0.0002778355485848519,-122.92919873660604,-91.16535279571177,0,0.1899890899658203,2019-08-06 13:46:48:203
0.3319075107574463,0.0010393214179202914,9.854071617126465,-0.0004688308170663259,0.00010708522141819095,0.003474409372239163,-124.03205110548085,-85.74208430588179,0,0.193115234375,2019-08-06 13:46:48:206
0.26724928617477417,-0.037276674062013626,9.875624656677246,0.0035268863893556587,-0.005753299723709235,0.0042735527550068365,-125.11945455062195,-87.62350139528736,0,0.19606494903564453,2019-08-06 13:46:48:209
0.30796003341674805,-0.05643467232584953,9.854071617126465,0.0013958372386046994,-0.0012248205546924172,0.0010769789638618162,-126.18100614683014,-89.4647636035392,0,0.1998271942138672,2019-08-06 13:46:48:213
0.2864072620868683,-0.015723926946520805,9.798992156982422,0.0013958372386046994,-0.003888631830584663,0.004007171627417612,-127.22315481069828,-91.27389791541951,0,0.20325136184692383,2019-08-06 13:46:48:216
0.34627601504325867,-0.03967142477631569,9.84449291229248,0.0019285994937831485,-0.0033558695754062136,0.002941646856986388,-128.2378411704003,-93.04412401461339,0,0.2062234878540039,2019-08-06 13:46:48:219
0.2792230248451233,-0.027697674930095673,9.808571815490723,0.0013958372386046994,0.0022381343640418276,0.004007171627417612,-129.24095262895386,-94.78030537069034,0,0.21004724502563477,2019-08-06 13:46:48:223
0.33430227637290955,-0.06840842217206955,9.861255645751953,6.393147468507523e-05,-0.0054869185961200105,0.002408884601807939,-130.21633657026047,-96.4767613107432,0,0.21317839622497559,2019-08-06 13:46:48:226
0.3438812792301178,-0.04685567319393158,9.899572372436523,0.0019285994937831485,-0.004155012958173888,0.0010769789638618162,-131.17153067379542,-98.14212243712727,0,0.21613383293151855,2019-08-06 13:46:48:229
0.31993377208709717,-0.0588294193148613,9.930704116821289,0.002727743006587985,-0.00255672619263854,0.002941646856986388,-132.11063331317374,-99.77309124083617,0,0.2200484275817871,2019-08-06 13:46:48:233
0.37261825799942017,-0.001355428365059197,9.806177139282227,6.393147468507523e-05,-0.003888631830584663,0.0026752657293971638,-133.02422040528324,-101.37748217727486,0,0.22315502166748047,2019-08-06 13:46:48:236
0.32711800932884216,-0.042066171765327454,9.770255088806152,0.0013958372386046994,-0.0030894884478169893,0.0026752657293971638,-133.92487337027288,-102.94522944877191,0,0.22609806060791016,2019-08-06 13:46:48:239
0.3438812792301178,-0.07559266686439514,9.842098236083984,0.0005966937908184444,-0.0028231073202277645,0.0013433600914510408,-134.805760235092,-104.47764929403893,0,0.229844331741333,2019-08-06 13:46:48:243
0.31514427065849304,-0.05403992161154747,9.798992156982422,0.002727743006587985,-0.002023963937460091,0.0026752657293971638,-135.6724129494202,-105.98230394496265,0,0.23328590393066406,2019-08-06 13:46:48:246
0.3821972608566284,-0.037276674062013626,9.866044998168945,0.0035268863893556587,-0.00015929593055300162,0.002941646856986388,-136.51456677922314,-107.45896758896781,0,0.23651409149169922,2019-08-06 13:46:48:249
0.2983810305595398,-0.04925042390823364,9.849282264709473,0.00033031263071992917,-0.00255672619263854,0.0002778355485848519,-137.34907175419858,-108.90412272547019,0,0.2399909496307373,2019-08-06 13:46:48:253
0.36064451932907104,-0.020513426512479782,9.798992156982422,0.000863074918407669,-0.00015929593055300162,0.002408884601807939,-138.15990676755433,-110.32379319920166,0,0.24312353134155273,2019-08-06 13:46:48:256
0.34148651361465454,-0.06122417002916336,9.791808128356934,0.004059648644534107,0.0011726098536849292,0.0037407904998283874,-138.9569670173178,-111.71086454437891,0,0.2462472915649414,2019-08-06 13:46:48:259
0.29598626494407654,-0.037276674062013626,9.861255645751953,-0.001534355424951096,-0.004421394085763112,0.004806315010185286,-139.74251753416138,-113.07199432594119,0,0.24997615814208984,2019-08-06 13:46:48:263
0.2840125262737274,-0.03488192334771156,9.839703559875488,0.005924316797733005,-0.0054869185961200105,0.003208027984575613,-140.5136389247441,-114.40753064843555,0,0.2530980110168457,2019-08-06 13:46:48:266
0.3366970121860504,-0.09475066512823105,9.810966491699219,0.004059648644534107,-0.004155012958173888,0.004007171627417612,-141.26330701449098,-115.70904490337465,0,0.25630640983581543,2019-08-06 13:46:48:269
0.2720387876033783,-0.05643467232584953,9.84449291229248,0.005125173414965331,-0.00255672619263854,0.004007171627417612,-142.00584934721505,-116.98936505223077,0,0.2600247859954834,2019-08-06 13:46:48:273
0.3031705319881439,-0.006144927814602852,9.906756401062012,0.004858792287376107,-0.0030894884478169893,0.0013433600914510408,-142.73013252378902,-118.24972094894326,0,0.2631549835205078,2019-08-06 13:46:48:276
0.2983810305595398,-0.08277691900730133,9.758281707763672,0.004326029772123333,-0.0006920582344953867,1.1454389502251989e-05,-143.44036268327858,-119.47587641200032,0,0.2667372226715088,2019-08-06 13:46:48:280
0.29598626494407654,-0.07319791615009308,9.899572372436523,0.0037932675169448835,-0.006286061978887684,0.005339077265363735,-144.1361590446259,-120.67857701087736,0,0.26998114585876465,2019-08-06 13:46:48:283
0.3558550179004669,-0.022908175364136696,9.856466293334961,0.0013958372386046994,-0.0030894884478169893,0.005871839520542184,-144.8115392584343,-121.86258738490129,0,0.27310991287231445,2019-08-06 13:46:48:286
0.2911967635154724,-0.010934427380561829,9.79420280456543,0.0019285994937831485,-0.005753299723709235,0.005605458392952959,-145.48029276768844,-123.02437674987272,0,0.27606892585754395,2019-08-06 13:46:48:289
0.31514427065849304,-0.06601367145776749,9.892387390136719,0.0016622183661939237,-0.004155012958173888,0.002941646856986388,-146.13331590024356,-124.1565935269521,0,0.2798306941986084,2019-08-06 13:46:48:293
0.2983810305595398,-0.04446092247962952,9.854071617126465,0.003260505261766434,-0.003622250702995438,0.0026752657293971638,-146.77526321877443,-125.26892028972385,0,0.2832658290863037,2019-08-06 13:46:48:296
0.2983810305595398,-0.09475066512823105,9.849282264709473,0.0035268863893556587,-0.0017575828098708665,0.0008105978362725917,-147.40473399510844,-126.35315939375005,0,0.2865023612976074,2019-08-06 13:46:48:299
0.2840125262737274,-0.00853967759758234,9.858860969543457,0.0024613618789987605,-0.0033558695754062136,0.004806315010185286,-148.02298103682594,-127.42558480057697,0,0.28998398780822754,2019-08-06 13:46:48:303
0.3558550179004669,-0.09235591441392899,9.820545196533203,0.005391554542554556,-0.00255672619263854,0.0021425034742187147,-148.6205676871093,-128.46724314409622,0,0.2931098937988281,2019-08-06 13:46:48:306
0.3558550179004669,-0.0324871726334095,9.868440628051758,0.0024613618789987605,-0.006818824754214785,0.0013433600914510408,-149.20562128377662,-129.49457038143308,0,0.2963259220123291,2019-08-06 13:46:48:309
0.3175390064716339,-0.0324871726334095,9.868440628051758,0.004858792287376107,-0.002023963937460091,0.0005442166761740764,-149.78422875978328,-130.50191591315695,0,0.30002546310424805,2019-08-06 13:46:48:313
0.2792230248451233,-0.06122417002916336,9.868440628051758,0.0013958372386046994,-0.0017575828098708665,0.0002778355485848519,-150.35582111400862,-131.48501343576038,0,0.30315208435058594,2019-08-06 13:46:48:316
0.3438812792301178,-0.0779874175786972,9.825334548950195,0.004059648644534107,-0.0012248205546924172,0.003208027984575613,-150.90841051881998,-132.44689435855236,0,0.3061201572418213,2019-08-06 13:46:48:319
0.26724928617477417,-0.030092423781752586,9.858860969543457,0.005391554542554556,-0.003622250702995438,0.006404601775720633,-151.45839506429712,-133.39563751162046,0,0.3100137710571289,2019-08-06 13:46:48:323
0.3175390064716339,-0.037276674062013626,9.820545196533203,0.0024613618789987605,-0.00255672619263854,1.1454389502251989e-05,-151.99173468822835,-134.3238114004406,0,0.3131704330444336,2019-08-06 13:46:48:326
0.29359152913093567,-0.05164517089724541,9.820545196533203,0.0024613618789987605,-0.0014912016822816417,0.004539933882596061,-152.5174025929265,-135.23172116343676,0,0.31615281105041504,2019-08-06 13:46:48:329
0.24809128046035767,-0.030092423781752586,9.815755844116211,0.00033031263071992917,-0.006286061978887684,0.0037407904998283874,-153.03672968004494,-136.1236455837796,0,0.32002925872802734,2019-08-06 13:46:48:333
0.3630392551422119,-0.04446092247962952,9.83491325378418,0.005125173414965331,-0.0030894884478169893,1.1454389502251989e-05,-153.5331734262074,-136.996890328222,0,0.3231496810913086,2019-08-06 13:46:48:336
0.45882925391197205,-0.0588294193148613,9.935493469238281,0.0011294561110154748,-0.003622250702995438,0.003208027984575613,-154.00903185488716,-137.85035342608654,0,0.3260817527770996,2019-08-06 13:46:48:339
0.30077576637268066,-0.006144927814602852,9.818150520324707,0.000863074918407669,-0.002023963937460091,0.0008105978362725917,-154.4933298086851,-138.6928115174267,0,0.32984471321105957,2019-08-06 13:46:48:343
0.3247232735157013,-0.0324871726334095,9.95465087890625,0.004858792287376107,-0.0009584393620846114,0.004806315010185286,-154.96591154785688,-139.51615269557598,0,0.3332796096801758,2019-08-06 13:46:48:346
0.2983810305595398,0.0297763179987669,9.842098236083984,0.0035268863893556587,-0.003888631830584663,0.002941646856986388,-155.43115874212916,-133.12993563793833,0,0.33650708198547363,2019-08-06 13:46:48:349
0.30077576637268066,-0.006144927814602852,9.861255645751953,0.0011294561110154748,-0.007085205881804008,0.005339077265363735,-155.88621218058793,-134.06684331401183,0,0.3399832248687744,2019-08-06 13:46:48:353
0.2911967635154724,-0.022908175364136696,9.880414009094238,0.0035268863893556587,-0.00255672619263854,0.004007171627417612,-156.33427663163502,-134.9834683024478,0,0.3431074619293213,2019-08-06 13:46:48:356
0.31514427065849304,-0.0324871726334095,9.870835304260254,-0.0004688308170663259,-0.004687775213352337,0.003474409372239163,-156.77017264484334,-135.87994292562175,0,0.34631943702697754,2019-08-06 13:46:48:359
0.2792230248451233,-0.04685567319393158,9.827729225158691,0.0035268863893556587,-0.004421394085763112,0.0037407904998283874,-157.20130084194236,-136.75761430567334,0,0.3500237464904785,2019-08-06 13:46:48:363
0.3438812792301178,-0.05403992161154747,9.949861526489258,0.003260505261766434,-0.00015929593055300162,0.0008105978362725917,-157.61765808610474,-137.6168121660625,0,0.35315799713134766,2019-08-06 13:46:48:366
0.2792230248451233,0.0010393214179202914,9.945072174072266,0.0016622183661939237,-0.00255672619263854,0.0021425034742187147,-158.03271618030968,-131.26487125172756,0,0.3561105728149414,2019-08-06 13:46:48:369
0.32232850790023804,-0.010934427380561829,9.818150520324707,0.0024613618789987605,-0.0030894884478169893,0.00800288854125598,-158.43372197650262,-132.23888171010475,0,0.3603367805480957,2019-08-06 13:46:48:373
0.3295127749443054,-0.037276674062013626,9.849282264709473,0.0011294561110154748,-0.0030894884478169893,0.0008105978362725917,-158.82621500666147,-133.18995345014105,0,0.36327457427978516,2019-08-06 13:46:48:376
0.32232850790023804,-0.07559266686439514,9.861255645751953,0.004858792287376107,-0.003622250702995438,0.002408884601807939,-159.21158981268948,-134.11825358398298,0,0.36651182174682617,2019-08-06 13:46:48:379
0.26245978474617004,-0.01811867579817772,9.878019332885742,0.003260505261766434,-0.0033558695754062136,0.0018761223466294901,-159.5962627772642,-135.03442333550322,0,0.36998963356018066,2019-08-06 13:46:48:383
0.30077576637268066,-0.01811867579817772,9.906756401062012,0.0013958372386046994,-0.002023963937460091,0.0008105978362725917,-159.9692027101884,-135.9318837231199,0,0.3731110095977783,2019-08-06 13:46:48:386
0.3175390064716339,-0.08277691900730133,9.875624656677246,0.0016622183661939237,-0.004421394085763112,0.006670982903309857,-160.3322294589545,-136.8039256160675,0,0.3761575222015381,2019-08-06 13:46:48:389
0.3055652678012848,-0.027697674930095673,9.88520336151123,-0.0012679742973618717,-0.00255672619263854,-0.0005213078992014032,-160.68961616911372,-137.66435952912616,0,0.38004541397094727,2019-08-06 13:46:48:393
0.29598626494407654,-0.04925042390823364,9.849282264709473,0.0035268863893556587,-0.004954156340941561,0.004539933882596061,-161.04052426300584,-138.5059641162405,0,0.38318514823913574,2019-08-06 13:46:48:396
0.4085395038127899,-0.0779874175786972,9.825334548950195,-0.00020244967322245603,-0.004155012958173888,0.0037407904998283874,-161.37139354547222,-139.32671533794488,0,0.3861865997314453,2019-08-06 13:46:48:399
0.3031705319881439,-0.05164517089724541,9.810966491699219,0.0024613618789987605,-0.0017575828098708665,0.004007171627417612,-161.70818704896354,-140.13468074971138,0,0.39003443717956543,2019-08-06 13:46:48:403
0.31514427065849304,-0.05403992161154747,9.880414009094238,0.0019285994937831485,-0.004155012958173888,0.0002778355485848519,-162.03673164268625,-140.92606974947478,0,0.3932666778564453,2019-08-06 13:46:48:406
0.3103547692298889,-0.027697674930095673,9.866044998168945,0.0035268863893556587,-0.0017575828098708665,0.006138220648131409,-162.35964354718578,-141.70497035790476,0,0.39649343490600586,2019-08-06 13:46:48:409
0.29359152913093567,-0.03488192334771156,9.820545196533203,0.000863074918407669,-0.002023963937460091,1.1454389502251989e-05,-162.67780103495312,-142.46697215744288,0,0.40003037452697754,2019-08-06 13:46:48:413
0.32232850790023804,0.005828820634633303,9.947466850280762,0.0035268863893556587,-0.0054869185961200105,0.0026752657293971638,-162.9861285692615,-136.01894582752033,0,0.4032704830169678,2019-08-06 13:46:48:416
0.2720387876033783,-0.04685567319393158,9.846887588500977,-0.0004688308170663259,-0.003622250702995438,0.005605458392952959,-163.29413125686762,-136.89303334125918,0,0.4063420295715332,2019-08-06 13:46:48:419
0.25527551770210266,-0.0588294193148613,9.909151077270508,0.002994124134177209,-0.004687775213352337,0.0010769789638618162,-163.59772091287445,-137.7490170117131,0,0.41019296646118164,2019-08-06 13:46:48:423
0.2648545205593109,-0.013329177163541317,9.818150520324707,0.00033031263071992917,-0.002023963937460091,0.0026752657293971638,-163.89449215500565,-138.592541290733,0,0.41344523429870605,2019-08-06 13:46:48:426
0.3510655164718628,0.008223570883274078,9.820545196533203,0.004059648644534107,0.0009062286610771233,0.002941646856986388,-164.17581980570213,-132.22238616943412,0,0.4166746139526367,2019-08-06 13:46:48:429
0.2911967635154724,-0.02530292607843876,9.90196704864502,0.00033031263071992917,-0.003888631830584663,0.004806315010185286,-164.45788525741403,-133.1750721519084,0,0.4200124740600586,2019-08-06 13:46:48:433
0.3103547692298889,-0.042066171765327454,9.78222942352295,0.005391554542554556,-0.0006920582344953867,0.0008105978362725917,-164.732258772284,-134.1076184804584,0,0.4232347011566162,2019-08-06 13:46:48:436
0.3486707806587219,-0.037276674062013626,9.906756401062012,6.393147468507523e-05,-0.0014912016822816417,0.0037407904998283874,-164.99702817319422,-135.0211659645586,0,0.42647457122802734,2019-08-06 13:46:48:439
0.3438812792301178,-0.07319791615009308,9.878019332885742,0.0016622183661939237,-0.004155012958173888,0.003474409372239163,-165.25638597462458,-135.91258149479808,0,0.4300117492675781,2019-08-06 13:46:48:443
0.3845919966697693,-0.01811867579817772,9.897176742553711,0.0037932675169448835,-0.0030894884478169893,0.006138220648131409,-165.5061936444744,-136.7929173407079,0,0.4332292079925537,2019-08-06 13:46:48:446
0.3821972608566284,-0.010934427380561829,9.779834747314453,-0.001534355424951096,-0.004421394085763112,0.005871839520542184,-165.75050473368015,-137.6554983378346,0,0.43647289276123047,2019-08-06 13:46:48:449
0.3319075107574463,-0.03488192334771156,9.923519134521484,0.002994124134177209,-0.002023963937460091,0.004539933882596061,-165.9967797939911,-138.49895539718875,0,0.44001197814941406,2019-08-06 13:46:48:453
0.3319075107574463,-0.07319791615009308,9.856466293334961,0.004592411159786882,-0.004954156340941561,0.004539933882596061,-166.237375165738,-139.3212969601317,0,0.44323277473449707,2019-08-06 13:46:48:456
0.2648545205593109,-0.042066171765327454,9.875624656677246,0.0016622183661939237,-0.004155012958173888,0.004539933882596061,-166.48114794035712,-140.13029185576073,0,0.44646787643432617,2019-08-06 13:46:48:459
0.36064451932907104,-0.08277691900730133,9.851676940917969,0.004858792287376107,-0.00255672619263854,-0.00025492675535753324,-166.70908346737224,-140.91902941775496,0,0.4500288963317871,2019-08-06 13:46:48:463
0.3055652678012848,-0.03488192334771156,9.842098236083984,6.393147468507523e-05,-0.0022903450650493154,0.006138220648131409,-166.93890607810332,-141.69659955147858,0,0.45337390899658203,2019-08-06 13:46:48:466
0.31514427065849304,-0.0037501780316233635,9.849282264709473,0.0005966937908184444,-0.0014912016822816417,0.002941646856986388,-167.16319962493253,-142.46234142474407,0,0.4566624164581299,2019-08-06 13:46:48:469
0.2864072620868683,-0.01811867579817772,9.779834747314453,0.0035268863893556587,-0.0017575828098708665,-0.00025492675535753324,-167.3860577019706,-143.21163144059884,0,0.4599943161010742,2019-08-06 13:46:48:473
0.26964402198791504,-0.03488192334771156,9.83491325378418,0.0016622183661939237,-0.003888631830584663,0.004007171627417612,-167.6062441391453,-143.94362637713314,0,0.4631209373474121,2019-08-06 13:46:48:476
0.24809128046035767,0.024986818432807922,9.894782066345215,0.0005966937908184444,-0.005753299723709235,0.0069373640308990825,-167.8244415982836,-137.46774632526152,0,0.4660685062408447,2019-08-06 13:46:48:479
0.34148651361465454,-0.05643467232584953,9.887598037719727,0.0024613618789987605,-0.0054869185961200105,0.0005442166761740764,-168.02723240277663,-138.31237127487398,0,0.4698328971862793,2019-08-06 13:46:48:483
0.3175390064716339,-0.03967142477631569,9.878019332885742,0.000863074918407669,-0.0017575828098708665,0.006404601775720633,-168.2295251562435,-139.14168802501274,0,0.4732644557952881,2019-08-06 13:46:48:486
0.2720387876033783,-0.05164517089724541,9.846887588500977,0.0021949807514095357,-0.004421394085763112,0.002941646856986388,-168.43248183714007,-139.9532427396153,0,0.4764981269836426,2019-08-06 13:46:48:489
0.3558550179004669,-0.006144927814602852,9.729544639587402,0.0016622183661939237,-0.004155012958173888,0.0037407904998283874,-168.6211274319728,-140.75377897267978,0,0.4799783229827881,2019-08-06 13:46:48:493
0.29359152913093567,-0.022908175364136696,9.83491325378418,0.0013958372386046994,-0.0009584393620846114,0.004806315010185286,-168.81433881082995,-141.53627948958626,0,0.483107328414917,2019-08-06 13:46:48:496
0.30077576637268066,0.041750065982341766,9.722360610961914,6.393147468507523e-05,-0.004155012958173888,0.004539933882596061,-169.0018636940217,-135.11048622126108,0,0.48631787300109863,2019-08-06 13:46:48:499
0.3295127749443054,-0.09714541584253311,9.875624656677246,0.000863074918407669,-0.0030894884478169893,0.003474409372239163,-169.18296385202365,-135.99718391383843,0,0.4900176525115967,2019-08-06 13:46:48:503
0.3055652678012848,-0.001355428365059197,9.700807571411133,0.00565793567014378,-0.004954156340941561,0.003208027984575613,-169.36234969403662,-136.8780756246317,0,0.4931511878967285,2019-08-06 13:46:48:506
0.2983810305595398,-0.010934427380561829,9.858860969543457,-0.0007352119771648412,-0.0009584393620846114,0.003208027984575613,-169.54027182002096,-137.7391204272682,0,0.4961247444152832,2019-08-06 13:46:48:509
0.34148651361465454,-0.05403992161154747,9.858860969543457,0.0013958372386046994,-0.007351587009393233,0.003474409372239163,-169.70845416544265,-138.5783106523504,0,0.4993622303009033,2019-08-06 13:46:48:512
0.2528807818889618,-0.04925042390823364,9.832518577575684,-0.0012679742973618717,-0.00255672619263854,-0.0007876890592999184,-169.8841805108664,-139.4006875369884,0,0.5038166046142578,2019-08-06 13:46:48:517
0.2983810305595398,-0.0588294193148613,9.796597480773926,0.00565793567014378,-0.0030894884478169893,-0.0013204513144783674,-170.05113999481756,-140.20664564811733,0,0.5065019130706787,2019-08-06 13:46:48:519
0.3319075107574463,-0.03488192334771156,9.96423053741455,0.005125173414965331,-0.003888631830584663,0.004806315010185286,-170.21114069606787,-140.99958234109764,0,0.510258674621582,2019-08-06 13:46:48:523
0.3821972608566284,-0.001355428365059197,9.820545196533203,0.0019285994937831485,-0.004421394085763112,0.0013433600914510408,-170.36148262612002,-141.77980803951985,0,0.5137262344360352,2019-08-06 13:46:48:527
0.3893814980983734,-0.05403992161154747,9.837308883666992,0.005391554542554556,0.00010708522141819095,0.0018761223466294901,-170.50893850146218,-142.53890512241804,0,0.5169901847839355,2019-08-06 13:46:48:530
0.3774077594280243,-0.06122417002916336,9.83491325378418,0.00033031263071992917,0.00010708522141819095,0.0026752657293971638,-170.6548259590342,-143.28105018358306,0,0.5200424194335938,2019-08-06 13:46:48:533
0.3366970121860504,-0.04446092247962952,9.777440071105957,0.000863074918407669,-0.005220537468530785,-0.0015868324420675922,-170.80133367052014,-144.01037553365418,0,0.523284912109375,2019-08-06 13:46:48:536
0.29359152913093567,-0.09475066512823105,9.870835304260254,0.003260505261766434,-0.0017575828098708665,0.004539933882596061,-170.95091271155366,-144.71976411588133,0,0.5265374183654785,2019-08-06 13:46:48:539
0.2768282890319824,-0.09475066512823105,9.858860969543457,0.002727743006587985,-0.008683492647339357,0.002408884601807939,-171.09803774878964,-145.41488662438223,0,0.530001163482666,2019-08-06 13:46:48:543
0.34627601504325867,-0.015723926946520805,9.832518577575684,0.0037932675169448835,-0.0009584393620846114,0.0037407904998283874,-171.23556390365945,-146.10544328904868,0,0.5332262516021729,2019-08-06 13:46:48:546
0.3558550179004669,-0.015723926946520805,9.810966491699219,0.0037932675169448835,-0.004421394085763112,0.005605458392952959,-171.36854817138845,-146.78214904496284,0,0.5362834930419922,2019-08-06 13:46:48:549
0.39896050095558167,-0.01811867579817772,9.837308883666992,0.004592411159786882,-0.004421394085763112,-0.0005213078992014032,-171.49379760023945,-147.44536298300488,0,0.5400354862213135,2019-08-06 13:46:48:553
0.3582497537136078,-0.027697674930095673,9.868440628051758,0.0019285994937831485,-0.008683492647339357,0.003208027984575613,-171.62076449413593,-148.09358946913073,0,0.5432672500610352,2019-08-06 13:46:48:556
0.33430227637290955,-0.08756642043590546,9.906756401062012,0.004592411159786882,-0.003622250702995438,0.002941646856986388,-171.74903182184718,-148.72243004127594,0,0.5465283393859863,2019-08-06 13:46:48:559
0.34627601504325867,-0.015723926946520805,9.854071617126465,-0.0004688308170663259,-0.003888631830584663,0.0021425034742187147,-171.87303873150677,-149.3460611697402,0,0.5500140190124512,2019-08-06 13:46:48:563
0.2768282890319824,-0.03967142477631569,9.906756401062012,0.0019285994937831485,-0.0030894884478169893,0.0018761223466294901,-172.0030074651006,-149.9548995417516,0,0.5532310009002686,2019-08-06 13:46:48:566
0.2456965297460556,-0.01811867579817772,9.849282264709473,0.002727743006587985,-0.0033558695754062136,0.003474409372239163,-172.13375905211183,-150.55418822697138,0,0.5564608573913574,2019-08-06 13:46:48:569
0.22414378821849823,-0.042066171765327454,9.86365032196045,6.393147468507523e-05,-0.0006920582344953867,0.0042735527550068365,-172.26491047046113,-151.13823016241545,0,0.5600080490112305,2019-08-06 13:46:48:573
0.2768282890319824,-0.030092423781752586,9.803781509399414,-0.0012679742973618717,-0.0033558695754062136,0.0013433600914510408,-172.3866571350661,-151.7117190075854,0,0.5632274150848389,2019-08-06 13:46:48:576
0.30077576637268066,-0.10911916196346283,9.849282264709473,0.003260505261766434,-0.004954156340941561,-0.0007876890592999184,-172.50304334541494,-152.26538050061757,0,0.5664546489715576,2019-08-06 13:46:48:579
0.26964402198791504,-0.03488192334771156,9.8229398727417,6.393147468507523e-05,-0.003888631830584663,0.002941646856986388,-172.62075757840083,-152.8160164568826,0,0.5700128078460693,2019-08-06 13:46:48:583
0.34148651361465454,-0.020513426512479782,9.808571815490723,0.0035268863893556587,-0.002023963937460091,0.0010769789638618162,-172.72809621656708,-153.35793935280552,0,0.5732433795928955,2019-08-06 13:46:48:586
0.36543402075767517,-0.010934427380561829,9.8229398727417,0.0037932675169448835,-0.0030894884478169893,0.002408884601807939,-172.83036317565197,-153.89019291961984,0,0.5764732360839844,2019-08-06 13:46:48:589
0.3175390064716339,-0.06601367145776749,9.851676940917969,0.005391554542554556,-0.0054869185961200105,0.002941646856986388,-172.93574387718195,-154.40578143237184,0,0.580010175704956,2019-08-06 13:46:48:593
0.38698676228523254,-0.0588294193148613,9.8229398727417,-0.00020244967322245603,-0.006552443626625559,0.002941646856986388,-173.03072215354376,-154.91076639082868,0,0.5832321643829346,2019-08-06 13:46:48:596
0.3558550179004669,0.0010393214179202914,9.73672866821289,0.0013958372386046994,-0.006552443626625559,0.004539933882596061,-173.1270429672723,-148.21292960745168,0,0.5865013599395752,2019-08-06 13:46:48:599
0.3031705319881439,-0.0779874175786972,9.851676940917969,0.004858792287376107,-0.0054869185961200105,0.00507269613777451,-173.22816573399456,-148.84055957349847,0,0.5900187492370605,2019-08-06 13:46:48:603
0.3366970121860504,-0.037276674062013626,9.849282264709473,0.002994124134177209,-0.005220537468530785,0.0008105978362725917,-173.32347876988544,-149.4599653898956,0,0.5933136940002441,2019-08-06 13:46:48:606
0.3247232735157013,-0.03488192334771156,9.868440628051758,0.0021949807514095357,0.00010708522141819095,0.002408884601807939,-173.41933621104477,-150.06712616936724,0,0.5966446399688721,2019-08-06 13:46:48:609
0.3247232735157013,-0.03488192334771156,9.868440628051758,0.0021949807514095357,-0.0033558695754062136,0.0018761223466294901,-173.51262239509464,-150.66214793524472,0,0.6000096797943115,2019-08-06 13:46:48:613
0.33909177780151367,-0.09235591441392899,9.84449291229248,0.002727743006587985,-0.004421394085763112,1.1454389502251989e-05,-173.60211533047234,-151.2386480664612,0,0.6032295227050781,2019-08-06 13:46:48:616
0.36064451932907104,-0.07319791615009308,9.854071617126465,0.005391554542554556,-0.00015929593055300162,0.0021425034742187147,-173.68812399691174,-151.80634176770252,0,0.6064620018005371,2019-08-06 13:46:48:619
0.3558550179004669,-0.006144927814602852,9.787018775939941,0.000863074918407669,0.0009062286610771233,0.003474409372239163,-173.7728950461376,-152.3696674121386,0,0.6100103855133057,2019-08-06 13:46:48:623
0.3630392551422119,-0.07319791615009308,9.84449291229248,0.00033031263071992917,-0.002023963937460091,0.0013433600914510408,-173.85483255287838,-152.9138134855219,0,0.6132252216339111,2019-08-06 13:46:48:626
0.3558550179004669,-0.042066171765327454,9.875624656677246,0.00033031263071992917,-0.003622250702995438,0.0005442166761740764,-173.93580393825513,-153.4507161358051,0,0.6164617538452148,2019-08-06 13:46:48:629
0.31993377208709717,-0.030092423781752586,9.772649765014648,0.00033031263071992917,-0.00015929593055300162,0.003474409372239163,-174.01955491168488,-153.97823907208252,0,0.6200098991394043,2019-08-06 13:46:48:633
0.2911967635154724,-0.0588294193148613,9.798992156982422,0.0013958372386046994,-0.004954156340941561,-0.0005213078992014032,-174.10422668931196,-154.49204660503005,0,0.6232235431671143,2019-08-06 13:46:48:636
0.3319075107574463,-0.12109291553497314,9.849282264709473,0.004059648644534107,-0.005220537468530785,0.0018761223466294901,-174.1826424720697,-154.98881650480564,0,0.626288652420044,2019-08-06 13:46:48:639
0.3582497537136078,-0.013329177163541317,9.856466293334961,0.0016622183661939237,-0.004421394085763112,0.003474409372239163,-174.25642004306525,-155.48784304424368,0,0.6300656795501709,2019-08-06 13:46:48:643
0.24809128046035767,0.01301306951791048,9.866044998168945,-0.0004688308170663259,-0.008150730392160906,0.002941646856986388,-174.3409989136336,-148.77951227772638,0,0.6333074569702148,2019-08-06 13:46:48:646
0.3366970121860504,-0.11630341410636902,9.882808685302734,0.0035268863893556587,-0.007085205881804008,0.0013433600914510408,-174.41386978622774,-149.3910764247072,0,0.6365351676940918,2019-08-06 13:46:48:649
0.32711800932884216,-0.010934427380561829,9.798992156982422,0.00033031263071992917,-0.003888631830584663,0.0026752657293971638,-174.4865777631439,-150.00204202604473,0,0.6400842666625977,2019-08-06 13:46:48:653
0.3558550179004669,-0.05643467232584953,9.849282264709473,0.0019285994937831485,-0.007617968136982457,0.003208027984575613,-174.5540987130498,-150.59578055380442,0,0.6432719230651855,2019-08-06 13:46:48:656
0.3247232735157013,-0.08996116369962692,9.918729782104492,0.0011294561110154748,-0.003622250702995438,-0.0010540701868891429,-174.62485957558403,-151.17367624568058,0,0.6464929580688477,2019-08-06 13:46:48:659
0.3247232735157013,0.03217106685042381,9.858860969543457,0.004592411159786882,-0.004687775213352337,-0.0007876890592999184,-174.69370894137987,-144.55484705458096,0,0.6500027179718018,2019-08-06 13:46:48:663
0.3774077594280243,-0.02530292607843876,9.825334548950195,0.0024613618789987605,-0.0017575828098708665,0.005605458392952959,-174.75552211790915,-145.26124400660348,0,0.6532220840454102,2019-08-06 13:46:48:666
0.3750130236148834,0.027381567284464836,9.751097679138184,0.0021949807514095357,-0.002023963937460091,0.005339077265363735,-174.81599694715877,-138.75963403861496,0,0.6564443111419678,2019-08-06 13:46:48:669
0.2864072620868683,-0.0588294193148613,9.990571975708008,0.004326029772123333,-0.0006920582344953867,0.005339077265363735,-174.88669676199402,-139.5785589438844,0,0.6600062847137451,2019-08-06 13:46:48:673
0.3127495348453522,-0.010934427380561829,9.88520336151123,0.003260505261766434,-0.004421394085763112,0.004007171627417612,-174.95192031589684,-140.38631013689752,0,0.6632285118103027,2019-08-06 13:46:48:676
0.3702235221862793,-0.04685567319393158,9.870835304260254,0.0019285994937831485,-0.006552443626625559,0.0010769789638618162,-175.00873171746474,-141.17349491112097,0,0.6664648056030273,2019-08-06 13:46:48:679
0.3366970121860504,-0.04446092247962952,9.892387390136719,0.0011294561110154748,-0.0028231073202277645,0.004806315010185286,-175.0690076818325,-141.9450996608159,0,0.6700108051300049,2019-08-06 13:46:48:683
0.3774077594280243,-0.08277691900730133,9.88520336151123,0.0035268863893556587,-0.009482635509958379,-0.0005213078992014032,-175.12218349851133,-142.6972401698535,0,0.6732323169708252,2019-08-06 13:46:48:686
0.35346025228500366,-0.01811867579817772,9.842098236083984,0.003260505261766434,-0.003622250702995438,0.0037407904998283874,-175.177946191663,-143.4417780400739,0,0.6764671802520752,2019-08-06 13:46:48:689
0.3127495348453522,-0.02530292607843876,9.796597480773926,0.0021949807514095357,-0.0028231073202277645,0.0016097412190402653,-175.2372538219811,-144.17042076020215,0,0.680020809173584,2019-08-06 13:46:48:693
0.32232850790023804,-0.06361892074346542,9.842098236083984,-0.0007352119771648412,-0.006019680851298459,0.002408884601807939,-175.2939049611882,-144.87947235520954,0,0.6832411289215088,2019-08-06 13:46:48:696
0.3558550179004669,-0.04446092247962952,9.894782066345215,0.0013958372386046994,-0.0012248205546924172,0.0037407904998283874,-175.34660837739557,-145.57698992184308,0,0.6865074634552002,2019-08-06 13:46:48:699
0.2792230248451233,-0.006144927814602852,9.837308883666992,0.004326029772123333,-0.007351587009393233,0.0042735527550068365,-175.4057037835553,-146.26559074304348,0,0.6900331974029541,2019-08-06 13:46:48:703
0.3103547692298889,-0.013329177163541317,9.849282264709473,-0.0007352119771648412,-0.007085205881804008,0.0005442166761740764,-175.46021860362623,-146.938595862901,0,0.6932375431060791,2019-08-06 13:46:48:706
0.3295127749443054,-0.020513426512479782,9.921124458312988,0.0021949807514095357,-0.0014912016822816417,1.1454389502251989e-05,-175.51269768004926,-147.5978534320206,0,0.6964735984802246,2019-08-06 13:46:48:709
0.32711800932884216,0.008223570883274078,9.83491325378418,0.0016622183661939237,-0.004421394085763112,0.007736507413666756,-175.56346693251223,-141.0471841133938,0,0.7000048160552979,2019-08-06 13:46:48:713
0.32232850790023804,0.0010393214179202914,9.858860969543457,0.0021949807514095357,-0.0012248205546924172,0.0018761223466294901,-175.61452434618275,-134.62675851313207,0,0.703228235244751,2019-08-06 13:46:48:716
0.30796003341674805,-0.0851716697216034,9.75349235534668,0.002994124134177209,-0.007085205881804008,0.0042735527550068365,-175.66477532991843,-135.5247616977733,0,0.7064683437347412,2019-08-06 13:46:48:719
0.3774077594280243,-0.010934427380561829,9.856466293334961,0.0037932675169448835,-0.0022903450650493154,0.0018761223466294901,-175.70716808811014,-136.41374983212853,0,0.7100112438201904,2019-08-06 13:46:48:723
0.26724928617477417,-0.04446092247962952,9.918729782104492,0.0024613618789987605,-0.002023963937460091,0.006404601775720633,-175.76179086405838,-137.2807832441462,0,0.7132308483123779,2019-08-06 13:46:48:726
0.3055652678012848,-0.05403992161154747,9.870835304260254,0.003260505261766434,-0.0012248205546924172,0.003474409372239163,-175.81086998261893,-138.1294877165364,0,0.7164733409881592,2019-08-06 13:46:48:729
0.3965657651424408,0.020197318866848946,9.820545196533203,0.0019285994937831485,-0.0028231073202277645,0.0037407904998283874,-175.84784423587666,-131.76963724645938,0,0.720005989074707,2019-08-06 13:46:48:733
0.2864072620868683,-0.08277691900730133,9.84449291229248,0.0013958372386046994,-0.003622250702995438,0.004007171627417612,-175.8969035349055,-132.7248617328425,0,0.7232260704040527,2019-08-06 13:46:48:736
0.35346025228500366,-0.07559266686439514,9.86365032196045,0.0013958372386046994,-0.0054869185961200105,0.007470126286077531,-175.93697413666266,-133.66182315746332,0,0.726294755935669,2019-08-06 13:46:48:739
0.31993377208709717,-0.07319791615009308,9.806177139282227,0.004326029772123333,-0.003888631830584663,0.003474409372239163,-175.98003848257346,-134.5809488676773,0,0.7300643920898438,2019-08-06 13:46:48:743
0.3630392551422119,-0.07319791615009308,9.825334548950195,0.00033031263071992917,-0.0014912016822816417,-0.00025492675535753324,-176.0178452668607,-135.48085308377694,0,0.733299970626831,2019-08-06 13:46:48:746
0.3319075107574463,-0.07080317288637161,9.851676940917969,-0.00020244967322245603,-0.0012248205546924172,0.0026752657293971638,-176.0586627173864,-136.36296191714808,0,0.7366998195648193,2019-08-06 13:46:48:750
0.3319075107574463,-0.07559266686439514,9.775045394897461,0.002727743006587985,-0.004687775213352337,0.004806315010185286,-176.09772258057333,-137.22734906610197,0,0.7400155067443848,2019-08-06 13:46:48:753
0.2983810305595398,-0.006144927814602852,9.858860969543457,0.0019285994937831485,-0.0006920582344953867,0.002941646856986388,-176.1409723955423,-138.08243585477186,0,0.7432291507720947,2019-08-06 13:46:48:756
0.36064451932907104,-0.10193491727113724,9.861255645751953,-0.0004688308170663259,-0.0028231073202277645,0.006404601775720633,-176.17575048874005,-138.90885716298015,0,0.7464644908905029,2019-08-06 13:46:48:759
0.25527551770210266,-0.03488192334771156,9.79420280456543,0.002727743006587985,-0.002023963937460091,0.0010769789638618162,-176.22197269243497,-139.72714129377874,0,0.7500059604644775,2019-08-06 13:46:48:763
0.3103547692298889,0.003434071084484458,9.839703559875488,0.000863074918407669,-0.005220537468530785,0.0018761223466294901,-176.26045909203435,-133.3331542477989,0,0.7532219886779785,2019-08-06 13:46:48:766
0.30077576637268066,-0.05164517089724541,9.935493469238281,0.0016622183661939237,-0.007351587009393233,0.0021425034742187147,-176.29923336927374,-134.26083699123933,0,0.7564609050750732,2019-08-06 13:46:48:769
0.3702235221862793,-0.05403992161154747,9.798992156982422,-0.0004688308170663259,-0.003888631830584663,0.0037407904998283874,-176.32920017636877,-135.16920740853405,0,0.760007381439209,2019-08-06 13:46:48:773
0.2768282890319824,-0.06601367145776749,9.810966491699219,0.002727743006587985,-0.0030894884478169893,0.007203745158488308,-176.36973333230898,-136.0586056996721,0,0.7632241249084473,2019-08-06 13:46:48:776
0.3175390064716339,-0.042066171765327454,9.92591381072998,0.004059648644534107,-0.0017575828098708665,0.002941646856986388,-176.40538922798387,-136.93327719933683,0,0.7662949562072754,2019-08-06 13:46:48:779
0.2720387876033783,-0.037276674062013626,9.897176742553711,0.0019285994937831485,0.0006398475334878987,0.0021425034742187147,-176.44592740316472,-137.79070335349945,0,0.77005934715271,2019-08-06 13:46:48:783
0.3510655164718628,-0.03488192334771156,9.854071617126465,0.0011294561110154748,-0.002023963937460091,0.003208027984575613,-176.4758327512888,-138.63103855536988,0,0.7733016014099121,2019-08-06 13:46:48:786
0.2792230248451233,-0.03488192334771156,9.813361167907715,0.00033031263071992917,0.002504515491631052,0.003474409372239163,-176.51417406019863,-139.45440452323533,0,0.7765321731567383,2019-08-06 13:46:48:789
0.3127495348453522,-0.08038216829299927,9.8229398727417,0.002727743006587985,-0.0033558695754062136,0.004007171627417612,-176.54676428704047,-140.2564712127155,0,0.7800037860870361,2019-08-06 13:46:48:793
0.3031705319881439,-0.09235591441392899,9.842098236083984,0.002727743006587985,-0.00255672619263854,0.005871839520542184,-176.58007152241686,-141.04109106348147,0,0.7832810878753662,2019-08-06 13:46:48:796
0.28161776065826416,0.008223570883274078,9.839703559875488,0.0035268863893556587,-0.0009584393620846114,0.0008105978362725917,-176.61550869084564,-134.6218658120188,0,0.7865071296691895,2019-08-06 13:46:48:799
0.32232850790023804,-0.022908175364136696,9.887598037719727,0.005391554542554556,-0.0028231073202277645,0.002941646856986388,-176.64530080553735,-135.52783335971904,0,0.7900078296661377,2019-08-06 13:46:48:803
0.3582497537136078,-0.02530292607843876,9.75349235534668,0.0013958372386046994,-0.003622250702995438,0.0026752657293971638,-176.6696695537439,-136.41455601309806,0,0.7932243347167969,2019-08-06 13:46:48:806
0.3175390064716339,-0.08277691900730133,9.980993270874023,0.006723460180500678,-0.004687775213352337,0.0042735527550068365,-176.69898303496072,-137.2779789609737,0,0.7964491844177246,2019-08-06 13:46:48:809
0.3103547692298889,-0.022908175364136696,9.820545196533203,0.0013958372386046994,-0.007351587009393233,0.00507269613777451,-176.72733263703842,-138.1300252270566,0,0.8000075817108154,2019-08-06 13:46:48:813
0.35346025228500366,-0.027697674930095673,9.928308486938477,0.0037932675169448835,-0.004421394085763112,0.0026752657293971638,-176.75120656916576,-138.9649147578689,0,0.8032324314117432,2019-08-06 13:46:48:816
0.2576702833175659,-0.013329177163541317,9.882808685302734,0.005125173414965331,-0.004155012958173888,0.0021425034742187147,-176.78555886363023,-139.78500021539298,0,0.8064615726470947,2019-08-06 13:46:48:819
0.2911967635154724,-0.015723926946520805,9.9139404296875,0.0011294561110154748,-0.002023963937460091,0.0018761223466294901,-176.815795939909,-140.58770767065442,0,0.8100082874298096,2019-08-06 13:46:48:823
0.2840125262737274,-0.05403992161154747,9.660097122192383,0.002727743006587985,-0.004954156340941561,0.0016097412190402653,-176.8449029876312,-141.37003658802374,0,0.8132297992706299,2019-08-06 13:46:48:826
0.3366970121860504,-0.07080317288637161,9.8229398727417,0.005125173414965331,-0.002023963937460091,0.003208027984575613,-176.86837436171962,-142.13530777781946,0,0.8164665699005127,2019-08-06 13:46:48:829
0.28880202770233154,-0.0588294193148613,9.851676940917969,-0.00020244967322245603,-0.0033558695754062136,0.002941646856986388,-176.8967540325212,-142.88571843855036,0,0.8200218677520752,2019-08-06 13:46:48:833
0.30796003341674805,-0.042066171765327454,9.777440071105957,0.0021949807514095357,-0.0028231073202277645,0.004539933882596061,-176.9222241371338,-143.6234734593079,0,0.82326340675354,2019-08-06 13:46:48:836
0.36782875657081604,-0.09954016655683517,9.808571815490723,0.0019285994937831485,-0.0030894884478169893,0.0018761223466294901,-176.94031092592684,-144.3396975279138,0,0.8262388706207275,2019-08-06 13:46:48:839
0.3558550179004669,-0.06840842217206955,9.83491325378418,0.0021949807514095357,-0.004155012958173888,0.002408884601807939,-176.95917572927758,-145.0454003969179,0,0.8300304412841797,2019-08-06 13:46:48:843
0.3366970121860504,-0.030092423781752586,9.866044998168945,0.003260505261766434,-0.004954156340941561,0.0008105978362725917,-176.9800073411297,-145.7415853248627,0,0.833242654800415,2019-08-06 13:46:48:846
0.3055652678012848,-0.05164517089724541,9.791808128356934,0.005125173414965331,-0.0028231073202277645,0.005339077265363735,-177.00414662862312,-146.421640116955,0,0.8364756107330322,2019-08-06 13:46:48:849
0.31993377208709717,-0.0851716697216034,9.83491325378418,0.000863074918407669,-0.0033558695754062136,0.002941646856986388,-177.02613465302886,-147.08345482713102,0,0.8400051593780518,2019-08-06 13:46:48:853
0.3031705319881439,-0.037276674062013626,9.870835304260254,0.0011294561110154748,-0.0028231073202277645,0.0026752657293971638,-177.04991765230145,-147.73766229536994,0,0.8432223796844482,2019-08-06 13:46:48:856
0.3175390064716339,-0.08996116369962692,9.83491325378418,0.0019285994937831485,-0.0009584393620846114,0.004539933882596061,-177.07176021109726,-148.3727773511958,0,0.8464529514312744,2019-08-06 13:46:48:859
0.3175390064716339,-0.10911916196346283,9.760676383972168,0.002994124134177209,-0.003622250702995438,-0.0005213078992014032,-177.09233556650133,-148.99310932749285,0,0.8500082492828369,2019-08-06 13:46:48:863
0.33430227637290955,-0.08996116369962692,9.894782066345215,-0.00020244967322245603,-0.0030894884478169893,0.0021425034742187147,-177.11123001856603,-149.60279245394037,0,0.8532247543334961,2019-08-06 13:46:48:866
0.3821972608566284,-0.06840842217206955,9.775045394897461,0.002994124134177209,-0.0033558695754062136,0.004007171627417612,-177.12361433586887,-150.2032610311682,0,0.8564589023590088,2019-08-06 13:46:48:869
0.2720387876033783,-0.05164517089724541,9.78222942352295,0.0035268863893556587,-0.004155012958173888,0.006404601775720633,-177.14845402814376,-150.79384961658602,0,0.8600118160247803,2019-08-06 13:46:48:873
0.3438812792301178,-0.02530292607843876,9.837308883666992,-0.0004688308170663259,-0.00255672619263854,0.0008105978362725917,-177.1649825139831,-151.3749406157102,0,0.8632240295410156,2019-08-06 13:46:48:876
0.3175390064716339,-0.0037501780316233635,9.87322998046875,0.0021949807514095357,-0.002023963937460091,0.0013433600914510408,-177.18447281838158,-151.94740591277838,0,0.866464376449585,2019-08-06 13:46:48:879
0.2840125262737274,-0.042066171765327454,9.801386833190918,0.004326029772123333,-0.003888631830584663,0.004007171627417612,-177.20680987171687,-152.50440505692686,0,0.8700268268585205,2019-08-06 13:46:48:883
0.2768282890319824,-0.0037501780316233635,9.856466293334961,0.004326029772123333,-0.004421394085763112,0.0042735527550068365,-177.22970029367002,-153.0546614565739,0,0.8732399940490723,2019-08-06 13:46:48:886
0.35346025228500366,-0.020513426512479782,9.880414009094238,0.0019285994937831485,0.0003734663733893835,0.0013433600914510408,-177.2441992974802,-153.59154711362936,0,0.8765459060668945,2019-08-06 13:46:48:889
0.26724928617477417,-0.015723926946520805,9.866044998168945,0.0005966937908184444,-0.003888631830584663,0.0026752657293971638,-177.26752530274206,-154.1180060815287,0,0.880014181137085,2019-08-06 13:46:48:893
0.26245978474617004,-0.05403992161154747,9.837308883666992,6.393147468507523e-05,-0.0009584393620846114,0.002408884601807939,-177.29143573381776,-154.62936264724516,0,0.8832333087921143,2019-08-06 13:46:48:896
0.23132802546024323,-0.030092423781752586,9.796597480773926,0.003260505261766434,-0.003622250702995438,0.003208027984575613,-177.31789374743195,-155.13384927145842,0,0.8864767551422119,2019-08-06 13:46:48:899
0.30796003341674805,-0.030092423781752586,9.897176742553711,0.0011294561110154748,-0.0030894884478169893,0.002408884601807939,-177.33527734864975,-155.62791251780243,0,0.8900148868560791,2019-08-06 13:46:48:903
0.3175390064716339,-0.01811867579817772,9.815755844116211,0.004059648644534107,-0.0012248205546924172,0.0002778355485848519,-177.35129275109387,-156.1139738251429,0,0.8932383060455322,2019-08-06 13:46:48:906
0.3630392551422119,-0.037276674062013626,9.796597480773926,0.00033031263071992917,-0.004954156340941561,0.002941646856986388,-177.36092346696142,-156.5873939526454,0,0.8964660167694092,2019-08-06 13:46:48:909
0.36543402075767517,-0.042066171765327454,9.827729225158691,0.0035268863893556587,-0.004421394085763112,0.003208027984575613,-177.37023613144137,-157.05144217936285,0,0.9000058174133301,2019-08-06 13:46:48:913
0.36543402075767517,-0.09954016655683517,9.849282264709473,0.004326029772123333,-0.0022903450650493154,0.0013433600914510408,-177.37991990966802,-157.49961570862592,0,0.9032292366027832,2019-08-06 13:46:48:916
0.3103547692298889,-0.04446092247962952,9.880414009094238,-0.00020244967322245603,-0.003888631830584663,0.0026752657293971638,-177.39563321894587,-157.9444301810414,0,0.9064610004425049,2019-08-06 13:46:48:919
0.31993377208709717,-0.06361892074346542,9.813361167907715,0.004326029772123333,-0.0030894884478169893,0.002408884601807939,-177.40975656698959,-158.37897852713135,0,0.910024881362915,2019-08-06 13:46:48:923
0.34627601504325867,-0.0588294193148613,9.839703559875488,0.00033031263071992917,-0.003888631830584663,0.004007171627417612,-177.42054304122476,-158.8046080264929,0,0.9132688045501709,2019-08-06 13:46:48:926
0.31993377208709717,-0.0037501780316233635,9.892387390136719,0.0016622183661939237,-0.003888631830584663,0.004806315010185286,-177.43438308735526,-159.22838130350385,0,0.9164814949035645,2019-08-06 13:46:48:929
0.29598626494407654,-0.03488192334771156,9.820545196533203,-0.0007352119771648412,-0.0054869185961200105,0.0008105978362725917,-177.4496687711757,-159.63954251629931,0,0.9213495254516602,2019-08-06 13:46:48:934
0.3103547692298889,-0.03967142477631569,9.868440628051758,0.0013958372386046994,-0.002023963937460091,0.003474409372239163,-177.4642911362649,-160.0423919595875,0,0.92449951171875,2019-08-06 13:46:48:937
0.3319075107574463,-0.037276674062013626,9.79420280456543,0.0024613618789987605,-0.0017575828098708665,0.00507269613777451,-177.47596178949794,-160.43749846138584,0,0.926783561706543,2019-08-06 13:46:48:940
0.22893327474594116,-0.020513426512479782,9.810966491699219,-0.0007352119771648412,-0.0028231073202277645,-0.0005213078992014032,-177.499153881849,-160.82620819958848,0,0.9302799701690674,2019-08-06 13:46:48:943
0.30796003341674805,-0.04446092247962952,9.923519134521484,6.393147468507523e-05,-0.0054869185961200105,0.0026752657293971638,-177.51262354628872,-161.20456157485475,0,0.933516263961792,2019-08-06 13:46:48:946
0.28161776065826416,-0.0324871726334095,9.858860969543457,0.0011294561110154748,-0.0054869185961200105,0.0002778355485848519,-177.5286584169587,-161.57689779439843,0,0.9367249011993408,2019-08-06 13:46:48:950
0.2792230248451233,0.010618319734930992,9.933098793029785,0.003260505261766434,-0.0033558695754062136,0.005339077265363735,-177.5452636729715,-154.74718519420003,0,0.9400043487548828,2019-08-06 13:46:48:953
0.3510655164718628,-0.022908175364136696,9.86365032196045,0.0016622183661939237,-0.0022903450650493154,0.003474409372239163,-177.5531763085852,-155.24988062028535,0,0.9432239532470703,2019-08-06 13:46:48:956
0.30077576637268066,-0.07319791615009308,9.894782066345215,0.0024613618789987605,-0.003622250702995438,0.0018761223466294901,-177.56663187720434,-155.73685374021343,0,0.946462869644165,2019-08-06 13:46:48:959
0.3630392551422119,-0.00853967759758234,9.846887588500977,0.0021949807514095357,-0.0022903450650493154,0.0037407904998283874,-177.5726142366201,-156.22155991140346,0,0.9500088691711426,2019-08-06 13:46:48:963
0.3630392551422119,-0.04685567319393158,9.930704116821289,0.00033031263071992917,-0.004687775213352337,0.0021425034742187147,-177.57844211779926,-156.69178170089424,0,0.9532265663146973,2019-08-06 13:46:48:966
0.32711800932884216,-0.027697674930095673,9.767860412597656,0.0011294561110154748,-0.004687775213352337,0.0005442166761740764,-177.5876555514875,-157.15490302586284,0,0.956479549407959,2019-08-06 13:46:48:969
0.32711800932884216,-0.0324871726334095,9.971414566040039,0.0013958372386046994,-0.004155012958173888,0.004539933882596061,-177.59749675768964,-157.60834928527674,0,0.9600231647491455,2019-08-06 13:46:48:973
0.2648545205593109,-0.07319791615009308,9.76546573638916,0.002994124134177209,-0.008150730392160906,0.003208027984575613,-177.61300423751382,-158.04813358537876,0,0.9632377624511719,2019-08-06 13:46:48:976
0.34627601504325867,-0.020513426512479782,9.880414009094238,0.002727743006587985,-0.0028231073202277645,1.1454389502251989e-05,-177.62008620921173,-158.485288246037,0,0.9664790630340576,2019-08-06 13:46:48:979
0.3295127749443054,-0.06122417002916336,9.830123901367188,0.0019285994937831485,-0.006019680851298459,0.0013433600914510408,-177.6280873426673,-158.90882989354964,0,0.9700281620025635,2019-08-06 13:46:48:983
0.2768282890319824,-0.07319791615009308,9.937888145446777,0.000863074918407669,-0.00255672619263854,-0.00025492675535753324,-177.64315352071756,-159.32236840209382,0,0.9732315540313721,2019-08-06 13:46:48:986
0.3510655164718628,-0.09235591441392899,9.92591381072998,0.002994124134177209,-0.0022903450650493154,0.0018761223466294901,-177.64934879099752,-159.7258201409128,0,0.9765684604644775,2019-08-06 13:46:48:989
0.31514427065849304,-0.06840842217206955,9.878019332885742,-0.0020671176801295454,-0.006286061978887684,0.0010769789638618162,-177.65859694577048,-160.12296736013107,0,0.9800205230712891,2019-08-06 13:46:48:993
0.2456965297460556,-0.05164517089724541,9.839703559875488,0.000863074918407669,-0.004954156340941561,0.0021425034742187147,-177.67592179345039,-160.51464960713363,0,0.9832406044006348,2019-08-06 13:46:48:996
0.34627601504325867,0.0010393214179202914,9.937888145446777,0.0016622183661939237,-0.0017575828098708665,0.002408884601807939,-177.68218538712003,-153.7047656712694,0,0.9863393306732178,2019-08-06 13:46:48:999
0.36064451932907104,-0.0588294193148613,9.73672866821289,0.0005966937908184444,-0.00255672619263854,0.0026752657293971638,-177.6855848249988,-154.22387096590643,0,0.9900450706481934,2019-08-06 13:46:49:003
0.2911967635154724,-0.04446092247962952,9.854071617126465,6.393147468507523e-05,-0.0022903450650493154,0.0037407904998283874,-177.69760320261614,-154.73423492396645,0,0.9932870864868164,2019-08-06 13:46:49:006
0.3103547692298889,-0.07559266686439514,9.808571815490723,0.0016622183661939237,-0.0009584393620846114,0.0013433600914510408,-177.7072315370088,-155.23102009255655,0,0.9965124130249023,2019-08-06 13:46:49:009
0.3103547692298889,-0.08996116369962692,9.906756401062012,0.0035268863893556587,-0.0033558695754062136,0.003474409372239163,-177.71654292631067,-155.71668458451614,0,0.9999988079071045,2019-08-06 13:46:49:013
0.3103547692298889,0.005828820634633303,9.79420280456543,0.0013958372386046994,-0.0012248205546924172,0.002941646856986388,-177.72569114897507,-149.00328557478323,0,1.003223180770874,2019-08-06 13:46:49:016
0.3127495348453522,-0.05643467232584953,9.837308883666992,0.005125173414965331,-0.0028231073202277645,0.0013433600914510408,-177.73426504025957,-149.61754177106346,0,1.006335735321045,2019-08-06 13:46:49:019
0.3319075107574463,-0.027697674930095673,9.909151077270508,0.0016622183661939237,-0.007085205881804008,0.003474409372239163,-177.7397345662135,-150.22233443954153,0,1.0100483894348145,2019-08-06 13:46:49:023
0.30796003341674805,-0.0588294193148613,9.84449291229248,0.002727743006587985,-0.0028231073202277645,0.0008105978362725917,-177.748589520461,-150.8115375659561,0,1.0132970809936523,2019-08-06 13:46:49:026
0.30796003341674805,0.015407819300889969,9.887598037719727,0.0021949807514095357,-0.007351587009393233,0.004806315010185286,-177.75656565440488,-144.19750237612743,0,1.01662278175354,2019-08-06 13:46:49:029
0.28161776065826416,-0.05164517089724541,9.889992713928223,0.0035268863893556587,-0.006286061978887684,0.006138220648131409,-177.7676160297313,-144.90824013579842,0,1.0200145244598389,2019-08-06 13:46:49:033
0.3558550179004669,0.010618319734930992,9.870835304260254,0.00033031263071992917,-0.0028231073202277645,0.004539933882596061,-177.77045972472894,-138.4113677296367,0,1.0232336521148682,2019-08-06 13:46:49:036
0.3965657651424408,-0.0588294193148613,9.798992156982422,0.00033031263071992917,-0.0009584393620846114,0.0021425034742187147,-177.76852655666534,-139.23632078272627,0,1.0264668464660645,2019-08-06 13:46:49:039
0.34148651361465454,-0.08996116369962692,9.842098236083984,0.0016622183661939237,-0.0012248205546924172,0.0016097412190402653,-177.77316955776973,-140.04145043822285,0,1.0300021171569824,2019-08-06 13:46:49:043
0.34148651361465454,0.0010393214179202914,9.806177139282227,-0.0007352119771648412,-0.0012248205546924172,0.007470126286077531,-177.77759587592502,-133.64060992967543,0,1.0332226753234863,2019-08-06 13:46:49:046
0.2840125262737274,-0.006144927814602852,9.918729782104492,0.0019285994937831485,-0.0022903450650493154,0.0018761223466294901,-177.78882535893382,-134.5674376452767,0,1.0364532470703125,2019-08-06 13:46:49:049
0.31993377208709717,-0.0779874175786972,9.92591381072998,0.0005966937908184444,-0.0028231073202277645,0.004539933882596061,-177.79556354097926,-135.46720461702665,0,1.0400032997131348,2019-08-06 13:46:49:053
0.3031705319881439,-0.07080317288637161,9.801386833190918,0.0021949807514095357,-0.0033558695754062136,0.0002778355485848519,-177.8036122635134,-136.34997953484765,0,1.043222188949585,2019-08-06 13:46:49:056
0.3175390064716339,-0.037276674062013626,9.837308883666992,0.00033031263071992917,-0.0028231073202277645,0.0042735527550068365,-177.8100791250671,-137.21869443551418,0,1.0462796688079834,2019-08-06 13:46:49:059
0.30077576637268066,-0.010934427380561829,9.897176742553711,0.003260505261766434,-0.004155012958173888,0.00507269613777451,-177.81818952121554,-138.07374061075552,0,1.0500271320343018,2019-08-06 13:46:49:063
0.28880202770233154,-0.020513426512479782,9.803781509399414,0.0011294561110154748,-0.004687775213352337,0.0021425034742187147,-177.82722580494087,-138.91007361812567,0,1.0532679557800293,2019-08-06 13:46:49:066
0.3247232735157013,-0.04685567319393158,9.849282264709473,0.0013958372386046994,-0.003622250702995438,-0.0005213078992014032,-177.83229911842426,-139.72665809441114,0,1.0562961101531982,2019-08-06 13:46:49:069
0.29359152913093567,0.010618319734930992,9.83491325378418,0.00033031263071992917,-0.005753299723709235,0.005871839520542184,-177.8402540135471,-133.33343110431514,0,1.0600152015686035,2019-08-06 13:46:49:073
0.34148651361465454,-0.0588294193148613,9.842098236083984,0.002727743006587985,-0.004155012958173888,0.0018761223466294901,-177.84293481853976,-134.26041906672006,0,1.0633189678192139,2019-08-06 13:46:49:076
0.3319075107574463,-0.0588294193148613,9.815755844116211,0.002994124134177209,-0.0017575828098708665,0.0005442166761740764,-177.84702275804855,-135.16888872411468,0,1.066565752029419,2019-08-06 13:46:49:079
0.36782875657081604,0.02259206771850586,9.825334548950195,0.00033031263071992917,-0.0028231073202277645,0.0013433600914510408,-177.84665695130747,-128.86820971148,0,1.0700101852416992,2019-08-06 13:46:49:083
0.3175390064716339,-0.013329177163541317,9.854071617126465,0.0019285994937831485,-0.0028231073202277645,1.1454389502251989e-05,-177.85230049192734,-129.88964385655515,0,1.0732271671295166,2019-08-06 13:46:49:086
0.37980252504348755,-0.013329177163541317,9.854071617126465,0.004059648644534107,-0.0030894884478169893,0.0002778355485848519,-177.85054856926743,-130.8910382240793,0,1.0764615535736084,2019-08-06 13:46:49:089
0.37261825799942017,-0.027697674930095673,9.882808685302734,0.000863074918407669,-0.003622250702995438,0.0010769789638618162,-177.84963339586176,-131.87017732869518,0,1.0799987316131592,2019-08-06 13:46:49:093
0.3630392551422119,-0.04446092247962952,9.868440628051758,0.0016622183661939237,-0.003888631830584663,0.0042735527550068365,-177.84980017893196,-132.8279118575439,0,1.083221673965454,2019-08-06 13:46:49:096
0.3438812792301178,-0.020513426512479782,9.978598594665527,0.0013958372386046994,-0.0022903450650493154,0.0005442166761740764,-177.85291313350984,-133.76925160200702,0,1.086458444595337,2019-08-06 13:46:49:099
0.2864072620868683,-0.04925042390823364,9.722360610961914,-0.0004688308170663259,-0.00042567707439687154,0.0016097412190402653,-177.86202278521358,-134.68796841734988,0,1.0900046825408936,2019-08-06 13:46:49:103
0.3247232735157013,-0.0851716697216034,9.849282264709473,-0.0007352119771648412,-0.003622250702995438,0.002408884601807939,-177.86636088082363,-135.58416700999447,0,1.0932259559631348,2019-08-06 13:46:49:106
0.34627601504325867,-0.030092423781752586,9.904361724853516,0.0005966937908184444,-0.0006920582344953867,0.003474409372239163,-177.86886808502757,-136.46910414813897,0,1.096273422241211,2019-08-06 13:46:49:109
0.28880202770233154,-0.020513426512479782,9.95465087890625,0.0021949807514095357,-0.004954156340941561,0.002941646856986388,-177.8772113628006,-137.3378230901543,0,1.1000251770019531,2019-08-06 13:46:49:113
0.3295127749443054,-0.03488192334771156,9.868440628051758,0.0019285994937831485,-0.008417111519750132,0.002941646856986388,-177.8798990735448,-138.1873643459715,0,1.1032402515411377,2019-08-06 13:46:49:116
0.3821972608566284,-0.015723926946520805,9.892387390136719,0.002727743006587985,-0.006286061978887684,0.0018761223466294901,-177.87691167155845,-139.02228962914654,0,1.1064655780792236,2019-08-06 13:46:49:119
0.4157237708568573,-0.0779874175786972,9.87322998046875,0.0021949807514095357,-0.003622250702995438,0.0042735527550068365,-177.87042808237808,-139.83323114474192,0,1.1100239753723145,2019-08-06 13:46:49:123
0.4037500023841858,-0.022908175364136696,9.839703559875488,0.0037932675169448835,-0.007617968136982457,0.0021425034742187147,-177.86453870940437,-140.63463916877345,0,1.1135005950927734,2019-08-06 13:46:49:126
0.36543402075767517,-0.08996116369962692,9.808571815490723,0.006457079052911454,-0.006019680851298459,0.0042735527550068365,-177.86345790698167,-141.41263469938568,0,1.116804838180542,2019-08-06 13:46:49:130
0.3558550179004669,-0.10911916196346283,9.803781509399414,0.0011294561110154748,-0.00255672619263854,0.0010769789638618162,-177.8641524745749,-142.17183151435424,0,1.120011806488037,2019-08-06 13:46:49:133
0.3127495348453522,-0.07080317288637161,9.875624656677246,-0.00020244967322245603,-0.0028231073202277645,0.005339077265363735,-177.87008194164378,-142.9201428384361,0,1.123227834701538,2019-08-06 13:46:49:136
0.3630392551422119,-0.05403992161154747,9.892387390136719,0.0037932675169448835,-0.006286061978887684,0.003474409372239163,-177.86946909615855,-143.65618997932825,0,1.1265604496002197,2019-08-06 13:46:49:139
0.3055652678012848,-0.05403992161154747,9.813361167907715,0.0011294561110154748,-0.0006920582344953867,0.002941646856986388,-177.87627699321376,-144.37697316718595,0,1.1299855709075928,2019-08-06 13:46:49:143
0.33430227637290955,0.008223570883274078,9.79420280456543,-0.00020244967322245603,0.0009062286610771233,0.0010769789638618162,-177.87981727943315,-137.89035926275272,0,1.133204698562622,2019-08-06 13:46:49:146
0.3486707806587219,-0.03488192334771156,9.868440628051758,-0.0004688308170663259,-0.0054869185961200105,0.004806315010185286,-177.88075868415433,-138.72841689619767,0,1.1364235877990723,2019-08-06 13:46:49:149
0.30077576637268066,-0.04685567319393158,9.88520336151123,0.0019285994937831485,-0.003622250702995438,0.004007171627417612,-177.88756094674758,-139.54880389706724,0,1.1399965286254883,2019-08-06 13:46:49:153
0.31993377208709717,-0.04446092247962952,9.892387390136719,0.00033031263071992917,-0.0030894884478169893,0.0013433600914510408,-177.8922054143342,-140.35273710345234,0,1.1432056427001953,2019-08-06 13:46:49:156
0.40614476799964905,-0.0779874175786972,9.870835304260254,0.003260505261766434,-0.005220537468530785,0.0026752657293971638,-177.88629350704727,-141.13721886800184,0,1.146428108215332,2019-08-06 13:46:49:159
0.37980252504348755,-0.0588294193148613,9.880414009094238,0.0005966937908184444,-0.005753299723709235,0.002941646856986388,-177.883386158955,-141.90777133228843,0,1.150001049041748,2019-08-06 13:46:49:163
0.33909177780151367,-0.01811867579817772,9.803781509399414,0.0021949807514095357,-0.004687775213352337,0.0010769789638618162,-177.8852542684739,-142.66789385709802,0,1.153212070465088,2019-08-06 13:46:49:166
0.3175390064716339,-0.09475066512823105,9.911545753479004,0.0019285994937831485,-0.005753299723709235,0.0042735527550068365,-177.88979622727916,-143.40393493510177,0,1.156473159790039,2019-08-06 13:46:49:169
0.2600650191307068,-0.05164517089724541,9.837308883666992,0.0024613618789987605,-0.008150730392160906,0.004806315010185286,-177.89999129563316,-144.13036031099915,0,1.1602356433868408,2019-08-06 13:46:49:173
0.30796003341674805,0.017802570015192032,9.779834747314453,0.00033031263071992917,-0.0012248205546924172,0.0016097412190402653,-177.90569557136797,-137.64989939404177,0,1.1634891033172607,2019-08-06 13:46:49:176
0.3582497537136078,-0.0324871726334095,9.717571258544922,0.004326029772123333,-0.004155012958173888,0.005339077265363735,-177.90461178150738,-138.4938445367115,0,1.1666758060455322,2019-08-06 13:46:49:179
0.2792230248451233,-0.0324871726334095,9.882808685302734,0.00033031263071992917,-0.007085205881804008,0.00507269613777451,-177.91283664936037,-139.3202620870288,0,1.1699824333190918,2019-08-06 13:46:49:183
0.28880202770233154,-0.020513426512479782,9.854071617126465,0.003260505261766434,-0.00042567707439687154,0.0021425034742187147,-177.9209283099089,-140.13206002195267,0,1.1731977462768555,2019-08-06 13:46:49:186
0.3175390064716339,-0.04446092247962952,9.923519134521484,0.0019285994937831485,0.001971753236452603,0.0018761223466294901,-177.9262161510175,-140.92463845663033,0,1.1764640808105469,2019-08-06 13:46:49:189
0.23611752688884735,-0.020513426512479782,9.818150520324707,0.002994124134177209,-0.00015929593055300162,0.004806315010185286,-177.94010730617165,-141.70434567516608,0,1.1799983978271484,2019-08-06 13:46:49:193
0.3103547692298889,-0.08996116369962692,9.928308486938477,-0.00020244967322245603,-0.004155012958173888,0.0042735527550068365,-177.9447467810229,-142.4598393128088,0,1.1832096576690674,2019-08-06 13:46:49:196
0.3486707806587219,-0.07559266686439514,9.911545753479004,-0.0010015931047540657,-0.007884349264571683,0.0037407904998283874,-177.94412887186954,-143.20172166530003,0,1.1864359378814697,2019-08-06 13:46:49:199
0.34148651361465454,-0.001355428365059197,9.861255645751953,0.002994124134177209,-0.0006920582344953867,0.00507269613777451,-177.94544183140871,-143.93812796259198,0,1.1899943351745605,2019-08-06 13:46:49:203
0.29359152913093567,-0.07319791615009308,9.894782066345215,0.004592411159786882,-0.002023963937460091,0.0021425034742187147,-177.95217702636984,-144.65171687413138,0,1.193206787109375,2019-08-06 13:46:49:206
0.2768282890319824,-0.06122417002916336,9.875624656677246,-0.0012679742973618717,0.003037277746809501,0.005871839520542184,-177.96157029192165,-145.35134884748655,0,1.19643235206604,2019-08-06 13:46:49:209
0.30796003341674805,-0.08756642043590546,9.854071617126465,0.005125173414965331,-0.004687775213352337,0.004007171627417612,-177.96559835602386,-146.03516683159773,0,1.2000033855438232,2019-08-06 13:46:49:213
0.36064451932907104,-0.05164517089724541,9.851676940917969,-0.0004688308170663259,-0.005753299723709235,0.002408884601807939,-177.96323683359026,-146.70836514124085,0,1.2034680843353271,2019-08-06 13:46:49:216
0.3702235221862793,-0.06840842217206955,9.9139404296875,0.005924316797733005,-0.007351587009393233,0.004539933882596061,-177.96016012312333,-147.36712824150297,0,1.2059853076934814,2019-08-06 13:46:49:219
0.3319075107574463,-0.06840842217206955,9.839703559875488,-0.001534355424951096,-0.003622250702995438,0.002408884601807939,-177.96156271938804,-148.0114990701814,0,1.2096996307373047,2019-08-06 13:46:49:223
0.34627601504325867,0.024986818432807922,9.75349235534668,0.0037932675169448835,-0.004687775213352337,0.0005442166761740764,-177.96057410027026,-141.45508775960886,0,1.2138454914093018,2019-08-06 13:46:49:227
0.30796003341674805,-0.05643467232584953,9.88520336151123,0.004858792287376107,0.001971753236452603,0.00507269613777451,-177.9659519094704,-142.22012708062107,0,1.2163491249084473,2019-08-06 13:46:49:229
0.3247232735157013,-0.10672441124916077,9.861255645751953,0.002727743006587985,-0.003888631830584663,0.0018761223466294901,-177.96811593187374,-142.96388194519787,0,1.2199969291687012,2019-08-06 13:46:49:233
0.3247232735157013,-0.0324871726334095,9.866044998168945,0.000863074918407669,-0.004155012958173888,0.005605458392952959,-177.9703029251711,-143.70098650286178,0,1.223205327987671,2019-08-06 13:46:49:236
0.29598626494407654,0.020197318866848946,9.808571815490723,0.00033031263071992917,-0.004155012958173888,0.0018761223466294901,-177.9755772367709,-137.22938605558525,0,1.2264227867126465,2019-08-06 13:46:49:239
0.3247232735157013,-0.013329177163541317,9.806177139282227,0.0021949807514095357,-0.0033558695754062136,-0.0018532135696568165,-177.97746197801973,-138.08367997510595,0,1.2299866676330566,2019-08-06 13:46:49:243
0.2792230248451233,-0.042066171765327454,9.827729225158691,0.000863074918407669,-0.00015929593055300162,0.002408884601807939,-177.98533526363838,-138.91725729883296,0,1.2332019805908203,2019-08-06 13:46:49:246
0.39417099952697754,-0.07080317288637161,9.849282264709473,-0.0018007365525403206,-0.00255672619263854,0.002941646856986388,-177.97932996103583,-139.7303484566367,0,1.2364284992218018,2019-08-06 13:46:49:249
0.3630392551422119,-0.0324871726334095,9.818150520324707,0.0013958372386046994,-0.0033558695754062136,0.0005442166761740764,-177.97671772920563,-140.53222978926442,0,1.2400009632110596,2019-08-06 13:46:49:253
0.2792230248451233,-0.0779874175786972,9.86365032196045,0.004858792287376107,-0.004421394085763112,0.003208027984575613,-177.98395477621747,-141.31340247994228,0,1.2432167530059814,2019-08-06 13:46:49:256
0.25527551770210266,-0.03488192334771156,9.870835304260254,0.000863074918407669,-0.0030894884478169893,0.0016097412190402653,-177.99408885389892,-142.08324091436052,0,1.2464346885681152,2019-08-06 13:46:49:259
0.30796003341674805,0.003434071084484458,9.830123901367188,0.000863074918407669,-0.004687775213352337,0.0037407904998283874,-177.99735171251768,-135.6421545651788,0,1.2501108646392822,2019-08-06 13:46:49:263
0.2983810305595398,-0.03488192334771156,9.827729225158691,6.393147468507523e-05,-0.005220537468530785,0.0013433600914510408,-178.00170754845087,-136.5252554740751,0,1.2532374858856201,2019-08-06 13:46:49:266
0.30077576637268066,-0.08756642043590546,9.846887588500977,0.0019285994937831485,-0.00255672619263854,0.0069373640308990825,-178.00621755408673,-137.384910563995,0,1.2564725875854492,2019-08-06 13:46:49:269
0.3319075107574463,-0.020513426512479782,9.775045394897461,0.0013958372386046994,-0.0054869185961200105,0.0026752657293971638,-178.00611121046595,-138.23508433877032,0,1.2600035667419434,2019-08-06 13:46:49:273
0.3366970121860504,-0.037276674062013626,9.846887588500977,0.0019285994937831485,-0.0033558695754062136,0.002941646856986388,-178.0062146420083,-139.0663935196124,0,1.2632250785827637,2019-08-06 13:46:49:276
0.3438812792301178,-0.027697674930095673,9.751097679138184,0.0019285994937831485,-0.004155012958173888,0.005605458392952959,-178.00494202604528,-139.88216038193394,0,1.2664539813995361,2019-08-06 13:46:49:279
0.3295127749443054,-0.05164517089724541,9.810966491699219,0.0021949807514095357,-0.00015929593055300162,0.0010769789638618162,-178.00633915032114,-140.67892028759016,0,1.2699849605560303,2019-08-06 13:46:49:283
0.3510655164718628,-0.03488192334771156,9.808571815490723,0.0016622183661939237,-0.0009584393620846114,0.003474409372239163,-178.00504228844517,-141.4615672777048,0,1.273205280303955,2019-08-06 13:46:49:286
0.25048601627349854,-0.06840842217206955,9.813361167907715,-0.0004688308170663259,-0.0014912016822816417,0.0010769789638618162,-178.0154281812631,-142.2242630196465,0,1.2764313220977783,2019-08-06 13:46:49:289
0.37261825799942017,-0.08277691900730133,9.889992713928223,-0.00020244967322245603,-0.0006920582344953867,0.0013433600914510408,-178.01182763345403,-142.97014640976982,0,1.279996633529663,2019-08-06 13:46:49:293
0.30077576637268066,-0.07080317288637161,9.899572372436523,-0.0010015931047540657,-0.0012248205546924172,0.0021425034742187147,-178.0165646793427,-143.70236706715238,0,1.2832114696502686,2019-08-06 13:46:49:296
0.31514427065849304,-0.0324871726334095,9.904361724853516,0.003260505261766434,-0.0033558695754062136,0.003474409372239163,-178.0191780513042,-144.4251498601489,0,1.2864277362823486,2019-08-06 13:46:49:299
0.3319075107574463,-0.020513426512479782,9.868440628051758,6.393147468507523e-05,-0.008150730392160906,0.0021425034742187147,-178.0186322083426,-145.13427769530227,0,1.2900023460388184,2019-08-06 13:46:49:303
0.32711800932884216,-0.0779874175786972,9.966625213623047,0.004059648644534107,-0.0054869185961200105,0.002941646856986388,-178.01967211576127,-145.82335851648244,0,1.2932171821594238,2019-08-06 13:46:49:306
0.31993377208709717,-0.08996116369962692,9.810966491699219,0.0019285994937831485,-0.003622250702995438,0.002941646856986388,-178.021261664853,-146.49673677675415,0,1.2964727878570557,2019-08-06 13:46:49:309
0.32232850790023804,-0.05403992161154747,9.796597480773926,0.0005966937908184444,-0.005753299723709235,0.002941646856986388,-178.0220104226322,-147.1605988934026,0,1.2999911308288574,2019-08-06 13:46:49:313
0.2864072620868683,0.017802570015192032,9.92591381072998,0.0021949807514095357,-0.0054869185961200105,0.0042735527550068365,-178.0275208032201,-140.61983970816573,0,1.3032166957855225,2019-08-06 13:46:49:316
0.31514427065849304,-0.013329177163541317,9.875624656677246,0.0035268863893556587,-0.0030894884478169893,0.0008105978362725917,-178.02985605064524,-141.40653447283213,0,1.3064393997192383,2019-08-06 13:46:49:319
0.26245978474617004,-0.04446092247962952,9.8229398727417,0.004326029772123333,-0.004687775213352337,0.002941646856986388,-178.0377097754313,-142.1740833461346,0,1.3100054264068604,2019-08-06 13:46:49:323
0.3319075107574463,0.010618319734930992,9.937888145446777,0.002727743006587985,-0.002023963937460091,0.0016097412190402653,-178.03833301996727,-135.7323183358377,0,1.3132195472717285,2019-08-06 13:46:49:326
0.3510655164718628,-0.01811867579817772,9.899572372436523,0.0011294561110154748,-0.0017575828098708665,-0.0007876890592999184,-178.03662921380874,-136.61577831563582,0,1.3164308071136475,2019-08-06 13:46:49:329
0.32232850790023804,-0.03488192334771156,9.918729782104492,0.005125173414965331,-0.003622250702995438,0.0013433600914510408,-178.03794780686457,-137.48045604503736,0,1.319986343383789,2019-08-06 13:46:49:333
0.3965657651424408,-0.06361892074346542,9.894782066345215,0.0011294561110154748,-0.0022903450650493154,0.0037407904998283874,-178.0308734804136,-138.32368328458747,0,1.3232026100158691,2019-08-06 13:46:49:336
0.3295127749443054,-0.013329177163541317,9.866044998168945,0.0024613618789987605,-0.0014912016822816417,0.0037407904998283874,-178.03172877551276,-139.15610613972606,0,1.3264200687408447,2019-08-06 13:46:49:339
0.36064451932907104,-0.00853967759758234,9.882808685302734,0.0019285994937831485,-0.0022903450650493154,0.003208027984575613,-178.02883635213914,-139.97238077989178,0,1.3299932479858398,2019-08-06 13:46:49:343
0.33430227637290955,-0.07559266686439514,9.9139404296875,-0.0007352119771648412,-0.004954156340941561,0.0018761223466294901,-178.0287428610925,-140.76406368402712,0,1.3331949710845947,2019-08-06 13:46:49:346
0.3295127749443054,-0.013329177163541317,9.801386833190918,0.00033031263071992917,-0.003622250702995438,0.0013433600914510408,-178.02900236985175,-141.5472838337736,0,1.3364183902740479,2019-08-06 13:46:49:349
0.3175390064716339,-0.0324871726334095,9.842098236083984,0.0019285994937831485,-0.0022903450650493154,-0.0018532135696568165,-178.03100286657397,-142.3129440507582,0,1.3400046825408936,2019-08-06 13:46:49:353
0.34148651361465454,-0.027697674930095673,9.870835304260254,0.003260505261766434,-0.0030894884478169893,0.0005442166761740764,-178.03015690469516,-143.06410102077209,0,1.3434529304504395,2019-08-06 13:46:49:356
0.3582497537136078,-0.0588294193148613,9.90196704864502,0.002727743006587985,-0.004421394085763112,0.003208027984575613,-178.0274840583826,-143.79639901090877,0,1.3459863662719727,2019-08-06 13:46:49:359
0.3893814980983734,-0.04446092247962952,9.854071617126465,0.004059648644534107,-0.0054869185961200105,0.0005442166761740764,-178.0205307685798,-144.51614907565906,0,1.349707841873169,2019-08-06 13:46:49:363
0.37980252504348755,-0.07080317288637161,9.777440071105957,6.393147468507523e-05,-0.004954156340941561,0.0013433600914510408,-178.01447580821153,-145.2175430004031,0,1.353855848312378,2019-08-06 13:46:49:367
0.3965657651424408,-0.03967142477631569,9.909151077270508,-0.00020244967322245603,-0.0033558695754062136,0.0021425034742187147,-178.00788160423457,-145.90857615665456,0,1.3563470840454102,2019-08-06 13:46:49:369
0.3103547692298889,-0.09954016655683517,9.894782066345215,0.00033031263071992917,-0.005220537468530785,0.0005442166761740764,-178.01072389907299,-146.57894494480684,0,1.3599960803985596,2019-08-06 13:46:49:373
0.3582497537136078,-0.020513426512479782,9.875624656677246,0.0021949807514095357,-0.008150730392160906,0.002941646856986388,-178.00748614896804,-147.24538220651442,0,1.3632125854492188,2019-08-06 13:46:49:376
0.34627601504325867,-0.013329177163541317,9.851676940917969,0.0016622183661939237,-0.0009584393620846114,0.006138220648131409,-178.00690153908837,-147.89922547578672,0,1.366441011428833,2019-08-06 13:46:49:379
0.3702235221862793,-0.04685567319393158,9.808571815490723,0.002727743006587985,-0.0030894884478169893,0.0016097412190402653,-178.00291638501488,-148.53631010476738,0,1.3699872493743896,2019-08-06 13:46:49:383
0.3438812792301178,-0.05164517089724541,9.866044998168945,0.0024613618789987605,-0.002023963937460091,0.0018761223466294901,-178.00256784000712,-149.16002994319464,0,1.3732030391693115,2019-08-06 13:46:49:386
0.3845919966697693,-0.001355428365059197,9.878019332885742,0.0024613618789987605,-0.006019680851298459,-0.0007876890592999184,-177.99683418041133,-149.77711763170814,0,1.3764266967773438,2019-08-06 13:46:49:389
0.3558550179004669,-0.09475066512823105,9.866044998168945,0.000863074918407669,-0.00042567707439687154,0.0016097412190402653,-177.99549798579451,-150.37074449721902,0,1.3800156116485596,2019-08-06 13:46:49:393
0.3366970121860504,-0.04925042390823364,9.810966491699219,-0.0028662611929343817,-0.0054869185961200105,0.002941646856986388,-177.9952886561613,-150.9570607189118,0,1.3832249641418457,2019-08-06 13:46:49:396
0.2911967635154724,-0.05403992161154747,9.875624656677246,0.0019285994937831485,-0.004155012958173888,0.005605458392952959,-178.00085263918223,-151.53199768566782,0,1.386444330215454,2019-08-06 13:46:49:399
0.3630392551422119,-0.08038216829299927,9.887598037719727,0.0013958372386046994,-0.00255672619263854,0.003474409372239163,-177.99827153272716,-152.0923198794584,0,1.3899884223937988,2019-08-06 13:46:49:403
0.39417099952697754,-0.08996116369962692,9.851676940917969,0.0016622183661939237,-0.0033558695754062136,0.0002778355485848519,-177.9918700358638,-152.64031281072363,0,1.393235206604004,2019-08-06 13:46:49:406
0.2792230248451233,-0.02530292607843876,9.894782066345215,0.0035268863893556587,-0.0030894884478169893,0.003474409372239163,-177.99914312272637,-153.18521693474165,0,1.396470546722412,2019-08-06 13:46:49:409
0.32711800932884216,-0.037276674062013626,9.813361167907715,0.000863074918407669,-0.002023963937460091,0.0026752657293971638,-178.0005746941291,-153.71733113178783,0,1.4000062942504883,2019-08-06 13:46:49:413
0.31514427065849304,-0.0779874175786972,9.818150520324707,0.0019285994937831485,-0.0022903450650493154,0.002408884601807939,-178.00338128466075,-154.23423007169833,0,1.4032161235809326,2019-08-06 13:46:49:416
0.3510655164718628,-0.01811867579817772,9.818150520324707,0.0011294561110154748,-0.003622250702995438,1.1454389502251989e-05,-178.0017020167034,-154.74763495306814,0,1.4064357280731201,2019-08-06 13:46:49:419
0.33430227637290955,-0.006144927814602852,9.976203918457031,0.002727743006587985,-0.0033558695754062136,0.0018761223466294901,-178.0026123650768,-155.25252132073786,0,1.4099934101104736,2019-08-06 13:46:49:423
0.32711800932884216,-0.04685567319393158,9.849282264709473,0.0011294561110154748,-0.0022903450650493154,0.0042735527550068365,-178.00410095867173,-155.74222394864842,0,1.4132170677185059,2019-08-06 13:46:49:426
0.3438812792301178,-0.07080317288637161,9.856466293334961,-0.0004688308170663259,-0.0022903450650493154,0.00507269613777451,-178.00364167059038,-156.21906332149106,0,1.4164342880249023,2019-08-06 13:46:49:429
0.3510655164718628,-0.09475066512823105,9.861255645751953,0.0016622183661939237,-0.00255672619263854,0.0005442166761740764,-178.0022792738844,-156.68400463339216,0,1.4199981689453125,2019-08-06 13:46:49:433
0.3821972608566284,-0.09235591441392899,9.83491325378418,0.0024613618789987605,-0.0014912016822816417,0.002408884601807939,-177.9974552844598,-157.14000811048984,0,1.4232115745544434,2019-08-06 13:46:49:436
0.33909177780151367,-0.08038216829299927,9.839703559875488,0.002727743006587985,-0.0054869185961200105,0.004007171627417612,-177.9970360600055,-157.58834196693962,0,1.426443338394165,2019-08-06 13:46:49:439
0.26724928617477417,-0.06122417002916336,9.882808685302734,0.003260505261766434,-0.006286061978887684,0.0037407904998283874,-178.00485815670731,-158.0301282794717,0,1.4300048351287842,2019-08-06 13:46:49:443
0.2983810305595398,-0.0779874175786972,9.830123901367188,0.0019285994937831485,-0.003888631830584663,0.007203745158488308,-178.00928793959488,-158.46078238832493,0,1.4332149028778076,2019-08-06 13:46:49:446
0.31993377208709717,-0.05643467232584953,9.803781509399414,0.0016622183661939237,-0.005753299723709235,0.003474409372239163,-178.0106789612491,-158.88527120680791,0,1.4364373683929443,2019-08-06 13:46:49:449
0.37980252504348755,-0.06361892074346542,9.784624099731445,0.0016622183661939237,-0.0030894884478169893,0.0026752657293971638,-178.00538971405504,-159.30044763344495,0,1.4399988651275635,2019-08-06 13:46:49:453
0.26724928617477417,-0.010934427380561829,9.854071617126465,0.0011294561110154748,-0.0030894884478169893,0.002408884601807939,-178.0136541876504,-159.71337087770377,0,1.443211555480957,2019-08-06 13:46:49:456
0.35346025228500366,-0.05164517089724541,9.758281707763672,0.0021949807514095357,0.0006398475334878987,0.003474409372239163,-178.01200841555772,-160.11343686489116,0,1.4464411735534668,2019-08-06 13:46:49:459
0.26964402198791504,-0.05403992161154747,9.875624656677246,0.0013958372386046994,-0.0017575828098708665,0.0037407904998283874,-178.0201367252729,-160.50517661221815,0,1.4500000476837158,2019-08-06 13:46:49:463
0.2983810305595398,-0.05643467232584953,9.875624656677246,0.0011294561110154748,-0.00042567707439687154,0.0013433600914510408,-178.0250451989664,-160.88872842270052,0,1.4532113075256348,2019-08-06 13:46:49:466
0.26724928617477417,-0.03488192334771156,9.882808685302734,0.005391554542554556,-0.003622250702995438,0.0042735527550068365,-178.03290988585053,-161.2678831913677,0,1.4564282894134521,2019-08-06 13:46:49:469
0.3965657651424408,-0.027697674930095673,9.930704116821289,0.000863074918407669,-0.00255672619263854,0.002941646856986388,-178.02600382803703,-161.63950229534265,0,1.4599945545196533,2019-08-06 13:46:49:473
0.3055652678012848,-0.06361892074346542,9.882808685302734,0.0024613618789987605,-0.006286061978887684,1.1454389502251989e-05,-178.02893209562467,-161.99977916235343,0,1.4632031917572021,2019-08-06 13:46:49:476
0.3486707806587219,-0.05164517089724541,9.830123901367188,0.002994124134177209,-0.006818824754214785,0.0026752657293971638,-178.02648728892126,-162.35430686573702,0,1.4664366245269775,2019-08-06 13:46:49:479
0.3055652678012848,-0.11151391267776489,9.815755844116211,0.005391554542554556,-0.0028231073202277645,0.003208027984575613,-178.0297309989383,-162.69528308963837,0,1.4700047969818115,2019-08-06 13:46:49:483
0.3366970121860504,-0.04685567319393158,9.849282264709473,0.003260505261766434,-0.0054869185961200105,0.0002778355485848519,-178.02899055081411,-163.0365131635534,0,1.4732117652893066,2019-08-06 13:46:49:486
0.37261825799942017,-0.05643467232584953,9.83491325378418,0.0016622183661939237,-0.004687775213352337,0.0008105978362725917,-178.0241664506332,-163.36950866899542,0,1.4764387607574463,2019-08-06 13:46:49:489
0.26724928617477417,-0.05403992161154747,9.796597480773926,0.0021949807514095357,-0.003622250702995438,0.003208027984575613,-178.0317056145657,-163.6962367383868,0,1.4800028800964355,2019-08-06 13:46:49:493
0.25527551770210266,-0.08038216829299927,9.798992156982422,0.002727743006587985,-0.004155012958173888,0.002408884601807939,-178.04047641028257,-164.01340410157164,0,1.4832148551940918,2019-08-06 13:46:49:496
0.3774077594280243,-0.02530292607843876,9.796597480773926,0.000863074918407669,-0.006019680851298459,0.0013433600914510408,-178.03440490109216,-164.33033950226945,0,1.4865820407867432,2019-08-06 13:46:49:499
0.3055652678012848,-0.037276674062013626,9.858860969543457,0.0024613618789987605,-0.0022903450650493154,0.003208027984575613,-178.0377723171031,-164.6398721718716,0,1.4899985790252686,2019-08-06 13:46:49:503
0.2576702833175659,-0.03967142477631569,9.846887588500977,0.004059648644534107,-0.0022903450650493154,0.003208027984575613,-178.0466249275111,-164.94318978645666,0,1.493208646774292,2019-08-06 13:46:49:506
0.3582497537136078,-0.06840842217206955,9.889992713928223,0.005125173414965331,-0.004421394085763112,0.0016097412190402653,-178.04339868995675,-165.23733054252648,0,1.4964425563812256,2019-08-06 13:46:49:509
0.3319075107574463,-0.037276674062013626,9.818150520324707,0.0021949807514095357,-0.00255672619263854,0.0013433600914510408,-178.04329698387195,-165.52867127892304,0,1.4999966621398926,2019-08-06 13:46:49:513
0.36064451932907104,-0.02530292607843876,9.875624656677246,0.002727743006587985,-0.0012248205546924172,0.002408884601807939,-178.04038168427826,-165.81565324724897,0,1.5032050609588623,2019-08-06 13:46:49:516
0.27443352341651917,-0.03488192334771156,9.825334548950195,0.002727743006587985,0.0006398475334878987,1.1454389502251989e-05,-178.04769139095922,-166.0957657836261,0,1.5064291954040527,2019-08-06 13:46:49:519
0.3486707806587219,-0.05164517089724541,9.832518577575684,0.0024613618789987605,0.001971753236452603,0.0021425034742187147,-178.04651364816954,-166.368323900195,0,1.50999116897583,2019-08-06 13:46:49:523
0.3319075107574463,-0.08038216829299927,9.830123901367188,0.0019285994937831485,-0.004155012958173888,0.0037407904998283874,-178.04615602242757,-166.6319359095451,0,1.5132100582122803,2019-08-06 13:46:49:526
0.30077576637268066,-0.05403992161154747,9.928308486938477,0.005391554542554556,-0.004687775213352337,0.004539933882596061,-178.04967949801485,-166.89403622127375,0,1.516434669494629,2019-08-06 13:46:49:529
0.31514427065849304,-0.06361892074346542,9.842098236083984,0.0024613618789987605,-0.004155012958173888,0.002941646856986388,-178.05117249938405,-167.1492423131376,0,1.5200080871582031,2019-08-06 13:46:49:533
0.31514427065849304,-0.027697674930095673,9.770255088806152,0.004059648644534107,-0.0017575828098708665,0.0026752657293971638,-178.05288206583572,-167.40374282667895,0,1.5232276916503906,2019-08-06 13:46:49:536
0.3319075107574463,-0.03488192334771156,9.84449291229248,0.0013958372386046994,-0.0028231073202277645,0.0008105978362725917,-178.0526935673592,-167.65186027394574,0,1.5264506340026855,2019-08-06 13:46:49:539
0.3127495348453522,-0.05164517089724541,9.79420280456543,0.00619069792532223,-0.0054869185961200105,0.0005442166761740764,-178.05396880082645,-167.89401253966784,0,1.5299944877624512,2019-08-06 13:46:49:543
0.3366970121860504,-0.0324871726334095,9.856466293334961,0.0005966937908184444,-0.007351587009393233,-0.0013204513144783674,-178.05242138343002,-168.13246399590088,0,1.5332376956939697,2019-08-06 13:46:49:546
0.29598626494407654,-0.07319791615009308,9.86365032196045,-0.0004688308170663259,-0.002023963937460091,0.005605458392952959,-178.0566296389816,-168.36122599032552,0,1.5364692211151123,2019-08-06 13:46:49:549
0.28880202770233154,-0.04925042390823364,9.894782066345215,0.0011294561110154748,-0.0014912016822816417,0.0016097412190402653,-178.0617643794346,-168.5885219940609,0,1.540004014968872,2019-08-06 13:46:49:553
0.2768282890319824,-0.06840842217206955,9.803781509399414,0.0035268863893556587,-0.0012248205546924172,0.002941646856986388,-178.06795895957163,-168.80939396698093,0,1.543226718902588,2019-08-06 13:46:49:556
0.31993377208709717,-0.0779874175786972,9.935493469238281,0.003260505261766434,0.0003734663733893835,0.003474409372239163,-178.06978029461254,-169.02480089876883,0,1.5464458465576172,2019-08-06 13:46:49:559
0.3103547692298889,-0.02530292607843876,9.854071617126465,0.000863074918407669,-0.003622250702995438,0.0010769789638618162,-178.07158430742916,-169.2415343839858,0,1.5499937534332275,2019-08-06 13:46:49:563
0.31993377208709717,0.010618319734930992,9.810966491699219,0.0019285994937831485,-0.0028231073202277645,0.006670982903309857,-178.07228770670363,-162.2582923561866,0,1.5532114505767822,2019-08-06 13:46:49:566
0.3247232735157013,-0.022908175364136696,9.861255645751953,0.002994124134177209,-0.004954156340941561,0.003474409372239163,-178.0722257503897,-162.61100585531878,0,1.556431531906128,2019-08-06 13:46:49:569
0.3103547692298889,-0.0588294193148613,9.846887588500977,0.0011294561110154748,-0.00255672619263854,0.0018761223466294901,-178.07416585893571,-162.95216506868934,0,1.5599861145019531,2019-08-06 13:46:49:573
0.4109342694282532,-0.042066171765327454,9.88520336151123,0.004326029772123333,-0.004954156340941561,0.009867556954529203,-178.06417789066478,-163.28902745021867,0,1.5632057189941406,2019-08-06 13:46:49:576
0.36543402075767517,-0.07559266686439514,9.86365032196045,0.004059648644534107,-0.0006920582344953867,0.0037407904998283874,-178.06033410119372,-163.6151990080436,0,1.5664255619049072,2019-08-06 13:46:49:579
0.3127495348453522,-0.07559266686439514,9.796597480773926,0.0035268863893556587,-0.0033558695754062136,0.0013433600914510408,-178.06188137860497,-163.93476342074084,0,1.5700125694274902,2019-08-06 13:46:49:583
0.3366970121860504,-0.04925042390823364,9.894782066345215,0.00565793567014378,-0.005753299723709235,0.004007171627417612,-178.0606281065304,-164.25138507476044,0,1.5732250213623047,2019-08-06 13:46:49:586
0.33430227637290955,0.003434071084484458,9.95465087890625,0.003260505261766434,-0.004155012958173888,0.007203745158488308,-178.0601934518629,-157.36734421194205,0,1.576456069946289,2019-08-06 13:46:49:589
0.3055652678012848,-0.05643467232584953,9.88520336151123,0.0005966937908184444,0.0006398475334878987,0.0037407904998283874,-178.06370620290042,-157.81357395975485,0,1.57999587059021,2019-08-06 13:46:49:593
0.31993377208709717,-0.06840842217206955,9.866044998168945,0.000863074918407669,-0.0022903450650493154,0.0021425034742187147,-178.06487208807482,-158.24951297728143,0,1.5832114219665527,2019-08-06 13:46:49:596
0.31993377208709717,-0.05164517089724541,9.858860969543457,-0.00020244967322245603,-0.002023963937460091,0.0018761223466294901,-178.06603429326574,-158.67848325493773,0,1.5864393711090088,2019-08-06 13:46:49:599
0.3366970121860504,-0.05164517089724541,9.854071617126465,0.005391554542554556,-0.0033558695754062136,0.004539933882596061,-178.06489699279774,-159.09999691991862,0,1.5900366306304932,2019-08-06 13:46:49:603
0.3031705319881439,-0.037276674062013626,9.813361167907715,0.0011294561110154748,-0.004687775213352337,0.00507269613777451,-178.06736453837323,-159.51384758183815,0,1.5932440757751465,2019-08-06 13:46:49:606
0.29359152913093567,0.020197318866848946,9.796597480773926,0.0013958372386046994,-0.0022903450650493154,0.0037407904998283874,-178.07127037354286,-152.72618635976875,0,1.5964751243591309,2019-08-06 13:46:49:609
0.3558550179004669,-0.06361892074346542,9.86365032196045,0.0019285994937831485,-0.0030894884478169893,0.007203745158488308,-178.06791091397596,-153.26465274580232,0,1.5999932289123535,2019-08-06 13:46:49:613
0.3127495348453522,0.010618319734930992,9.889992713928223,0.004059648644534107,-0.0054869185961200105,0.002408884601807939,-178.06933655724586,-146.60132330136747,0,1.603210210800171,2019-08-06 13:46:49:616
0.32232850790023804,-0.037276674062013626,9.937888145446777,0.0037932675169448835,-0.005753299723709235,0.005339077265363735,-178.06975579011672,-147.2656843140732,0,1.6064298152923584,2019-08-06 13:46:49:619
0.3750130236148834,-0.05643467232584953,9.856466293334961,0.0016622183661939237,-0.00042567707439687154,0.0016097412190402653,-178.06469750391298,-147.91414177218698,0,1.6099889278411865,2019-08-06 13:46:49:623
0.33430227637290955,-0.04446092247962952,9.849282264709473,0.0024613618789987605,-0.0054869185961200105,0.0042735527550068365,-178.06353168472026,-148.55113132561388,0,1.6132099628448486,2019-08-06 13:46:49:626
0.34148651361465454,0.003434071084484458,9.842098236083984,0.002994124134177209,-0.006286061978887684,0.005339077265363735,-178.0613800574295,-141.98105040807812,0,1.6164331436157227,2019-08-06 13:46:49:629
0.3702235221862793,-0.05643467232584953,9.851676940917969,0.002994124134177209,-0.0033558695754062136,0.0026752657293971638,-178.05643498059464,-142.73546697484144,0,1.6200127601623535,2019-08-06 13:46:49:633
0.30796003341674805,0.0010393214179202914,9.842098236083984,0.004326029772123333,-0.0022903450650493154,0.0042735527550068365,-178.05904844350943,-136.28166012560777,0,1.62322998046875,2019-08-06 13:46:49:636
0.26724928617477417,-0.013329177163541317,9.808571815490723,0.0013958372386046994,-0.0022903450650493154,0.005339077265363735,-178.06623880153563,-137.15472213664953,0,1.626450777053833,2019-08-06 13:46:49:639
0.36543402075767517,-0.03488192334771156,9.837308883666992,-0.0007352119771648412,-0.0014912016822816417,0.0021425034742187147,-178.0620667031068,-138.00741716890002,0,1.6300179958343506,2019-08-06 13:46:49:643
0.3366970121860504,-0.010934427380561829,9.846887588500977,0.004592411159786882,-0.002023963937460091,0.0042735527550068365,-178.06129292523823,-138.84682484606614,0,1.6332309246063232,2019-08-06 13:46:49:646
0.33909177780151367,-0.05164517089724541,9.791808128356934,0.0011294561110154748,-0.004687775213352337,0.005339077265363735,-178.05954865588222,-139.66404952014977,0,1.6364641189575195,2019-08-06 13:46:49:649
0.2911967635154724,0.008223570883274078,9.930704116821289,0.004592411159786882,-0.003622250702995438,0.004539933882596061,-178.0640458163163,-133.27263024155477,0,1.6400039196014404,2019-08-06 13:46:49:653
0.31993377208709717,-0.0779874175786972,9.832518577575684,-0.0012679742973618717,-0.006818824754214785,0.004539933882596061,-178.06426235183875,-134.19786027425044,0,1.6432151794433594,2019-08-06 13:46:49:656
0.2600650191307068,-0.05643467232584953,9.849282264709473,0.0035268863893556587,-0.0030894884478169893,0.004806315010185286,-178.0721697340528,-135.10797323028373,0,1.6464266777038574,2019-08-06 13:46:49:659
0.2864072620868683,-0.015723926946520805,9.813361167907715,0.004059648644534107,-0.006019680851298459,0.0002778355485848519,-178.07608676988963,-136.0047903230539,0,1.649991750717163,2019-08-06 13:46:49:663
0.2720387876033783,-0.06361892074346542,9.858860969543457,0.00033031263071992917,-0.007085205881804008,0.0010769789638618162,-178.0816719955581,-136.87735980241732,0,1.6532127857208252,2019-08-06 13:46:49:666
0.3247232735157013,-0.03488192334771156,9.887598037719727,0.0019285994937831485,-0.0006920582344953867,0.002941646856986388,-178.08229322641148,-137.7361191786591,0,1.6564371585845947,2019-08-06 13:46:49:669
0.24090702831745148,-0.05403992161154747,9.842098236083984,0.0035268863893556587,-0.0030894884478169893,0.0010769789638618162,-178.09198884853328,-138.5758074077385,0,1.6599841117858887,2019-08-06 13:46:49:673
0.31993377208709717,-0.006144927814602852,9.801386833190918,-0.0010015931047540657,-0.004421394085763112,0.0018761223466294901,-178.09195878701976,-139.40339184603317,0,1.6632022857666016,2019-08-06 13:46:49:676
0.3965657651424408,-0.001355428365059197,9.892387390136719,6.393147468507523e-05,-0.005220537468530785,0.004007171627417612,-178.083262920929,-140.2151785572459,0,1.6664221286773682,2019-08-06 13:46:49:679
0.24809128046035767,-0.06840842217206955,9.875624656677246,0.0021949807514095357,-0.004421394085763112,0.0018761223466294901,-178.09192540271138,-141.0033797441086,0,1.6700115203857422,2019-08-06 13:46:49:683
0.3175390064716339,-0.05643467232584953,9.801386833190918,0.0011294561110154748,-0.00255672619263854,0.0005442166761740764,-178.09251426741787,-141.7769178795973,0,1.673222541809082,2019-08-06 13:46:49:686
0.32232850790023804,-0.06601367145776749,9.866044998168945,0.0016622183661939237,-0.0017575828098708665,0.004539933882596061,-178.0929381230039,-142.53399750611894,0,1.6762781143188477,2019-08-06 13:46:49:689
0.32711800932884216,-0.05403992161154747,9.933098793029785,0.0019285994937831485,-0.0033558695754062136,0.0021425034742187147,-178.09264919822886,-143.277489335037,0,1.6800267696380615,2019-08-06 13:46:49:693
0.33430227637290955,-0.020513426512479782,9.775045394897461,0.0024613618789987605,-0.00255672619263854,0.00800288854125598,-178.09119040622235,-144.00994996858316,0,1.6830308437347412,2019-08-06 13:46:49:696
0.30796003341674805,-0.08038216829299927,9.87322998046875,0.0037932675169448835,-0.006019680851298459,0.0021425034742187147,-178.09258589322138,-144.72108316200146,0,1.68613600730896,2019-08-06 13:46:49:699
0.3319075107574463,-0.02530292607843876,9.775045394897461,0.0019285994937831485,-0.004421394085763112,0.0013433600914510408,-178.09087364680275,-145.42411681546375,0,1.6900286674499512,2019-08-06 13:46:49:703
0.3103547692298889,0.024986818432807922,9.861255645751953,0.0035268863893556587,-0.0054869185961200105,0.002941646856986388,-178.0919590699855,-138.91920948167532,0,1.6934192180633545,2019-08-06 13:46:49:706
0.30796003341674805,0.02259206771850586,9.899572372436523,0.0005966937908184444,-0.006286061978887684,0.0037407904998283874,-178.09334643791175,-132.54354836920976,0,1.696641445159912,2019-08-06 13:46:49:709
0.2983810305595398,-0.05643467232584953,9.868440628051758,0.005125173414965331,-0.0022903450650493154,0.003208027984575613,-178.09641180660046,-133.48708762981497,0,1.699988842010498,2019-08-06 13:46:49:713
0.3438812792301178,-0.07319791615009308,9.770255088806152,0.00033031263071992917,-0.0009584393620846114,0.0016097412190402653,-178.09399466602255,-134.40882057060503,0,1.7032041549682617,2019-08-06 13:46:49:716
0.2720387876033783,-0.08038216829299927,9.947466850280762,0.00033031263071992917,-0.004954156340941561,0.0026752657293971638,-178.09988892412142,-135.3114443167556,0,1.7064239978790283,2019-08-06 13:46:49:719
0.25048601627349854,-0.06361892074346542,9.87322998046875,0.0019285994937831485,-0.006552443626625559,0.004806315010185286,-178.10751315402044,-136.1982179298898,0,1.7099902629852295,2019-08-06 13:46:49:723
0.2840125262737274,-0.0588294193148613,9.868440628051758,0.0021949807514095357,-0.0033558695754062136,0.003474409372239163,-178.1117867683214,-137.0678187360156,0,1.7132058143615723,2019-08-06 13:46:49:726
0.32711800932884216,-0.0588294193148613,9.84449291229248,-0.0007352119771648412,-0.003622250702995438,0.0013433600914510408,-178.11083350554307,-137.9194817659668,0,1.716423511505127,2019-08-06 13:46:49:729
0.2456965297460556,-0.02530292607843876,9.875624656677246,0.0035268863893556587,-0.002023963937460091,0.0037407904998283874,-178.1197054365745,-138.75886698799053,0,1.72001314163208,2019-08-06 13:46:49:733
0.2073805332183838,-0.037276674062013626,9.918729782104492,-0.00020244967322245603,-0.006286061978887684,0.003208027984575613,-178.1321731131007,-139.57934497886347,0,1.7233645915985107,2019-08-06 13:46:49:736
0.31993377208709717,0.027381567284464836,9.906756401062012,0.0019285994937831485,0.0017053721088633783,-0.00025492675535753324,-178.13278615725406,-133.19120850311194,0,1.7259798049926758,2019-08-06 13:46:49:739
0.28161776065826416,0.02259206771850586,9.842098236083984,-0.0007352119771648412,-0.004954156340941561,0.0013433600914510408,-178.1363167238606,-126.929861289784,0,1.72969651222229,2019-08-06 13:46:49:743
0.2792230248451233,-0.03488192334771156,9.772649765014648,0.000863074918407669,-0.004421394085763112,0.003208027984575613,-178.13984937397566,-127.98737086912874,0,1.7337605953216553,2019-08-06 13:46:49:747
0.31514427065849304,-0.01811867579817772,9.923519134521484,0.0005966937908184444,-0.00255672619263854,0.0008105978362725917,-178.1402947596644,-129.02561957676747,0,1.7363982200622559,2019-08-06 13:46:49:749
0.27443352341651917,-0.013329177163541317,9.904361724853516,0.0011294561110154748,-0.0017575828098708665,0.0037407904998283874,-178.1453877024844,-130.04379498947176,0,1.7400243282318115,2019-08-06 13:46:49:753
0.3630392551422119,-0.0037501780316233635,9.935493469238281,0.004059648644534107,-0.004421394085763112,0.0008105978362725917,-178.13983178277095,-131.04321693301304,0,1.7432284355163574,2019-08-06 13:46:49:756
0.3558550179004669,-0.05643467232584953,9.851676940917969,0.004326029772123333,-0.006552443626625559,0.002941646856986388,-178.13447175079452,-132.01657366969016,0,1.7464613914489746,2019-08-06 13:46:49:759
0.3438812792301178,-0.06601367145776749,9.88520336151123,0.0005966937908184444,-0.0054869185961200105,0.0005442166761740764,-178.13084782258835,-132.96870806791333,0,1.7499897480010986,2019-08-06 13:46:49:763
0.32232850790023804,-0.08277691900730133,9.856466293334961,0.0037932675169448835,-0.0014912016822816417,0.00507269613777451,-178.1305012905531,-133.90039453698867,0,1.7532014846801758,2019-08-06 13:46:49:766
0.3247232735157013,-0.09714541584253311,9.906756401062012,0.0016622183661939237,-0.006286061978887684,0.0042735527550068365,-178.12920837643148,-134.81145045948094,0,1.7564187049865723,2019-08-06 13:46:49:769
0.26245978474617004,-0.08038216829299927,9.878019332885742,0.004592411159786882,-0.006818824754214785,0.0021425034742187147,-178.1348100072111,-135.70682236507585,0,1.7600080966949463,2019-08-06 13:46:49:773
0.38698676228523254,-0.042066171765327454,9.849282264709473,0.0016622183661939237,-0.003888631830584663,0.0013433600914510408,-178.12641058294676,-136.58809198456515,0,1.7632248401641846,2019-08-06 13:46:49:776
0.32232850790023804,-0.0779874175786972,9.87322998046875,-0.00020244967322245603,-0.005220537468530785,0.003474409372239163,-178.1255424837068,-137.44724232718295,0,1.7664411067962646,2019-08-06 13:46:49:779
0.3510655164718628,-0.02530292607843876,9.79420280456543,-0.0004688308170663259,-0.006019680851298459,-0.0013204513144783674,-178.12073478157987,-138.29524048702294,0,1.7701096534729004,2019-08-06 13:46:49:783
0.3582497537136078,-0.07080317288637161,9.882808685302734,0.0021949807514095357,-0.005220537468530785,-0.0007876890592999184,-178.11588457783895,-139.1215106589913,0,1.7732293605804443,2019-08-06 13:46:49:786
0.3630392551422119,0.015407819300889969,9.878019332885742,-0.0004688308170663259,-0.0014912016822816417,0.002941646856986388,-178.11120025954767,-132.7407827715609,0,1.7764613628387451,2019-08-06 13:46:49:789
0.2768282890319824,-0.010934427380561829,9.894782066345215,-0.00020244967322245603,-0.003622250702995438,0.0016097412190402653,-178.1162041803237,-133.68466050667382,0,1.780005931854248,2019-08-06 13:46:49:793
0.32232850790023804,-0.04925042390823364,9.839703559875488,0.0005966937908184444,-0.0030894884478169893,0.003208027984575613,-178.1157967795811,-134.60533966399373,0,1.7832276821136475,2019-08-06 13:46:49:796
0.2911967635154724,-0.03488192334771156,9.940282821655273,0.0011294561110154748,-0.006286061978887684,0.003474409372239163,-178.11878463616506,-135.5094159286813,0,1.7864480018615723,2019-08-06 13:46:49:799
0.28880202770233154,-0.06122417002916336,9.971414566040039,0.0011294561110154748,-0.0009584393620846114,0.002408884601807939,-178.12303839345523,-136.3924165146605,0,1.7899911403656006,2019-08-06 13:46:49:803
0.32232850790023804,-0.08996116369962692,9.882808685302734,0.0024613618789987605,-0.008150730392160906,0.0042735527550068365,-178.1217446774097,-137.25458197733136,0,1.7932076454162598,2019-08-06 13:46:49:806
0.3055652678012848,-0.015723926946520805,9.801386833190918,0.002994124134177209,-0.003888631830584663,0.007736507413666756,-178.12289481932137,-138.1081923550983,0,1.796421766281128,2019-08-06 13:46:49:809
0.3750130236148834,-0.04446092247962952,9.830123901367188,-0.0018007365525403206,-0.003888631830584663,0.003208027984575613,-178.11596331905915,-138.9404849906265,0,1.7999887466430664,2019-08-06 13:46:49:813
0.34148651361465454,-0.05403992161154747,9.767860412597656,0.004858792287376107,-0.0033558695754062136,-0.00025492675535753324,-178.1129924094015,-139.75621378137654,0,1.8032073974609375,2019-08-06 13:46:49:816
0.3127495348453522,-0.07559266686439514,9.906756401062012,0.0019285994937831485,-0.005220537468530785,0.005871839520542184,-178.1136272649908,-140.55269369015167,0,1.8064193725585938,2019-08-06 13:46:49:819
0.31993377208709717,-0.013329177163541317,9.813361167907715,0.0011294561110154748,-0.003888631830584663,0.0010769789638618162,-178.1132246715717,-141.34031115777384,0,1.810011386871338,2019-08-06 13:46:49:823
0.3103547692298889,-0.08038216829299927,9.866044998168945,0.002727743006587985,-0.0028231073202277645,0.004806315010185286,-178.11441574030252,-142.1046611698203,0,1.8132250308990479,2019-08-06 13:46:49:826
0.31993377208709717,-0.042066171765327454,9.825334548950195,-0.00020244967322245603,-0.0012248205546924172,0.002941646856986388,-178.11460460322195,-142.85762506927927,0,1.8164610862731934,2019-08-06 13:46:49:829
0.3247232735157013,-0.04446092247962952,9.820545196533203,0.003260505261766434,-0.002023963937460091,0.0018761223466294901,-178.11403335735358,-143.59593297443882,0,1.8200023174285889,2019-08-06 13:46:49:833
0.36064451932907104,-0.04925042390823364,9.88520336151123,0.0024613618789987605,-0.0033558695754062136,0.00507269613777451,-178.10935744426845,-144.31875036884912,0,1.8232238292694092,2019-08-06 13:46:49:836
0.3127495348453522,-0.06122417002916336,9.940282821655273,0.0035268863893556587,-0.0030894884478169893,0.0021425034742187147,-178.11056845892466,-145.02595677400922,0,1.8264517784118652,2019-08-06 13:46:49:839
0.3319075107574463,0.010618319734930992,9.791808128356934,0.00619069792532223,-0.004687775213352337,0.0037407904998283874,-178.10859417192012,-138.52791546148705,0,1.830005168914795,2019-08-06 13:46:49:843
0.3031705319881439,-0.0324871726334095,9.906756401062012,-0.0012679742973618717,-0.005753299723709235,0.0010769789638618162,-178.1103267638055,-139.35337045163604,0,1.8332204818725586,2019-08-06 13:46:49:846
0.32232850790023804,-0.0779874175786972,9.882808685302734,6.393147468507523e-05,-0.003888631830584663,0.0008105978362725917,-178.11005818756462,-140.1572720858685,0,1.8364317417144775,2019-08-06 13:46:49:849
0.3630392551422119,0.0010393214179202914,9.842098236083984,0.0024613618789987605,-0.0028231073202277645,0.007736507413666756,-178.10504318324706,-133.7547396717846,0,1.839991807937622,2019-08-06 13:46:49:853
0.34148651361465454,-0.03967142477631569,9.854071617126465,6.393147468507523e-05,-0.006818824754214785,0.002941646856986388,-178.10201434492666,-134.67504313051694,0,1.8432118892669678,2019-08-06 13:46:49:856
0.35346025228500366,-0.06601367145776749,9.796597480773926,0.0024613618789987605,-0.004155012958173888,-0.0013204513144783674,-178.0978959864724,-135.5742658781032,0,1.8464329242706299,2019-08-06 13:46:49:859
0.3366970121860504,-0.05403992161154747,9.78222942352295,0.005391554542554556,0.0014389909812741537,0.0010769789638618162,-178.096799609088,-136.457527572884,0,1.8499915599822998,2019-08-06 13:46:49:863
0.37261825799942017,-0.07559266686439514,9.858860969543457,0.002994124134177209,-0.003622250702995438,0.004539933882596061,-178.09092037106328,-137.3201312200383,0,1.8532054424285889,2019-08-06 13:46:49:866
0.3031705319881439,-0.0779874175786972,9.868440628051758,0.0019285994937831485,-0.004687775213352337,0.00800288854125598,-178.09306121096424,-138.1650217799821,0,1.85642671585083,2019-08-06 13:46:49:869
0.2983810305595398,-0.042066171765327454,9.820545196533203,0.0024613618789987605,-0.005220537468530785,1.1454389502251989e-05,-178.09534443219133,-138.99730768079803,0,1.8600070476531982,2019-08-06 13:46:49:873
0.31993377208709717,-0.0588294193148613,9.839703559875488,0.0037932675169448835,-0.005220537468530785,0.003208027984575613,-178.09524800697272,-139.8111961294767,0,1.8632264137268066,2019-08-06 13:46:49:876
0.3774077594280243,-0.05643467232584953,9.806177139282227,0.002727743006587985,-0.004155012958173888,0.003208027984575613,-178.08849736719958,-140.60887966309664,0,1.8665049076080322,2019-08-06 13:46:49:879
0.2983810305595398,-0.042066171765327454,9.79420280456543,0.0021949807514095357,-0.0006920582344953867,0.0005442166761740764,-178.09169168507998,-141.39221216141414,0,1.8700082302093506,2019-08-06 13:46:49:883
0.3582497537136078,0.015407819300889969,9.928308486938477,0.005924316797733005,-0.004687775213352337,0.003208027984575613,-178.08768162538846,-134.96721457564556,0,1.8732197284698486,2019-08-06 13:46:49:886
0.4013552665710449,-0.04446092247962952,9.899572372436523,0.0037932675169448835,-0.0028231073202277645,0.0018761223466294901,-178.07898686823415,-135.86340643751143,0,1.876424789428711,2019-08-06 13:46:49:889
0.35346025228500366,-0.03488192334771156,9.779834747314453,0.002994124134177209,-0.005220537468530785,-0.00025492675535753324,-178.07496570492543,-136.74264996478718,0,1.8799865245819092,2019-08-06 13:46:49:893
0.3486707806587219,-0.0588294193148613,9.897176742553711,-0.0012679742973618717,-0.006019680851298459,0.0026752657293971638,-178.07202566009465,-137.6007565648382,0,1.8832042217254639,2019-08-06 13:46:49:896
0.3295127749443054,-0.07080317288637161,9.832518577575684,0.004059648644534107,-0.004155012958173888,0.004539933882596061,-178.07144603747838,-138.44122361779156,0,1.886422872543335,2019-08-06 13:46:49:899
0.29598626494407654,-0.0779874175786972,9.830123901367188,0.0024613618789987605,-0.004687775213352337,0.0005442166761740764,-178.07457920920845,-139.26380420618133,0,1.8900117874145508,2019-08-06 13:46:49:903
0.36064451932907104,-0.09714541584253311,9.86365032196045,0.0011294561110154748,-0.003888631830584663,-0.00025492675535753324,-178.07050706949514,-140.06744619817638,0,1.8932228088378906,2019-08-06 13:46:49:906
0.37980252504348755,-0.07559266686439514,9.806177139282227,-0.0007352119771648412,-0.0014912016822816417,0.0008105978362725917,-178.06448367420325,-140.85713920178299,0,1.896244764328003,2019-08-06 13:46:49:909
0.38698676228523254,-0.06840842217206955,9.933098793029785,0.0019285994937831485,-0.003888631830584663,0.003208027984575613,-178.0577611042269,-141.63250712450073,0,1.8999607563018799,2019-08-06 13:46:49:913
0.3295127749443054,-0.022908175364136696,9.827729225158691,0.003260505261766434,-0.003622250702995438,0.0016097412190402653,-178.05758732705294,-142.3977364758324,0,1.902968168258667,2019-08-06 13:46:49:916
0.43248701095581055,-0.04446092247962952,9.894782066345215,0.0035268863893556587,-0.0033558695754062136,0.0026752657293971638,-178.045797272356,-143.1452463169061,0,1.9060664176940918,2019-08-06 13:46:49:919
0.3175390064716339,-0.05164517089724541,9.861255645751953,0.004592411159786882,-0.003622250702995438,0.0018761223466294901,-178.0472424293283,-143.8772939934717,0,1.9097657203674316,2019-08-06 13:46:49:923
