ACCELEROMETER X (m/s²),ACCELEROMETER Y (m/s²),ACCELEROMETER Z (m/s²),GYROSCOPE X (rad/s),GYROSCOPE Y (rad/s),GYROSCOPE Z (rad/s),Time since start in ms ,YYYY-MO-DD HH-MI-SS_SSS,Pitch (Deg),Roll (Deg),Heading (Deg),MagX,MagY,MagZ
0.15001431107521057,-0.037178490310907364,9.788373947143555,-0.002912345062988736,0.0010391528437441464,-0.00793309707593909,0.0,2019-07-26 15:05:46:501,-3.5824393426542662,-3.595647570574226,0,-45.28156280517578,20.69157600402832,-29.08815574645996
0.15719854831695557,-0.06591548770666122,9.776400566101074,-0.0018468204225946753,-0.0008255151794175883,-0.003670998514362848,0.010008096694946289,2019-07-26 15:05:46:511,-7.091902619957339,-7.114970795490223,0,-45.28156280517578,20.69157600402832,-29.08815574645996
0.15959329903125763,-0.051546987146139145,9.77879524230957,-0.0007812959122377771,0.004768488760030453,-0.002871855131595174,0.020002126693725586,2019-07-26 15:05:46:521,-10.534040392950388,-10.566192533199727,0,-45.28156280517578,20.69157600402832,-29.08815574645996
0.15240906178951263,-0.08267873525619507,9.795557975769043,-0.00024853360829539187,0.0021046773541010446,-0.00899862158629599,0.030002117156982422,2019-07-26 15:05:46:531,-13.9067134981726,-13.94505733911145,0,-45.28156280517578,20.69157600402832,-29.08815574645996
0.15719854831695557,-0.07070498168468475,9.857821464538574,-0.00024853360829539187,0.0021046773541010446,0.0003247186270405554,0.040003299713134766,2019-07-26 15:05:46:541,-17.21148925437113,-17.25779771413013,0,-44.53186798095703,19.64200210571289,-28.33846092224121
0.1619880497455597,-0.0874682292342186,9.793163299560547,-0.00024853360829539187,0.0026374397393166566,-0.00047442482074569963,0.05000185966491699,2019-07-26 15:05:46:551,-20.449787391195336,-20.502267686526245,0,-44.53186798095703,19.64200210571289,-28.33846092224121
0.19311979413032532,-0.06591548770666122,9.845848083496094,0.004279945902068978,-0.0008255151794175883,-0.0026054740040059496,0.060007572174072266,2019-07-26 15:05:46:561,-23.617854358723527,-23.686955386065286,0,-44.53186798095703,19.64200210571289,-28.33846092224121
0.17635655403137207,-0.037178490310907364,9.77879524230957,0.0016161343661024066,0.004768488760030453,0.0011238620423175197,0.0700690746307373,2019-07-26 15:05:46:571,-26.727527362064038,-26.809772623920164,0,-44.53186798095703,19.64200210571289,-28.33846092224121
0.18593555688858032,-0.05394173786044121,9.785979270935059,0.0021488966212808557,0.0015719150989225955,-0.002871855131595174,0.0800027847290039,2019-07-26 15:05:46:581,-29.77208358689609,-29.868459386359294,0,-44.53186798095703,19.64200210571289,-28.33846092224121
0.15719854831695557,-0.04675748944282532,9.857821464538574,-0.0018468204225946753,-0.0010918963070068127,-0.004736523024719746,0.09000802040100098,2019-07-26 15:05:46:591,-32.75775660880974,-32.864617417511546,0,-44.53186798095703,19.64200210571289,-28.33846092224121
0.11888255923986435,-0.03957323729991913,9.84824275970459,0.00294804000404853,0.00343658312208433,-0.0031382362591843983,0.10000109672546387,2019-07-26 15:05:46:601,-35.69069758771834,-35.804374630636495,0,-44.53186798095703,19.64200210571289,-28.33846092224121
0.18354080617427826,-0.06591548770666122,9.793163299560547,0.0013497532385131823,0.0021046773541010446,-0.002339092876416725,0.11000347137451172,2019-07-26 15:05:46:611,-38.55659176538817,-38.68133242971233,0,-44.53186798095703,19.64200210571289,-28.33846092224121
0.18354080617427826,-0.044362738728523254,9.850637435913086,0.004013564774479754,0.0018382962265118203,0.0005910997871390706,0.12000441551208496,2019-07-26 15:05:46:621,-41.365143565518636,-41.50479896335602,0,-44.53186798095703,19.64200210571289,-28.33846092224121
0.13085630536079407,-0.05394173786044121,9.805137634277344,-0.0010476770398270016,0.006100394397976576,-0.0007408059808442149,0.13000011444091797,2019-07-26 15:05:46:631,-44.12597246025256,-44.267810920231526,0,-44.53186798095703,19.64200210571289,-28.33846092224121
0.1548037976026535,-0.05633648484945297,9.788373947143555,-0.0021132015501838996,0.0026374397393166566,-0.0007408059808442149,0.13999724388122559,2019-07-26 15:05:46:641,-46.82681228271925,-46.974673296981805,0,-44.53186798095703,19.64200210571289,-28.33846092224121
0.1811460554599762,-0.018020492047071457,9.833874702453613,0.0013497532385131823,0.005034869887619677,0.002988529935442092,0.1500072479248047,2019-07-26 15:05:46:651,-49.47199985082869,-49.63383859558328,0,-44.53186798095703,19.64200210571289,-28.33846092224121
0.128461554646492,-0.018020492047071457,9.874585151672363,-0.0042442507009348585,0.0026374397393166566,-0.004736523024719746,0.15999770164489746,2019-07-26 15:05:46:661,-52.06913262690003,-52.236689736689435,0,-44.53186798095703,19.64200210571289,-28.33846092224121
0.14043530821800232,-0.02041524089872837,9.821900367736816,0.0013497532385131823,0.00343658312208433,-0.00846585933111754,0.17000222206115723,2019-07-26 15:05:46:671,-54.61329709138329,-54.79033233791749,0,-44.231990814208984,20.541635513305664,-28.938217163085938
0.12606680393218994,0.003532255766913295,9.747663497924805,-0.0015804392950054507,0.0018382962265118203,0.0019230054250851934,0.1800074577331543,2019-07-26 15:05:46:681,-57.10724455872352,-50.09405305684451,0,-44.231990814208984,20.541635513305664,-28.938217163085938
0.1093035638332367,-0.037178490310907364,9.805137634277344,-0.00371148844575641,-0.0010918963070068127,-0.007133953173022766,0.18999910354614258,2019-07-26 15:05:46:691,-59.55171342394702,-52.68574475278669,0,-44.231990814208984,20.541635513305664,-28.938217163085938
0.09972456097602844,-0.04196798801422119,9.771611213684082,0.0016161343661024066,-0.001624658562185262,-0.003404617386773623,0.20000314712524414,2019-07-26 15:05:46:701,-61.9480722625706,-55.228016131620045,0,-44.231990814208984,20.541635513305664,-28.938217163085938
0.15719854831695557,-0.04196798801422119,9.83626937866211,-0.0015804392950054507,0.0015719150989225955,-0.009797764448915013,0.2102193832397461,2019-07-26 15:05:46:711,-64.29170061563829,-57.71766000621255,0,-44.231990814208984,20.541635513305664,-28.938217163085938
0.10451406240463257,-0.04196798801422119,9.814716339111328,-0.0013140581674162262,0.0005063905560564065,0.0003247186270405554,0.2199866771697998,2019-07-26 15:05:46:721,-66.59394226327993,-60.15768619857674,0,-44.231990814208984,20.541635513305664,-28.938217163085938
0.11169830709695816,0.0059270053170621395,9.740479469299316,-0.0005149147521392618,-0.0026901830725421603,0.0008574809147282953,0.23000741004943848,2019-07-26 15:05:46:731,-68.84740961647677,-55.35494003179324,0,-44.231990814208984,20.541635513305664,-28.938217163085938
0.15240906178951263,-0.06352073699235916,9.862611770629883,-0.0007812959122377771,0.0021046773541010446,-0.00047442482074569963,0.24001836776733398,2019-07-26 15:05:46:741,-71.05393782176553,-57.84002181846774,0,-44.231990814208984,20.541635513305664,-28.938217163085938
0.1619880497455597,-0.044362738728523254,9.795557975769043,-0.0007812959122377771,0.005301251015208902,-0.005269285279898195,0.2500321865081787,2019-07-26 15:05:46:751,-73.21689167271435,-60.27759242020453,0,-44.231990814208984,20.541635513305664,-28.938217163085938
0.14283005893230438,-0.04675748944282532,9.831480026245117,-0.0005149147521392618,-2.63717336631639e-05,-0.004736523024719746,0.2603120803833008,2019-07-26 15:05:46:761,-75.33589212262265,-62.66629354200879,0,-44.231990814208984,20.541635513305664,-28.938217163085938
0.15719854831695557,-0.022809991613030434,9.764426231384277,-0.002379582807810287,0.004768488760030453,-0.00020804367690182974,0.2700083255767822,2019-07-26 15:05:46:771,-77.41332382497463,-65.00899523611714,0,-44.231990814208984,20.541635513305664,-28.938217163085938
0.14522480964660645,-0.022809991613030434,9.817111015319824,0.004546327029658202,0.004502107632441229,-0.0007408059808442149,0.2800321578979492,2019-07-26 15:05:46:781,-79.45064097402728,-67.30871164924814,0,-44.231990814208984,20.541635513305664,-28.938217163085938
0.128461554646492,-0.029994240030646324,9.797953605651855,-0.002912345062988736,0.0026374397393166566,5.833747100570152e-05,0.29026269912719727,2019-07-26 15:05:46:791,-81.44811990773817,-69.55735648566419,0,-43.78217315673828,20.39169692993164,-27.288888931274414
0.14043530821800232,-0.051546987146139145,9.726110458374023,-0.0026459639353995116,0.0015719150989225955,-0.004736523024719746,0.30000853538513184,2019-07-26 15:05:46:801,-83.40347297914789,-71.75868828101623,0,-43.78217315673828,20.39169692993164,-27.288888931274414
0.16917230188846588,-0.037178490310907364,9.764426231384277,0.0005506098557455085,0.005301251015208902,-0.00020804367690182974,0.3100318908691406,2019-07-26 15:05:46:811,-85.3185356908646,-73.91946130029328,0,-43.78217315673828,20.39169692993164,-27.288888931274414
0.12606680393218994,-0.022809991613030434,9.831480026245117,-0.00024853360829539187,0.001305533971333371,-0.0007408059808442149,0.3202676773071289,2019-07-26 15:05:46:821,-87.1982223106276,-76.03827060152065,0,-43.78217315673828,20.39169692993164,-27.288888931274414
0.14283005893230438,-0.029994240030646324,9.817111015319824,1.7847537580308712e-05,0.0015719150989225955,-0.003404617386773623,0.33000755310058594,2019-07-26 15:05:46:831,-89.03844667728224,-78.1140138427479,0,-43.78217315673828,20.39169692993164,-27.288888931274414
0.12367206066846848,-0.025204740464687347,9.79076862335205,-0.0013140581674162262,0.0021046773541010446,-0.002339092876416725,0.3399934768676758,2019-07-26 15:05:46:841,-90.84438399458017,-80.14804679594008,0,-43.78217315673828,20.39169692993164,-27.288888931274414
0.15001431107521057,-0.04915223643183708,9.838664054870605,-0.0034451073181671855,0.0015719150989225955,0.00432043583346254,0.35001373291015625,2019-07-26 15:05:46:851,-92.6109098203433,-82.13742277331129,0,-43.78217315673828,20.39169692993164,-27.288888931274414
0.16677755117416382,-0.044362738728523254,9.826689720153809,1.7847537580308712e-05,0.0018382962265118203,0.0019230054250851934,0.36023426055908203,2019-07-26 15:05:46:861,-94.34030009499625,-84.08951134216728,0,-43.78217315673828,20.39169692993164,-27.288888931274414
0.14043530821800232,-0.025204740464687347,9.735690116882324,-0.0034451073181671855,0.005567632142798127,0.00778339049212246,0.37003374099731445,2019-07-26 15:05:46:871,-96.04002917607632,-86.0028588255255,0,-43.78217315673828,20.39169692993164,-27.288888931274414
0.11648780852556229,-0.05633648484945297,9.821900367736816,0.0002842286956469933,0.0029038208669058814,0.0024557676802636425,0.3800323009490967,2019-07-26 15:05:46:881,-97.70726891929652,-87.87638854614357,0,-43.78217315673828,20.39169692993164,-27.288888931274414
0.14043530821800232,-0.04196798801422119,9.759636878967285,1.7847537580308712e-05,-0.0008255151794175883,0.003787673578284091,0.3902614116668701,2019-07-26 15:05:46:891,-99.33616149675504,-89.71394343759845,0,-43.78217315673828,20.39169692993164,-27.288888931274414
0.1356458067893982,-0.06591548770666122,9.797953605651855,0.0002842286956469933,0.0005063905560564065,0.008582533874890132,0.4000105857849121,2019-07-26 15:05:46:901,-100.93385208700079,-91.51211115768095,0,-43.78217315673828,20.39169692993164,-27.288888931274414
0.1619880497455597,-0.04196798801422119,9.824295043945312,0.0018825154936916314,0.00024000941221253666,0.001656624297495969,0.4100341796875,2019-07-26 15:05:46:911,-102.49641739220911,-93.27803330008214,0,-43.78217315673828,20.39169692993164,-27.288888931274414
0.11888255923986435,-0.006046743132174015,9.781189918518066,0.0018825154936916314,0.0007727717161549218,0.001656624297495969,0.4200458526611328,2019-07-26 15:05:46:921,-104.03299645719841,-95.01282249155892,0,-43.632232666015625,19.342124938964844,-29.238094329833984
0.12606680393218994,-0.022809991613030434,9.80753231048584,0.0005506098557455085,-0.0005591340518283637,0.0005910997871390706,0.43001794815063477,2019-07-26 15:05:46:931,-105.53729457172977,-96.71020922290798,0,-43.632232666015625,19.342124938964844,-29.238094329833984
0.1548037976026535,-0.029994240030646324,9.80753231048584,0.000816990983334733,-0.0010918963070068127,0.003521292450694866,0.4400351047515869,2019-07-26 15:05:46:941,-107.00784870081041,-98.37296003798664,0,-43.632232666015625,19.342124938964844,-29.238094329833984
0.15001431107521057,-0.0611259862780571,9.809926986694336,-0.0026459639353995116,0.005301251015208902,-0.006334809790255094,0.4500081539154053,2019-07-26 15:05:46:951,-108.45313826824352,-99.99687898984985,0,-43.632232666015625,19.342124938964844,-29.238094329833984
0.13085630536079407,-0.04196798801422119,9.785979270935059,-0.0007812959122377771,0.0010391528437441464,-0.004203760769541297,0.460040807723999,2019-07-26 15:05:46:961,-109.86933883286865,-101.59158695652759,0,-43.632232666015625,19.342124938964844,-29.238094329833984
0.128461554646492,-0.029994240030646324,9.795557975769043,0.0005506098557455085,0.0031702019944951057,0.0008574809147282953,0.47024989128112793,2019-07-26 15:05:46:971,-111.25874235789084,-103.15656203742512,0,-43.632232666015625,19.342124938964844,-29.238094329833984
0.1356458067893982,-0.029994240030646324,9.84824275970459,0.0024152777488700805,0.0007727717161549218,0.002189386552674418,0.4802248477935791,2019-07-26 15:05:46:981,-112.61821794349584,-104.69129353552717,0,-43.632232666015625,19.342124938964844,-29.238094329833984
0.14522480964660645,-0.05633648484945297,9.754847526550293,-0.003977869573345634,0.0026374397393166566,0.0005910997871390706,0.49003124237060547,2019-07-26 15:05:46:991,-113.95024733062245,-106.188659487419,0,-43.632232666015625,19.342124938964844,-29.238094329833984
0.15240906178951263,-0.05394173786044121,9.757242202758789,-0.0034451073181671855,0.0007727717161549218,0.0003247186270405554,0.5001559257507324,2019-07-26 15:05:47:001,-115.25378384818998,-107.65659276382846,0,-43.632232666015625,19.342124938964844,-29.238094329833984
0.1093035638332367,-0.037178490310907364,9.788373947143555,0.0013497532385131823,0.006100394397976576,0.0005910997871390706,0.5102307796478271,2019-07-26 15:05:47:011,-116.53936364254936,-109.09987203679448,0,-43.632232666015625,19.342124938964844,-29.238094329833984
0.13325105607509613,-0.04196798801422119,9.797953605651855,-0.0005149147521392618,0.00343658312208433,-0.001273568236022664,0.5200116634368896,2019-07-26 15:05:47:021,-117.79488036381693,-110.51268348872833,0,-43.632232666015625,19.342124938964844,-29.238094329833984
0.11888255923986435,-0.02041524089872837,9.785979270935059,-0.0015804392950054507,0.0007727717161549218,5.833747100570152e-05,0.5300464630126953,2019-07-26 15:05:47:031,-119.02549798820013,-111.89914874214485,0,-43.632232666015625,19.342124938964844,-29.238094329833984
0.18833030760288239,-0.0347837395966053,9.757242202758789,-0.002912345062988736,0.0018382962265118203,-0.0031382362591843983,0.5400032997131348,2019-07-26 15:05:47:041,-120.2239005248917,-113.25545247347952,0,-44.231990814208984,19.64200210571289,-28.938217163085938
0.16438280045986176,-0.08267873525619507,9.781189918518066,0.0016161343661024066,-0.0005591340518283637,-0.004470141897130521,0.5502116680145264,2019-07-26 15:05:47:051,-121.3998455606236,-114.5815837908337,0,-44.231990814208984,19.64200210571289,-28.938217163085938
0.1619880497455597,-0.018020492047071457,9.812321662902832,-0.0010476770398270016,0.00024000941221253666,0.00432043583346254,0.5600259304046631,2019-07-26 15:05:47:061,-122.55306512582936,-115.88727028146916,0,-44.231990814208984,19.64200210571289,-28.938217163085938
0.13085630536079407,-0.02759948931634426,9.776400566101074,1.7847537580308712e-05,0.0010391528437441464,0.003787673578284091,0.5699930191040039,2019-07-26 15:05:47:071,-123.68724831726288,-117.16629986982734,0,-44.231990814208984,19.64200210571289,-28.938217163085938
0.10690881311893463,-0.06591548770666122,9.788373947143555,-0.004510631828524084,0.0015719150989225955,0.001656624297495969,0.5800087451934814,2019-07-26 15:05:47:081,-124.80187215211289,-118.41272062927199,0,-44.231990814208984,19.64200210571289,-28.938217163085938
0.19790929555892944,-0.015625741332769394,9.833874702453613,0.0005506098557455085,0.0018382962265118203,5.833747100570152e-05,0.5901668071746826,2019-07-26 15:05:47:091,-125.88382448746557,-119.6429594450573,0,-44.231990814208984,19.64200210571289,-28.938217163085938
0.17396180331707,-0.006046743132174015,9.812321662902832,0.0018825154936916314,0.004768488760030453,0.00432043583346254,0.6002671718597412,2019-07-26 15:05:47:101,-126.94853865989649,-120.85046173618741,0,-44.231990814208984,19.64200210571289,-28.938217163085938
0.16438280045986176,-0.05394173786044121,9.862611770629883,-0.0013140581674162262,0.002371058611727432,0.009914440032984907,0.6100168228149414,2019-07-26 15:05:47:111,-127.99176838799336,-122.02646581970116,0,-44.231990814208984,19.64200210571289,-28.938217163085938
0.16438280045986176,-0.080283984541893,9.841058731079102,-0.0015804392950054507,0.0010391528437441464,-0.00020804367690182974,0.6200377941131592,2019-07-26 15:05:47:121,-129.013378394053,-123.17569898271134,0,-44.231990814208984,19.64200210571289,-28.938217163085938
0.12367206066846848,-0.04196798801422119,9.762031555175781,-0.002912345062988736,-2.63717336631639e-05,0.0027221488078528673,0.6300456523895264,2019-07-26 15:05:47:131,-130.01857954470674,-124.30562206037796,0,-44.231990814208984,19.64200210571289,-28.938217163085938
0.14283005893230438,-0.008441492915153503,9.793163299560547,-0.004777012956113309,-0.0018910396897744866,0.0032549110630313164,0.6400425434112549,2019-07-26 15:05:47:141,-131.0004348513788,-125.41584041284163,0,-44.231990814208984,19.64200210571289,-28.938217163085938
0.16438280045986176,-0.04675748944282532,9.76682186126709,-0.0007812959122377771,0.002371058611727432,0.003787673578284091,0.6502523422241211,2019-07-26 15:05:47:151,-131.9625006500436,-126.50158981251121,0,-44.231990814208984,19.64200210571289,-28.938217163085938
0.15959329903125763,-0.022809991613030434,9.785979270935059,0.000816990983334733,-0.0013582774345960375,0.0003247186270405554,0.6600372791290283,2019-07-26 15:05:47:161,-132.90381801782004,-127.56933589725267,0,-44.231990814208984,19.64200210571289,-28.938217163085938
0.11409305781126022,-0.05394173786044121,9.740479469299316,0.0013497532385131823,-0.001624658562185262,0.005652341471408663,0.6700575351715088,2019-07-26 15:05:47:171,-133.83140573857793,-128.6123627054711,0,-44.68180847167969,19.791940689086914,-29.08815574645996
0.1021193116903305,-0.018020492047071457,9.817111015319824,-0.0010476770398270016,0.0010391528437441464,0.002189386552674418,0.6800589561462402,2019-07-26 15:05:47:181,-134.74344160445492,-129.63742363453963,0,-44.68180847167969,19.791940689086914,-29.08815574645996
0.09972456097602844,-0.029994240030646324,9.76682186126709,0.0013497532385131823,0.003969345377262779,-0.0007408059808442149,0.6900405883789062,2019-07-26 15:05:47:191,-135.63909744604504,-130.64191251994717,0,-44.68180847167969,19.791940689086914,-29.08815574645996
0.12606680393218994,-0.05394173786044121,9.795557975769043,-0.0013140581674162262,-0.0013582774345960375,-0.005002904152308971,0.7000572681427002,2019-07-26 15:05:47:201,-136.51080467172648,-131.62202498435022,0,-44.68180847167969,19.791940689086914,-29.08815574645996
0.12606680393218994,-0.04196798801422119,9.797953605651855,-0.0015804392950054507,0.002371058611727432,5.833747100570152e-05,0.7100379467010498,2019-07-26 15:05:47:211,-137.36717407503417,-132.58379046619078,0,-44.68180847167969,19.791940689086914,-29.08815574645996
0.15240906178951263,-0.07070498168468475,9.800348281860352,0.0005506098557455085,0.0031702019944951057,-0.001273568236022664,0.7200629711151123,2019-07-26 15:05:47:221,-138.20379596554665,-133.52415748948206,0,-44.68180847167969,19.791940689086914,-29.08815574645996
0.15240906178951263,-0.037178490310907364,9.80753231048584,0.0018825154936916314,0.0031702019944951057,0.0013902431699067445,0.7308249473571777,2019-07-26 15:05:47:232,-139.0238296508421,-134.4504679854213,0,-44.68180847167969,19.791940689086914,-29.08815574645996
0.15719854831695557,-0.07070498168468475,9.821900367736816,-0.0018468204225946753,0.005034869887619677,0.0005910997871390706,0.7400863170623779,2019-07-26 15:05:47:241,-139.82763261382942,-135.35224926562478,0,-44.68180847167969,19.791940689086914,-29.08815574645996
0.15001431107521057,-0.044362738728523254,9.831480026245117,0.004013564774479754,-0.0032229453277206094,0.0008574809147282953,0.7500226497650146,2019-07-26 15:05:47:251,-140.611798129178,-136.24227284586655,0,-44.68180847167969,19.791940689086914,-29.08815574645996
0.19551454484462738,-0.058731235563755035,9.81950569152832,1.7847537580308712e-05,0.0015719150989225955,0.006185103726587112,0.7600462436676025,2019-07-26 15:05:47:261,-141.37763375686438,-137.11058370444889,0,-44.68180847167969,19.791940689086914,-29.08815574645996
0.15001431107521057,-0.07549448311328888,9.821900367736816,-0.0042442507009348585,-0.0010918963070068127,-0.002871855131595174,0.7701160907745361,2019-07-26 15:05:47:271,-142.13196297660656,-137.95716451839385,0,-44.68180847167969,19.791940689086914,-29.08815574645996
0.15719854831695557,-0.02759948931634426,9.776400566101074,-0.00024853360829539187,0.003702964249673555,-0.003404617386773623,0.7800307273864746,2019-07-26 15:05:47:281,-142.8729611427346,-138.79464787360126,0,-44.68180847167969,19.791940689086914,-29.08815574645996
0.15240906178951263,-0.044362738728523254,9.742874145507812,0.004013564774479754,-0.0008255151794175883,0.0008574809147282953,0.7900335788726807,2019-07-26 15:05:47:291,-143.59711401572036,-139.6157914485349,0,-44.231990814208984,19.342124938964844,-29.83785057067871
0.1476195603609085,-0.02759948931634426,9.77879524230957,-0.0005149147521392618,0.0026374397393166566,0.0005910997871390706,0.8002712726593018,2019-07-26 15:05:47:301,-144.3093905595803,-140.41994542113252,0,-44.231990814208984,19.342124938964844,-29.83785057067871
0.13804055750370026,-0.03238898888230324,9.843453407287598,0.0024152777488700805,0.004235726504852004,-0.00020804367690182974,0.8100383281707764,2019-07-26 15:05:47:311,-145.009456903179,-141.20910057902248,0,-44.231990814208984,19.342124938964844,-29.83785057067871
0.13804055750370026,-0.04915223643183708,9.769216537475586,-0.00024853360829539187,0.0018382962265118203,-0.004470141897130521,0.8200671672821045,2019-07-26 15:05:47:321,-145.69411205372532,-141.97901317299267,0,-44.231990814208984,19.342124938964844,-29.83785057067871
0.16438280045986176,-0.05633648484945297,9.809926986694336,-0.0010476770398270016,0.004768488760030453,-0.00047442482074569963,0.8302567005157471,2019-07-26 15:05:47:331,-146.36375800018712,-142.73225279471177,0,-44.231990814208984,19.342124938964844,-29.83785057067871
0.14283005893230438,-0.01323099248111248,9.800348281860352,-0.0010476770398270016,-0.0005591340518283637,0.0005910997871390706,0.8400092124938965,2019-07-26 15:05:47:341,-147.01947729093982,-143.47548698236673,0,-44.231990814208984,19.342124938964844,-29.83785057067871
0.1476195603609085,-0.07070498168468475,9.81950569152832,-0.0013140581674162262,0.0021046773541010446,-0.00047442482074569963,0.8500356674194336,2019-07-26 15:05:47:351,-147.66304705140288,-144.19698646934398,0,-44.231990814208984,19.342124938964844,-29.83785057067871
0.13085630536079407,-0.010836242698132992,9.826689720153809,-0.00371148844575641,0.002371058611727432,5.833747100570152e-05,0.8600466251373291,2019-07-26 15:05:47:361,-148.29586032658756,-144.90969681901132,0,-44.231990814208984,19.342124938964844,-29.83785057067871
0.18833030760288239,-0.07070498168468475,9.829085350036621,0.0032144211316377544,0.0007727717161549218,0.003521292450694866,0.8700406551361084,2019-07-26 15:05:47:371,-148.9084231281987,-145.60506375997545,0,-44.231990814208984,19.342124938964844,-29.83785057067871
0.15001431107521057,-0.044362738728523254,9.812321662902832,0.0013497532385131823,0.0007727717161549218,5.833747100570152e-05,0.8800258636474609,2019-07-26 15:05:47:381,-149.51317012817017,-146.28853845533985,0,-44.231990814208984,19.342124938964844,-29.83785057067871
0.17635655403137207,-0.08267873525619507,9.843453407287598,0.0032144211316377544,0.0026374397393166566,5.833747100570152e-05,0.8900518417358398,2019-07-26 15:05:47:391,-150.10386331942408,-146.95495253377592,0,-44.231990814208984,19.342124938964844,-29.83785057067871
0.17156705260276794,-0.04915223643183708,9.812321662902832,-0.003178726190577961,0.004502107632441229,0.0013902431699067445,0.9000561237335205,2019-07-26 15:05:47:401,-150.68428093267804,-147.60832775460366,0,-44.231990814208984,19.342124938964844,-29.83785057067871
0.1476195603609085,-0.018020492047071457,9.814716339111328,-0.0010476770398270016,0.0005063905560564065,-0.0007408059808442149,0.9100520610809326,2019-07-26 15:05:47:411,-151.2536455381344,-148.25346919205495,0,-44.231990814208984,19.342124938964844,-29.83785057067871
0.1619880497455597,-0.06831023842096329,9.769216537475586,0.00294804000404853,0.0021046773541010446,0.00778339049212246,0.9199976921081543,2019-07-26 15:05:47:421,-151.81074874255785,-148.88203356294093,0,-42.58266067504883,19.791940689086914,-28.788278579711914
0.17875130474567413,-0.06591548770666122,9.793163299560547,-0.0013140581674162262,0.0010391528437441464,0.0011238620423175197,0.9300031661987305,2019-07-26 15:05:47:431,-152.35420388179494,-149.49594187301875,0,-42.58266067504883,19.791940689086914,-28.788278579711914
0.14283005893230438,-0.05633648484945297,9.83626937866211,0.0005506098557455085,-0.0008255151794175883,0.003521292450694866,0.9399979114532471,2019-07-26 15:05:47:441,-152.8900181317555,-150.09976896714693,0,-42.58266067504883,19.791940689086914,-28.788278579711914
0.14043530821800232,-0.022809991613030434,9.785979270935059,-0.0026459639353995116,0.006366775525565801,-0.002871855131595174,0.9500081539154053,2019-07-26 15:05:47:451,-153.419352844748,-150.69361536838312,0,-42.58266067504883,19.791940689086914,-28.788278579711914
0.1476195603609085,-0.044362738728523254,9.757242202758789,-0.00664168084923788,0.0031702019944951057,-0.003937379641952073,0.9604015350341797,2019-07-26 15:05:47:461,-153.93548037850314,-151.27065702474002,0,-42.58266067504883,19.791940689086914,-28.788278579711914
0.14283005893230438,-0.06352073699235916,9.831480026245117,0.0010833721109239577,0.0029038208669058814,0.0008574809147282953,0.970005989074707,2019-07-26 15:05:47:471,-154.4416902744807,-151.83842453015205,0,-42.58266067504883,19.791940689086914,-28.788278579711914
0.11409305781126022,-0.07309973239898682,9.752452850341797,-0.0015804392950054507,0.004768488760030453,0.0003247186270405554,0.9800257682800293,2019-07-26 15:05:47:481,-154.9421339142326,-152.3921777942518,0,-42.58266067504883,19.791940689086914,-28.788278579711914
0.15240906178951263,-0.029994240030646324,9.838664054870605,-0.003178726190577961,0.003969345377262779,0.006451484854176337,0.9900178909301758,2019-07-26 15:05:47:491,-155.42776849959526,-152.93905735613782,0,-42.58266067504883,19.791940689086914,-28.788278579711914
0.15719854831695557,-0.05633648484945297,9.853032112121582,-0.00024853360829539187,-0.0010918963070068127,-0.004736523024719746,1.0000646114349365,2019-07-26 15:05:47:501,-155.900316399752,-153.47358409846328,0,-42.58266067504883,19.791940689086914,-28.788278579711914
0.128461554646492,-0.05394173786044121,9.838664054870605,-0.005309775211291758,0.003702964249673555,0.005385960343819439,1.0100326538085938,2019-07-26 15:05:47:511,-156.36942148596566,-153.9948579466045,0,-42.58266067504883,19.791940689086914,-28.788278579711914
0.1548037976026535,-0.058731235563755035,9.833874702453613,0.0021488966212808557,-0.0005591340518283637,0.002189386552674418,1.0200552940368652,2019-07-26 15:05:47:521,-156.82368100233322,-154.50932640672332,0,-42.58266067504883,19.791940689086914,-28.788278579711914
0.16677755117416382,0.008321755565702915,9.833874702453613,-0.0013140581674162262,-0.0008255151794175883,0.004054054705873315,1.0300171375274658,2019-07-26 15:05:47:531,-157.26731333821834,-147.8193745641504,0,-42.58266067504883,19.791940689086914,-28.788278579711914
0.14283005893230438,-0.03957323729991913,9.860217094421387,0.0010833721109239577,0.004502107632441229,-0.0007408059808442149,1.0400500297546387,2019-07-26 15:05:47:541,-157.707905327703,-148.45899836464415,0,-43.632232666015625,20.541635513305664,-30.437606811523438
0.09254030883312225,-0.037178490310907364,9.788373947143555,1.7847537580308712e-05,0.0018382962265118203,-0.0010071871084334394,1.0500531196594238,2019-07-26 15:05:47:551,-158.14394645809043,-149.08547599239003,0,-43.632232666015625,20.541635513305664,-30.437606811523438
0.13804055750370026,-0.025204740464687347,9.797953605651855,0.0013497532385131823,0.001305533971333371,0.0008574809147282953,1.0600194931030273,2019-07-26 15:05:47:561,-158.5656547115088,-149.70157400520466,0,-43.632232666015625,20.541635513305664,-30.437606811523438
0.13085630536079407,-0.04196798801422119,9.788373947143555,-0.002379582807810287,-0.001624658562185262,0.001656624297495969,1.0700087547302246,2019-07-26 15:05:47:571,-158.97811204311378,-150.30129470520856,0,-43.632232666015625,20.541635513305664,-30.437606811523438
0.1476195603609085,0.0011375061003491282,9.812321662902832,0.0016161343661024066,0.0018382962265118203,0.005918722598997886,1.0800421237945557,2019-07-26 15:05:47:581,-159.38234724417094,-143.6963121382004,0,-43.632232666015625,20.541635513305664,-30.437606811523438
0.15719854831695557,-0.058731235563755035,9.814716339111328,-0.0015804392950054507,-0.002157420817363711,0.005385960343819439,1.0900468826293945,2019-07-26 15:05:47:591,-159.77513621252194,-144.4146409847241,0,-43.632232666015625,20.541635513305664,-30.437606811523438
0.11888255923986435,-0.02041524089872837,9.762031555175781,0.0013497532385131823,0.0021046773541010446,0.0013902431699067445,1.1000080108642578,2019-07-26 15:05:47:601,-160.166856334461,-145.12470666505766,0,-43.632232666015625,20.541635513305664,-30.437606811523438
0.1548037976026535,-0.010836242698132992,9.795557975769043,-0.0007812959122377771,0.005301251015208902,0.0005910997871390706,1.1100125312805176,2019-07-26 15:05:47:611,-160.54838926435318,-145.82050597916722,0,-43.632232666015625,20.541635513305664,-30.437606811523438
0.1548037976026535,-0.04915223643183708,9.855426788330078,0.0013497532385131823,0.004768488760030453,0.0024557676802636425,1.1199936866760254,2019-07-26 15:05:47:621,-160.92209598137384,-146.49913730757115,0,-43.632232666015625,20.541635513305664,-30.437606811523438
0.13325105607509613,-0.051546987146139145,9.76682186126709,0.0016161343661024066,0.003702964249673555,0.004586816961051765,1.130042314529419,2019-07-26 15:05:47:631,-161.29011035491365,-147.16401861479778,0,-43.632232666015625,20.541635513305664,-30.437606811523438
0.13804055750370026,-0.025204740464687347,9.785979270935059,-0.0010476770398270016,0.0021046773541010446,0.0024557676802636425,1.1400492191314697,2019-07-26 15:05:47:641,-161.64932757849556,-147.817198156674,0,-43.632232666015625,20.541635513305664,-30.437606811523438
0.11888255923986435,-0.04196798801422119,9.80753231048584,-0.002912345062988736,-2.63717336631639e-05,0.003521292450694866,1.1500248908996582,2019-07-26 15:05:47:651,-162.00243665467704,-148.4543193692608,0,-43.632232666015625,20.541635513305664,-30.437606811523438
0.19551454484462738,-0.0874682292342186,9.821900367736816,0.0013497532385131823,-0.0010918963070068127,0.01018082064042548,1.1600477695465088,2019-07-26 15:05:47:661,-162.33896586081843,-149.0757880010817,0,-43.632232666015625,20.541635513305664,-30.437606811523438
0.17396180331707,-0.044362738728523254,9.740479469299316,0.000816990983334733,-0.00029275289172984846,0.01071358289560393,1.1700084209442139,2019-07-26 15:05:47:671,-162.67155930493058,-149.68951017119457,0,-43.632232666015625,20.541635513305664,-30.437606811523438
0.19551454484462738,-0.058731235563755035,9.769216537475586,0.0005506098557455085,0.0029038208669058814,0.012045489053698703,1.1800494194030762,2019-07-26 15:05:47:681,-162.99683477047543,-150.28914139227206,0,-43.632232666015625,20.541635513305664,-30.437606811523438
0.17875130474567413,-0.05394173786044121,9.795557975769043,-0.00024853360829539187,-0.00029275289172984846,0.008049771619711684,1.1900179386138916,2019-07-26 15:05:47:691,-163.31582563551552,-150.87690923983985,0,-43.632232666015625,20.541635513305664,-30.437606811523438
0.1811460554599762,-0.03238898888230324,9.769216537475586,-0.00024853360829539187,0.004502107632441229,0.006185103726587112,1.2000072002410889,2019-07-26 15:05:47:701,-163.63078858844955,-151.4554324839296,0,-43.632232666015625,20.541635513305664,-30.437606811523438
0.14043530821800232,-0.0347837395966053,9.833874702453613,0.0010833721109239577,0.0018382962265118203,0.006984247109354786,1.2100074291229248,2019-07-26 15:05:47:711,-163.9428415958529,-152.02287891922876,0,-43.632232666015625,20.541635513305664,-30.437606811523438
0.19311979413032532,-0.022809991613030434,9.812321662902832,-0.0013140581674162262,0.0026374397393166566,0.008049771619711684,1.2200415134429932,2019-07-26 15:05:47:721,-164.24292046924995,-152.57901716212785,0,-43.632232666015625,20.541635513305664,-30.437606811523438
0.22185680270195007,-0.06352073699235916,9.771611213684082,-0.0021132015501838996,0.0031702019944951057,0.01018082064042548,1.2300240993499756,2019-07-26 15:05:47:731,-164.53382637449803,-153.11880336164174,0,-43.632232666015625,20.541635513305664,-30.437606811523438
0.18354080617427826,-0.06591548770666122,9.79076862335205,-0.004777012956113309,0.0026374397393166566,0.008848915522628007,1.2400083541870117,2019-07-26 15:05:47:741,-164.8231492584538,-153.64603457217635,0,-43.632232666015625,20.541635513305664,-30.437606811523438
0.18354080617427826,-0.080283984541893,9.80753231048584,0.005345470412425876,0.002371058611727432,0.003521292450694866,1.2500033378601074,2019-07-26 15:05:47:751,-165.1065744810341,-154.16673364944745,0,-43.632232666015625,20.541635513305664,-30.437606811523438
0.1093035638332367,-0.07788923382759094,9.867401123046875,0.0016161343661024066,0.0010391528437441464,0.004853198088640989,1.2599945068359375,2019-07-26 15:05:47:761,-165.39233289694877,-154.6752604306045,0,-43.632232666015625,20.541635513305664,-30.437606811523438
0.15959329903125763,-0.0347837395966053,9.841058731079102,0.0005506098557455085,0.00024000941221253666,-0.003937379641952073,1.2700436115264893,2019-07-26 15:05:47:771,-165.6660398825228,-155.1780156247833,0,-43.632232666015625,20.541635513305664,-30.437606811523438
0.07817181199789047,-0.08267873525619507,9.80753231048584,0.0016161343661024066,-0.0018910396897744866,0.0011238620423175197,1.2800490856170654,2019-07-26 15:05:47:781,-165.94252325829393,-155.66570328205634,0,-43.632232666015625,20.541635513305664,-30.437606811523438
0.07098756730556488,-0.01323099248111248,9.769216537475586,-0.00371148844575641,0.002371058611727432,-0.005002904152308971,1.2900338172912598,2019-07-26 15:05:47:791,-166.21667550964102,-156.1487564264436,0,-44.981685638427734,20.091819763183594,-30.287668228149414
0.06140856817364693,-0.07070498168468475,9.764426231384277,0.003480802519301304,0.0007727717161549218,-0.010863288959271912,1.3000121116638184,2019-07-26 15:05:47:801,-166.48556838899796,-156.61943400121083,0,-44.981685638427734,20.091819763183594,-30.287668228149414
0.015908321365714073,-0.0347837395966053,9.812321662902832,0.0005506098557455085,0.005301251015208902,-0.0015399493636118885,1.3100101947784424,2019-07-26 15:05:47:811,-166.75697527075832,-157.08329228471342,0,-44.981685638427734,20.091819763183594,-30.287668228149414
0.05182956904172897,-0.03238898888230324,9.793163299560547,0.004546327029658202,0.00343658312208433,-0.014059863530639908,1.3200476169586182,2019-07-26 15:05:47:821,-167.01770800906428,-157.5403988686083,0,-44.981685638427734,20.091819763183594,-30.287668228149414
0.05422431603074074,-0.05633648484945297,9.843453407287598,0.0005506098557455085,0.003969345377262779,-0.005269285279898195,1.3300132751464844,2019-07-26 15:05:47:831,-167.27326257226602,-157.9833407133595,0,-44.981685638427734,20.091819763183594,-30.287668228149414
0.07098756730556488,-0.03238898888230324,9.80753231048584,0.000816990983334733,-2.63717336631639e-05,-0.012195195117366683,1.340017557144165,2019-07-26 15:05:47:841,-167.51948843881988,-158.42034850753785,0,-44.981685638427734,20.091819763183594,-30.287668228149414
0.14283005893230438,-0.04915223643183708,9.745268821716309,-0.0018468204225946753,0.003969345377262779,-0.01485900639325893,1.3500051498413086,2019-07-26 15:05:47:851,-167.75453095058646,-158.8451262285694,0,-44.981685638427734,20.091819763183594,-30.287668228149414
0.12127730995416641,-0.11141572892665863,9.785979270935059,-0.002379582807810287,-0.0018910396897744866,-0.016190912551353704,1.3600428104400635,2019-07-26 15:05:47:861,-167.98417395033673,-159.25383657845194,0,-44.981685638427734,20.091819763183594,-30.287668228149414
0.1476195603609085,-0.05633648484945297,9.826689720153809,-0.0026459639353995116,0.005301251015208902,-0.019920247297305547,1.3700239658355713,2019-07-26 15:05:47:871,-168.21024850490298,-159.6607074709046,0,-44.981685638427734,20.091819763183594,-30.287668228149414
0.226646289229393,-0.037178490310907364,9.77879524230957,-0.0010476770398270016,0.005567632142798127,-0.027378920950398438,1.3800477981567383,2019-07-26 15:05:47:881,-168.42262270243415,-160.062546957516,0,-44.981685638427734,20.091819763183594,-30.287668228149414
0.17396180331707,-0.07070498168468475,9.814716339111328,-0.00371148844575641,0.00024000941221253666,-0.02524787192968464,1.3900322914123535,2019-07-26 15:05:47:891,-168.63399604922395,-160.45096024855926,0,-44.981685638427734,20.091819763183594,-30.287668228149414
0.219462051987648,-0.04675748944282532,9.867401123046875,-0.00371148844575641,-0.0008255151794175883,-0.022051298398613944,1.4000089168548584,2019-07-26 15:05:47:901,-168.83537144115422,-160.83443194476513,0,-44.981685638427734,20.091819763183594,-30.287668228149414
0.17396180331707,-0.022809991613030434,9.841058731079102,-0.0013140581674162262,0.002371058611727432,-0.02364958412385199,1.4100098609924316,2019-07-26 15:05:47:911,-169.0397410798902,-161.21434935102567,0,-44.981685638427734,20.091819763183594,-30.287668228149414
0.11888255923986435,-0.008441492915153503,9.814716339111328,0.000816990983334733,0.0026374397393166566,-0.021518535103138194,1.4200475215911865,2019-07-26 15:05:47:921,-169.246553319472,-161.58953724609788,0,-44.981685638427734,20.091819763183594,-30.287668228149414
0.15959329903125763,-0.010836242698132992,9.87697982788086,-0.0042442507009348585,0.004235726504852004,-0.0193874860824244,1.430011510848999,2019-07-26 15:05:47:931,-169.445477827297,-161.95411473441388,0,-44.981685638427734,20.091819763183594,-30.287668228149414
0.1548037976026535,-0.02041524089872837,9.817111015319824,-0.0005149147521392618,0.005834013270387351,-0.014326244138080481,1.4400439262390137,2019-07-26 15:05:47:941,-169.64178649423366,-162.31235938535502,0,-44.981685638427734,20.091819763183594,-30.287668228149414
0.14283005893230438,-0.04915223643183708,9.805137634277344,-0.003977869573345634,0.0018382962265118203,-0.011662432862188236,1.450007677078247,2019-07-26 15:05:47:951,-169.83328801304964,-162.6581424064032,0,-44.981685638427734,20.091819763183594,-30.287668228149414
0.17156705260276794,-0.05633648484945297,9.783584594726562,-0.00024853360829539187,0.0007727717161549218,-0.003937379641952073,1.4600470066070557,2019-07-26 15:05:47:961,-170.0169649057943,-162.9982410440183,0,-44.981685638427734,20.091819763183594,-30.287668228149414
0.22185680270195007,-0.080283984541893,9.742874145507812,-0.0026459639353995116,0.0007727717161549218,-0.006867572045433543,1.4700102806091309,2019-07-26 15:05:47:971,-170.19096857564531,-163.32735352589376,0,-44.981685638427734,20.091819763183594,-30.287668228149414
0.25059378147125244,-0.03957323729991913,9.795557975769043,-0.003977869573345634,0.004502107632441229,-0.004736523024719746,1.4800477027893066,2019-07-26 15:05:47:981,-170.3603777250011,-163.65393515029032,0,-44.981685638427734,20.091819763183594,-30.287668228149414
0.26975178718566895,-0.03957323729991913,9.829085350036621,0.0016161343661024066,0.0018382962265118203,-0.0031382362591843983,1.4900102615356445,2019-07-26 15:05:47:991,-170.52275761504532,-163.97714691947456,0,-44.981685638427734,20.091819763183594,-30.287668228149414
0.2721465528011322,-0.02041524089872837,9.783584594726562,-0.00024853360829539187,-0.0008255151794175883,-0.010064146096652888,1.500002384185791,2019-07-26 15:05:48:001,-170.67997198639955,-164.29507338047466,0,-44.981685638427734,20.091819763183594,-30.287668228149414
0.2529885470867157,-0.010836242698132992,9.800348281860352,-0.003178726190577961,-0.0010918963070068127,5.833747100570152e-05,1.5100078582763672,2019-07-26 15:05:48:011,-170.8361847402184,-164.60611904731985,0,-44.981685638427734,20.091819763183594,-30.287668228149414
0.2338305413722992,-0.018020492047071457,9.821900367736816,-0.0005149147521392618,0.0018382962265118203,0.006185103726587112,1.520040512084961,2019-07-26 15:05:48:021,-170.9932208913565,-164.91160416003106,0,-44.981685638427734,20.091819763183594,-30.287668228149414
0.20269879698753357,-0.02041524089872837,9.776400566101074,0.0002842286956469933,0.0021046773541010446,0.001656624297495969,1.5300476551055908,2019-07-26 15:05:48:031,-171.15078367776084,-165.21113886849832,0,-44.981685638427734,20.091819763183594,-30.287668228149414
0.17156705260276794,-0.022809991613030434,9.843453407287598,-0.0021132015501838996,-0.002157420817363711,0.004853198088640989,1.540024995803833,2019-07-26 15:05:48:041,-171.3065885789477,-165.50307682283565,0,-44.83174514770508,20.541635513305664,-30.437606811523438
0.15959329903125763,-0.04196798801422119,9.83626937866211,-0.004777012956113309,-0.0018910396897744866,0.006451484854176337,1.5500078201293945,2019-07-26 15:05:48:051,-171.46080598567193,-165.78544840795718,0,-44.83174514770508,20.541635513305664,-30.437606811523438
0.2074882984161377,-0.04915223643183708,9.76682186126709,-0.00371148844575641,0.008497825066428247,0.01018082064042548,1.560042142868042,2019-07-26 15:05:48:061,-171.61203736381538,-166.0618814369547,0,-44.83174514770508,20.541635513305664,-30.437606811523438
0.18354080617427826,-0.051546987146139145,9.814716339111328,0.00294804000404853,0.0021046773541010446,0.009914440032984907,1.5700185298919678,2019-07-26 15:05:48:071,-171.75954882038076,-166.33627691529972,0,-44.83174514770508,20.541635513305664,-30.437606811523438
0.18593555688858032,-0.0012572435662150383,9.76682186126709,1.7847537580308712e-05,0.004502107632441229,0.005918722598997886,1.5800466537475586,2019-07-26 15:05:48:081,-171.9050801845167,-166.60941391745672,0,-44.83174514770508,20.541635513305664,-30.437606811523438
0.18354080617427826,-0.06591548770666122,9.76682186126709,0.0002842286956469933,0.007432300035922698,0.0141765380744125,1.590010166168213,2019-07-26 15:05:48:091,-172.0496047531492,-166.86965107695409,0,-44.83174514770508,20.541635513305664,-30.437606811523438
0.16917230188846588,-0.09225773066282272,9.824295043945312,-0.00024853360829539187,-0.002423801944952936,0.009914440032984907,1.600053310394287,2019-07-26 15:05:48:101,-172.1875153485157,-167.12135718447112,0,-44.83174514770508,20.541635513305664,-30.437606811523438
0.17396180331707,-0.080283984541893,9.795557975769043,0.0018825154936916314,0.005301251015208902,0.01124634515078238,1.6100103855133057,2019-07-26 15:05:48:111,-172.3263804424594,-167.3705908672936,0,-44.83174514770508,20.541635513305664,-30.437606811523438
0.16917230188846588,-0.11859998106956482,9.783584594726562,-0.00371148844575641,0.0031702019944951057,0.01071358289560393,1.6200449466705322,2019-07-26 15:05:48:121,-172.46182648940172,-167.60719734874934,0,-44.83174514770508,20.541635513305664,-30.437606811523438
0.16438280045986176,-0.07070498168468475,9.785979270935059,-0.0013140581674162262,0.004502107632441229,0.012578251308877153,1.6300675868988037,2019-07-26 15:05:48:131,-172.59587657375607,-167.84603464327972,0,-44.83174514770508,20.541635513305664,-30.437606811523438
0.1476195603609085,-0.05633648484945297,9.800348281860352,-0.0007812959122377771,-0.001624658562185262,0.0032549110630313164,1.6400129795074463,2019-07-26 15:05:48:141,-172.7257925197156,-168.08209052177227,0,-44.83174514770508,20.541635513305664,-30.437606811523438
0.17396180331707,-0.05633648484945297,9.79076862335205,0.0026816588764593053,0.00343658312208433,0.002988529935442092,1.6500723361968994,2019-07-26 15:05:48:151,-172.85285934087966,-168.31536982415662,0,-44.83174514770508,20.541635513305664,-30.437606811523438
0.1619880497455597,-0.0347837395966053,9.831480026245117,-0.0018468204225946753,-0.0018910396897744866,-0.0055356664074874195,1.6600332260131836,2019-07-26 15:05:48:161,-172.97586555923405,-168.5439752680347,0,-44.83174514770508,20.541635513305664,-30.437606811523438
0.15959329903125763,0.010716505348682404,9.821900367736816,1.7847537580308712e-05,-0.0005591340518283637,0.002189386552674418,1.670069694519043,2019-07-26 15:05:48:171,-173.09741512808716,-161.57435610874248,0,-44.83174514770508,20.541635513305664,-30.437606811523438
0.12367206066846848,-0.018020492047071457,9.757242202758789,-0.0005149147521392618,0.005034869887619677,0.003521292450694866,1.6800403594970703,2019-07-26 15:05:48:181,-173.22376201809843,-161.94046434030705,0,-44.83174514770508,20.541635513305664,-30.437606811523438
0.04943481832742691,-0.05633648484945297,9.814716339111328,0.000816990983334733,0.004235726504852004,0.004054054705873315,1.6900298595428467,2019-07-26 15:05:48:191,-173.3558909298767,-162.2955358263757,0,-44.83174514770508,20.541635513305664,-30.437606811523438
0.030276820063591003,-0.0347837395966053,9.814716339111328,-0.0005149147521392618,-2.63717336631639e-05,-0.00047442482074569963,1.7000529766082764,2019-07-26 15:05:48:201,-173.48522331542696,-162.645274164759,0,-44.83174514770508,20.541635513305664,-30.437606811523438
-0.01043392438441515,-0.02759948931634426,9.829085350036621,-0.00024853360829539187,0.0029038208669058814,0.00725062823694401,1.71004319190979,2019-07-26 15:05:48:211,-166.41836417497692,-162.98901161209915,0,-44.83174514770508,20.541635513305664,-30.437606811523438
-0.060723669826984406,-0.02041524089872837,9.83626937866211,0.0037471836468905284,0.0026374397393166566,0.009381677777806456,1.7200415134429932,2019-07-26 15:05:48:221,-159.4985517189492,-163.32895671339443,0,-44.83174514770508,20.541635513305664,-30.437606811523438
-0.008039174601435661,-0.05394173786044121,9.809926986694336,0.00294804000404853,0.004235726504852004,0.01124634515078238,1.7300479412078857,2019-07-26 15:05:48:231,-152.71189963853067,-163.65773299360222,0,-44.83174514770508,20.541635513305664,-30.437606811523438
-0.01043392438441515,-0.044362738728523254,9.800348281860352,0.005878232667604326,0.005834013270387351,0.019770542273934866,1.7400379180908203,2019-07-26 15:05:48:241,-146.06215414956245,-163.9826885226611,0,-44.83174514770508,20.541635513305664,-30.437606811523438
-0.024802422150969505,-0.1066262274980545,9.817111015319824,0.0026816588764593053,0.007165918908333475,0.0141765380744125,1.7500338554382324,2019-07-26 15:05:48:251,-139.5478281758016,-164.29209428672422,0,-44.83174514770508,20.541635513305664,-30.437606811523438
-0.008039174601435661,-0.0874682292342186,9.805137634277344,0.004546327029658202,0.0021046773541010446,0.010979964543341806,1.7600562572479248,2019-07-26 15:05:48:261,-133.1589955623757,-164.59858883200548,0,-44.83174514770508,20.541635513305664,-30.437606811523438
0.06859281659126282,-0.08267873525619507,9.776400566101074,-0.0007812959122377771,0.0007727717161549218,0.006185103726587112,1.7700409889221191,2019-07-26 15:05:48:271,-134.08820910063426,-164.89648828479443,0,-44.83174514770508,20.541635513305664,-30.437606811523438
0.05422431603074074,-0.02759948931634426,9.774005889892578,0.0002842286956469933,-0.0005591340518283637,0.0013902431699067445,1.7800390720367432,2019-07-26 15:05:48:281,-134.99977377040204,-165.19548229554894,0,-44.83174514770508,20.541635513305664,-30.437606811523438
0.15001431107521057,-0.037178490310907364,9.77879524230957,0.0016161343661024066,0.0005063905560564065,-0.00953138384147444,1.790041208267212,2019-07-26 15:05:48:291,-135.88248483735725,-165.48812360798294,0,-43.18241882324219,21.591209411621094,-29.987789154052734
0.1619880497455597,0.0011375061003491282,9.7500581741333,0.0002842286956469933,0.002371058611727432,-0.01539176864843738,1.800037145614624,2019-07-26 15:05:48:301,-136.7471293871558,-158.5786543550825,0,-43.18241882324219,21.591209411621094,-29.987789154052734
0.14522480964660645,-0.015625741332769394,9.752452850341797,0.00294804000404853,0.001305533971333371,-0.011396051214450361,1.8100512027740479,2019-07-26 15:05:48:311,-137.59585819596379,-159.00690288849253,0,-43.18241882324219,21.591209411621094,-29.987789154052734
0.11409305781126022,-0.0347837395966053,9.855426788330078,-0.0021132015501838996,-0.0029565642001313846,-0.012195195117366683,1.8200478553771973,2019-07-26 15:05:48:321,-138.4290161829443,-159.4215342908567,0,-43.18241882324219,21.591209411621094,-29.987789154052734
0.15001431107521057,-0.01323099248111248,9.802742958068848,-0.003977869573345634,0.004235726504852004,-0.016990055413972728,1.830038070678711,2019-07-26 15:05:48:331,-139.2452769661198,-159.8293255539107,0,-43.18241882324219,21.591209411621094,-29.987789154052734
0.14283005893230438,-0.08986297994852066,9.79076862335205,-0.0015804392950054507,-0.0026901830725421603,-0.011662432862188236,1.8400399684906006,2019-07-26 15:05:48:341,-140.04214490282155,-160.221334155063,0,-43.18241882324219,21.591209411621094,-29.987789154052734
0.15959329903125763,-0.06831023842096329,9.783584594726562,-0.0042442507009348585,0.005301251015208902,-0.006867572045433543,1.8500454425811768,2019-07-26 15:05:48:351,-140.8255893559623,-160.60652222727666,0,-43.18241882324219,21.591209411621094,-29.987789154052734
0.15240906178951263,-0.09225773066282272,9.865006446838379,-0.0010476770398270016,0.0005063905560564065,-0.00793309707593909,1.860046148300171,2019-07-26 15:05:48:361,-141.5916595532247,-160.98308715967985,0,-43.18241882324219,21.591209411621094,-29.987789154052734
0.15001431107521057,-0.04915223643183708,9.800348281860352,-0.0026459639353995116,0.00024000941221253666,-0.011396051214450361,1.8700416088104248,2019-07-26 15:05:48:371,-142.34242186133702,-161.35619325922508,0,-43.18241882324219,21.591209411621094,-29.987789154052734
0.17156705260276794,-0.044362738728523254,9.812321662902832,-0.003178726190577961,0.005567632142798127,-0.009797764448915013,1.8800477981567383,2019-07-26 15:05:48:381,-143.07866744678196,-161.7221026458857,0,-43.18241882324219,21.591209411621094,-29.987789154052734
0.24819904565811157,-0.03238898888230324,9.814716339111328,-0.0042442507009348585,0.0026374397393166566,-0.00899862158629599,1.8900349140167236,2019-07-26 15:05:48:391,-143.78960084484973,-162.08149896511011,0,-43.18241882324219,21.591209411621094,-29.987789154052734
0.27454128861427307,-0.058731235563755035,9.73808479309082,0.0018825154936916314,-0.004288470098151833,-0.005002904152308971,1.9000496864318848,2019-07-26 15:05:48:401,-144.47909959133233,-162.43401654448002,0,-43.18241882324219,21.591209411621094,-29.987789154052734
0.30088353157043457,-0.044362738728523254,9.781189918518066,-0.0018468204225946753,0.004235726504852004,-0.00846585933111754,1.9100546836853027,2019-07-26 15:05:48:411,-145.15665823610783,-162.77910142591492,0,-43.18241882324219,21.591209411621094,-29.987789154052734
0.3631470203399658,-0.06352073699235916,9.733294486999512,-0.002912345062988736,0.0031702019944951057,-0.008732239938558114,1.920046329498291,2019-07-26 15:05:48:421,-145.81256961788202,-163.11440719876427,0,-43.18241882324219,21.591209411621094,-29.987789154052734
0.3176467716693878,-0.07788923382759094,9.805137634277344,0.0026816588764593053,0.00024000941221253666,-0.004736523024719746,1.9300377368927002,2019-07-26 15:05:48:431,-146.4593428264879,-163.44452087162549,0,-43.18241882324219,21.591209411621094,-29.987789154052734
0.28890979290008545,-0.09704723209142685,9.776400566101074,-0.002912345062988736,0.006366775525565801,-0.012994339020283008,1.9400389194488525,2019-07-26 15:05:48:441,-147.09987736456463,-163.76262021549573,0,-43.18241882324219,21.591209411621094,-29.987789154052734
0.26256754994392395,-0.14733697474002838,9.745268821716309,-0.005842537466470206,0.0005063905560564065,-0.008199478203528315,1.9500412940979004,2019-07-26 15:05:48:451,-147.72729719551674,-164.06676288250998,0,-43.18241882324219,21.591209411621094,-29.987789154052734
0.2673570513725281,-0.10423147678375244,9.809926986694336,-0.0026459639353995116,0.0010391528437441464,-0.003937379641952073,1.9600653648376465,2019-07-26 15:05:48:461,-148.34211339960729,-164.3717633313954,0,-43.18241882324219,21.591209411621094,-29.987789154052734
0.20509354770183563,-0.06831023842096329,9.793163299560547,-0.0013140581674162262,-0.0008255151794175883,-0.006334809790255094,1.9700422286987305,2019-07-26 15:05:48:471,-148.95081382232468,-164.6755989561742,0,-43.18241882324219,21.591209411621094,-29.987789154052734
0.15240906178951263,-0.04915223643183708,9.855426788330078,-0.002912345062988736,0.002371058611727432,0.0019230054250851934,1.9800429344177246,2019-07-26 15:05:48:481,-149.5554094084298,-164.97473657544035,0,-43.18241882324219,21.591209411621094,-29.987789154052734
0.14043530821800232,-0.051546987146139145,9.841058731079102,-0.00024853360829539187,0.0029038208669058814,0.00432043583346254,1.9900505542755127,2019-07-26 15:05:48:491,-150.14958145264103,-165.26909999105888,0,-43.18241882324219,21.591209411621094,-29.987789154052734
0.1093035638332367,-0.006046743132174015,9.805137634277344,0.0026816588764593053,0.005301251015208902,0.0003247186270405554,2.0000457763671875,2019-07-26 15:05:48:501,-150.7367913891004,-165.564516343523,0,-43.18241882324219,21.591209411621094,-29.987789154052734
0.08535606414079666,-0.04915223643183708,9.81950569152832,0.0016161343661024066,0.00024000941221253666,0.00432043583346254,2.010028123855591,2019-07-26 15:05:48:511,-151.31222946670877,-165.84839595765905,0,-43.18241882324219,21.591209411621094,-29.987789154052734
0.023092571645975113,-0.0012572435662150383,9.800348281860352,0.0005506098557455085,-0.0013582774345960375,0.0008574809147282953,2.0199930667877197,2019-07-26 15:05:48:521,-151.88252476295094,-166.13158911687387,0,-43.18241882324219,21.591209411621094,-29.987789154052734
-0.0032496752683073282,-0.02759948931634426,9.824295043945312,-0.0018468204225946753,0.0026374397393166566,0.0011238620423175197,2.03024959564209,2019-07-26 15:05:48:531,-145.24677222171405,-166.40467452212746,0,-43.18241882324219,21.591209411621094,-29.987789154052734
0.018303072080016136,-0.006046743132174015,9.769216537475586,-0.004510631828524084,-0.00029275289172984846,-0.003670998514362848,2.040041446685791,2019-07-26 15:05:48:541,-145.9395288959571,-166.67339176170415,0,-43.632232666015625,20.841514587402344,-31.33724021911621
0.06380331516265869,0.05621675029397011,9.797953605651855,-0.0021132015501838996,-0.0018910396897744866,-0.005269285279898195,2.050292491912842,2019-07-26 15:05:48:551,-146.61218786071242,-159.74528231316907,0,-43.632232666015625,20.841514587402344,-31.33724021911621
0.14043530821800232,-0.01323099248111248,9.831480026245117,-0.0021132015501838996,0.004502107632441229,-0.006867572045433543,2.0600502490997314,2019-07-26 15:05:48:561,-147.26604336316265,-160.14767670326455,0,-43.632232666015625,20.841514587402344,-31.33724021911621
0.09732981026172638,0.0370587520301342,9.814716339111328,0.0013497532385131823,0.0021046773541010446,-0.004203760769541297,2.070291042327881,2019-07-26 15:05:48:571,-147.91056937218818,-153.34982607108387,0,-43.632232666015625,20.841514587402344,-31.33724021911621
0.15719854831695557,0.0011375061003491282,9.793163299560547,0.0010833721109239577,0.0031702019944951057,-0.002871855131595174,2.080029010772705,2019-07-26 15:05:48:581,-148.53569890124072,-146.68355502356215,0,-43.632232666015625,20.841514587402344,-31.33724021911621
0.20269879698753357,0.02269025333225727,9.805137634277344,-0.0021132015501838996,0.0018382962265118203,0.0032549110630313164,2.090031147003174,2019-07-26 15:05:48:591,-149.1423315340869,-140.15134888989618,0,-43.632232666015625,20.841514587402344,-31.33724021911621
0.11169830709695816,-0.0036519933491945267,9.833874702453613,0.0021488966212808557,0.001305533971333371,0.006185103726587112,2.1000707149505615,2019-07-26 15:05:48:601,-149.74720550886565,-140.94910773173208,0,-43.632232666015625,20.841514587402344,-31.33724021911621
0.128461554646492,-0.04196798801422119,9.879374504089355,-0.0015804392950054507,0.0029038208669058814,0.011779107405960828,2.110017776489258,2019-07-26 15:05:48:611,-150.33898375228756,-141.7243749932836,0,-43.632232666015625,20.841514587402344,-31.33724021911621
0.0829613134264946,-0.044362738728523254,9.795557975769043,0.003480802519301304,0.0021046773541010446,0.013377394171496176,2.120018243789673,2019-07-26 15:05:48:621,-150.9236810591299,-142.48665239154937,0,-43.632232666015625,20.841514587402344,-31.33724021911621
0.11409305781126022,-0.006046743132174015,9.802742958068848,0.0010833721109239577,0.0029038208669058814,0.017639493253221068,2.130002498626709,2019-07-26 15:05:48:631,-151.49349877759394,-143.23681984916385,0,-43.632232666015625,20.841514587402344,-31.33724021911621
0.11888255923986435,-0.080283984541893,9.72850513458252,0.00294804000404853,0.00343658312208433,0.015242062584769399,2.140012502670288,2019-07-26 15:05:48:641,-152.0515579509751,-143.96428403425327,0,-43.632232666015625,20.841514587402344,-31.33724021911621
0.05422431603074074,-0.04196798801422119,9.754847526550293,-0.0007812959122377771,0.007698681683660573,0.02456540361083821,2.1500492095947266,2019-07-26 15:05:48:651,-152.60849571822985,-144.67962803878993,0,-43.632232666015625,20.841514587402344,-31.33724021911621
0.05422431603074074,-0.044362738728523254,9.838664054870605,0.0056118515400151005,0.0026374397393166566,0.02802835774934948,2.1604154109954834,2019-07-26 15:05:48:661,-153.1515454767949,-145.38413499483414,0,-42.882537841796875,21.591209411621094,-29.38803482055664
0.08056656271219254,-0.04675748944282532,9.795557975769043,0.0013497532385131823,0.001305533971333371,0.021368827999172915,2.170017719268799,2019-07-26 15:05:48:671,-153.67979374904007,-146.07171024051252,0,-42.882537841796875,21.591209411621094,-29.38803482055664
0.08056656271219254,-0.03238898888230324,9.718926429748535,0.0018825154936916314,0.0007727717161549218,0.024299020922803033,2.1799888610839844,2019-07-26 15:05:48:681,-154.1971315029758,-146.74751118703608,0,-42.882537841796875,21.591209411621094,-29.38803482055664
0.06140856817364693,-0.02759948931634426,9.76682186126709,-0.0026459639353995116,0.005301251015208902,0.027229213846433155,2.1900317668914795,2019-07-26 15:05:48:691,-154.70897347839707,-147.40783071654053,0,-42.882537841796875,21.591209411621094,-29.38803482055664
0.05182956904172897,-0.01323099248111248,9.805137634277344,0.003480802519301304,0.00343658312208433,0.020303303488816014,2.2001383304595947,2019-07-26 15:05:48:701,-155.21068700048127,-148.060103105055,0,-42.882537841796875,21.591209411621094,-29.38803482055664
0.11169830709695816,0.013111254200339317,9.829085350036621,-0.0013140581674162262,0.00024000941221253666,0.014442919722150374,2.210033655166626,2019-07-26 15:05:48:711,-155.69358492277897,-141.4996994880215,0,-42.882537841796875,21.591209411621094,-29.38803482055664
0.09972456097602844,-0.018020492047071457,9.7500581741333,0.00294804000404853,0.0010391528437441464,0.021102447391732337,2.2200229167938232,2019-07-26 15:05:48:721,-156.1685759511637,-142.26924111131473,0,-42.882537841796875,21.591209411621094,-29.38803482055664
0.1476195603609085,-0.080283984541893,9.7500581741333,0.003480802519301304,-0.0018910396897744866,0.019770542273934866,2.230393886566162,2019-07-26 15:05:48:731,-156.62675495676498,-143.01644776830858,0,-42.882537841796875,21.591209411621094,-29.38803482055664
0.1619880497455597,-0.12817898392677307,9.735690116882324,-0.0034451073181671855,-0.0026901830725421603,0.017905873860661645,2.240093469619751,2019-07-26 15:05:48:741,-157.0736900545225,-143.7391563810988,0,-42.882537841796875,21.591209411621094,-29.38803482055664
0.19551454484462738,-0.03238898888230324,9.781189918518066,-0.0034451073181671855,0.00024000941221253666,0.015774824839947847,2.250084400177002,2019-07-26 15:05:48:751,-157.50944843388766,-144.4586460657512,0,-42.882537841796875,21.591209411621094,-29.38803482055664
0.23622529208660126,-0.03238898888230324,9.84824275970459,-0.0026459639353995116,0.004235726504852004,0.012311869661139278,2.2600910663604736,2019-07-26 15:05:48:761,-157.93415812217359,-145.16421776503267,0,-42.882537841796875,21.591209411621094,-29.38803482055664
0.2338305413722992,-0.07309973239898682,9.92726993560791,0.0018825154936916314,-0.0008255151794175883,0.014442919722150374,2.2702524662017822,2019-07-26 15:05:48:771,-158.34801762850296,-145.85356967077158,0,-42.882537841796875,21.591209411621094,-29.38803482055664
0.19072504341602325,-0.11859998106956482,9.797953605651855,-0.0005149147521392618,0.0031702019944951057,0.013377394171496176,2.2800281047821045,2019-07-26 15:05:48:781,-158.7604940508717,-146.52234550616666,0,-42.882537841796875,21.591209411621094,-29.38803482055664
0.128461554646492,-0.14254747331142426,9.726110458374023,-0.003178726190577961,0.0015719150989225955,0.014442919722150374,2.289982318878174,2019-07-26 15:05:48:791,-159.171028491229,-147.17332839286112,0,-43.33235549926758,21.741147994995117,-31.037363052368164
0.059013817459344864,-0.058731235563755035,9.774005889892578,-0.003178726190577961,0.005034869887619677,0.010447202288163355,2.3004565238952637,2019-07-26 15:05:48:801,-159.58365029205154,-147.82110670194797,0,-43.33235549926758,21.741147994995117,-31.037363052368164
0.06140856817364693,-0.18325822055339813,9.915295600891113,0.0002842286956469933,0.009829730704374371,0.009115296130068581,2.310014247894287,2019-07-26 15:05:48:811,-159.99015562998093,-148.4436602718769,0,-43.33235549926758,21.741147994995117,-31.037363052368164
0.1548037976026535,-0.0347837395966053,9.831480026245117,-0.0010476770398270016,-0.009083330914906524,0.008316152747300909,2.3204057216644287,2019-07-26 15:05:48:821,-160.36701079413945,-149.0701215398493,0,-43.33235549926758,21.741147994995117,-31.037363052368164
0.0829613134264946,-0.058731235563755035,9.757242202758789,-0.00371148844575641,0.0010391528437441464,0.0003247186270405554,2.3300323486328125,2019-07-26 15:05:48:831,-160.7504893204914,-149.67981546023793,0,-43.33235549926758,21.741147994995117,-31.037363052368164
0.17635655403137207,-0.018020492047071457,9.802742958068848,-0.005309775211291758,-0.0008255151794175883,-0.0007408059808442149,2.3400328159332275,2019-07-26 15:05:48:841,-161.1144025801896,-150.28113103307857,0,-43.33235549926758,21.741147994995117,-31.037363052368164
0.22425153851509094,0.017900753766298294,9.77879524230957,-0.0018468204225946753,0.003969345377262779,0.004853198088640989,2.3500242233276367,2019-07-26 15:05:48:851,-161.46806737147523,-143.6765699908546,0,-43.33235549926758,21.741147994995117,-31.037363052368164
0.2338305413722992,-0.01323099248111248,9.831480026245117,-0.0034451073181671855,-0.0008255151794175883,0.00778339049212246,2.3600234985351562,2019-07-26 15:05:48:861,-161.81099337364373,-144.39956216076732,0,-43.33235549926758,21.741147994995117,-31.037363052368164
0.19551454484462738,-0.05394173786044121,9.77879524230957,-0.0018468204225946753,0.0021046773541010446,0.0011238620423175197,2.3700172901153564,2019-07-26 15:05:48:871,-162.15304647670217,-145.10421354488327,0,-43.33235549926758,21.741147994995117,-31.037363052368164
0.14522480964660645,-0.09225773066282272,9.800348281860352,0.0056118515400151005,0.006100394397976576,0.0024557676802636425,2.3800265789031982,2019-07-26 15:05:48:881,-162.49643477769862,-145.79449623851679,0,-43.33235549926758,21.741147994995117,-31.037363052368164
0.18833030760288239,-0.09465248137712479,9.838664054870605,0.0005506098557455085,-0.0013582774345960375,-0.003937379641952073,2.3900232315063477,2019-07-26 15:05:48:891,-162.82381139178747,-146.46789148107217,0,-43.33235549926758,21.741147994995117,-31.037363052368164
0.17396180331707,-0.06831023842096329,9.757242202758789,0.0026816588764593053,0.0021046773541010446,0.004054054705873315,2.400041103363037,2019-07-26 15:05:48:901,-163.14809069274563,-147.1320196914926,0,-43.33235549926758,21.741147994995117,-31.037363052368164
0.19551454484462738,-0.07309973239898682,9.774005889892578,-0.0005149147521392618,-0.0029565642001313846,0.0003247186270405554,2.4100382328033447,2019-07-26 15:05:48:911,-163.46054995724353,-147.78052012057321,0,-43.33235549926758,21.741147994995117,-31.037363052368164
0.14522480964660645,-0.04196798801422119,9.759636878967285,-0.0010476770398270016,0.005834013270387351,0.0013902431699067445,2.420053243637085,2019-07-26 15:05:48:921,-163.7775695343021,-148.41939297729778,0,-43.33235549926758,21.741147994995117,-31.037363052368164
0.1811460554599762,-0.02041524089872837,9.855426788330078,0.0013497532385131823,0.0029038208669058814,-0.00020804367690182974,2.430041551589966,2019-07-26 15:05:48:931,-164.08258678655903,-149.04938838754182,0,-43.33235549926758,21.741147994995117,-31.037363052368164
0.20269879698753357,-0.0036519933491945267,9.814716339111328,0.0010833721109239577,-0.002157420817363711,-0.009797764448915013,2.4400453567504883,2019-07-26 15:05:48:941,-164.37606050023223,-149.66858277536699,0,-43.33235549926758,21.741147994995117,-31.037363052368164
0.19072504341602325,-0.04675748944282532,9.785979270935059,-0.0015804392950054507,0.003702964249673555,-0.00953138384147444,2.4500467777252197,2019-07-26 15:05:48:951,-164.66828815971303,-150.26884842679624,0,-43.33235549926758,21.741147994995117,-31.037363052368164
0.1811460554599762,-0.02759948931634426,9.831480026245117,0.0010833721109239577,0.00343658312208433,-0.00899862158629599,2.4600331783294678,2019-07-26 15:05:48:961,-164.95573818233837,-150.86086207205776,0,-43.33235549926758,21.741147994995117,-31.037363052368164
0.1619880497455597,-0.044362738728523254,9.757242202758789,-0.006375299721648655,-0.0013582774345960375,-0.00846585933111754,2.470047950744629,2019-07-26 15:05:48:971,-165.23683707594864,-151.43484978228213,0,-43.33235549926758,21.741147994995117,-31.037363052368164
0.17396180331707,-0.025204740464687347,9.80753231048584,0.000816990983334733,-0.0008255151794175883,-0.008199478203528315,2.480046510696411,2019-07-26 15:05:48:981,-165.51131324731824,-152.00366653547505,0,-43.33235549926758,21.741147994995117,-31.037363052368164
0.1619880497455597,-0.015625741332769394,9.79076862335205,0.0021488966212808557,-0.0032229453277206094,-0.012994339020283008,2.4900503158569336,2019-07-26 15:05:48:991,-165.78031919596737,-152.56297142478036,0,-43.33235549926758,21.741147994995117,-31.037363052368164
0.18833030760288239,-0.07070498168468475,9.831480026245117,0.0002842286956469933,0.0029038208669058814,-0.013260719627723584,2.500039577484131,2019-07-26 15:05:49:001,-166.04439325554264,-153.1036304883892,0,-43.33235549926758,21.741147994995117,-31.037363052368164
0.18833030760288239,-0.025204740464687347,9.781189918518066,-0.005576156338880983,0.0007727717161549218,-0.009797764448915013,2.5100479125976562,2019-07-26 15:05:49:011,-166.3018785456519,-153.63547140912883,0,-43.33235549926758,21.741147994995117,-31.037363052368164
0.14043530821800232,-0.04196798801422119,9.795557975769043,-0.003977869573345634,-0.0026901830725421603,-0.0018063304912011133,2.520048141479492,2019-07-26 15:05:49:021,-166.55790296154285,-154.15561884252193,0,-43.33235549926758,21.741147994995117,-31.037363052368164
0.18354080617427826,-0.0611259862780571,9.793163299560547,0.0037471836468905284,0.005834013270387351,0.0005910997871390706,2.530031681060791,2019-07-26 15:05:49:031,-166.80854137606033,-154.66745467252397,0,-43.33235549926758,21.741147994995117,-31.037363052368164
0.19551454484462738,-0.01323099248111248,9.771611213684082,-0.003977869573345634,-0.0005591340518283637,-0.004736523024719746,2.540738582611084,2019-07-26 15:05:49:042,-167.04910949551828,-155.17016252358957,0,-43.632232666015625,20.241758346557617,-31.037363052368164
0.16677755117416382,-0.03238898888230324,9.814716339111328,-0.00024853360829539187,-0.001624658562185262,-0.0026054740040059496,2.5500411987304688,2019-07-26 15:05:49:051,-167.28780846875708,-155.66284789657945,0,-43.632232666015625,20.241758346557617,-31.037363052368164
0.14522480964660645,-0.02759948931634426,9.838664054870605,-0.002912345062988736,-0.0005591340518283637,0.004853198088640989,2.560027599334717,2019-07-26 15:05:49:061,-167.52482557371783,-156.14474336272912,0,-43.632232666015625,20.241758346557617,-31.037363052368164
0.128461554646492,-0.04196798801422119,9.838664054870605,-0.0007812959122377771,0.00024000941221253666,-0.00047442482074569963,2.570005178451538,2019-07-26 15:05:49:071,-167.75950237452798,-156.61652277331405,0,-43.632232666015625,20.241758346557617,-31.037363052368164
0.16917230188846588,-0.029994240030646324,9.83626937866211,-0.0005149147521392618,0.003969345377262779,0.010447202288163355,2.5800163745880127,2019-07-26 15:05:49:081,-167.98683714258888,-157.08040858193533,0,-43.632232666015625,20.241758346557617,-31.037363052368164
0.12606680393218994,-0.044362738728523254,9.821900367736816,0.0018825154936916314,0.0029038208669058814,0.004853198088640989,2.590024471282959,2019-07-26 15:05:49:091,-168.21402487588452,-157.53468255545593,0,-43.632232666015625,20.241758346557617,-31.037363052368164
0.1619880497455597,-0.010836242698132992,9.785979270935059,0.0016161343661024066,0.0010391528437441464,0.004853198088640989,2.600015878677368,2019-07-26 15:05:49:101,-168.4313606652851,-157.98362668335662,0,-43.632232666015625,20.241758346557617,-31.037363052368164
0.1619880497455597,-0.051546987146139145,9.764426231384277,-0.00371148844575641,0.003969345377262779,0.002988529935442092,2.610034227371216,2019-07-26 15:05:49:111,-168.64595777134983,-158.41581702971905,0,-43.632232666015625,20.241758346557617,-31.037363052368164
0.1811460554599762,-0.09704723209142685,9.826689720153809,-0.003178726190577961,-0.0010918963070068127,0.003521292450694866,2.6200170516967773,2019-07-26 15:05:49:121,-168.85130505498012,-158.83440234458476,0,-43.632232666015625,20.241758346557617,-31.037363052368164
0.14522480964660645,-0.07549448311328888,9.812321662902832,-0.0026459639353995116,0.002371058611727432,0.006185103726587112,2.6300137042999268,2019-07-26 15:05:49:131,-169.05865125584097,-159.24741276675843,0,-43.632232666015625,20.241758346557617,-31.037363052368164
0.15001431107521057,-0.07788923382759094,9.824295043945312,0.0026816588764593053,-2.63717336631639e-05,0.005119579216230213,2.6400387287139893,2019-07-26 15:05:49:141,-169.25996692660667,-159.65488913956486,0,-43.632232666015625,20.241758346557617,-31.037363052368164
0.1619880497455597,-0.07549448311328888,9.800348281860352,0.0005506098557455085,-0.00029275289172984846,0.002988529935442092,2.6500496864318848,2019-07-26 15:05:49:151,-169.4556641363729,-160.05327376838247,0,-43.632232666015625,20.241758346557617,-31.037363052368164
0.14043530821800232,-0.07788923382759094,9.862611770629883,-0.005842537466470206,0.0005063905560564065,0.0024557676802636425,2.6600427627563477,2019-07-26 15:05:49:161,-169.6505192214467,-160.43988039358916,0,-43.632232666015625,20.241758346557617,-31.037363052368164
0.13804055750370026,-0.0874682292342186,9.747663497924805,-0.00371148844575641,-0.003755707842973384,5.833747100570152e-05,2.6700377464294434,2019-07-26 15:05:49:171,-169.83917438617223,-160.81871752339308,0,-43.632232666015625,20.241758346557617,-31.037363052368164
0.14043530821800232,-0.05394173786044121,9.802742958068848,-0.00371148844575641,0.0018382962265118203,-0.002339092876416725,2.6800315380096436,2019-07-26 15:05:49:181,-170.0270070529081,-161.19395488343986,0,-43.632232666015625,20.241758346557617,-31.037363052368164
0.17635655403137207,-0.06591548770666122,9.833874702453613,0.000816990983334733,0.0026374397393166566,0.00432043583346254,2.6900432109832764,2019-07-26 15:05:49:191,-170.20740139597365,-161.56285421695637,0,-43.632232666015625,20.241758346557617,-31.037363052368164
0.17635655403137207,-0.11141572892665863,9.833874702453613,0.0010833721109239577,0.0026374397393166566,0.0011238620423175197,2.700037956237793,2019-07-26 15:05:49:201,-170.38418534532013,-161.91922269814768,0,-43.632232666015625,20.241758346557617,-31.037363052368164
0.16677755117416382,-0.05394173786044121,9.814716339111328,-0.002379582807810287,0.0007727717161549218,-0.0018063304912011133,2.7100369930267334,2019-07-26 15:05:49:211,-170.55746529521087,-162.27320434506217,0,-43.632232666015625,20.241758346557617,-31.037363052368164
0.1811460554599762,-0.0611259862780571,9.752452850341797,0.0005506098557455085,0.004235726504852004,-0.002339092876416725,2.7200515270233154,2019-07-26 15:05:49:221,-170.72741554224135,-162.620867649931,0,-43.632232666015625,20.241758346557617,-31.037363052368164
0.19790929555892944,-0.03957323729991913,9.730899810791016,0.0016161343661024066,0.0015719150989225955,-0.002339092876416725,2.7300329208374023,2019-07-26 15:05:49:231,-170.89044553315037,-162.9646959273775,0,-43.632232666015625,20.241758346557617,-31.037363052368164
0.13325105607509613,-0.058731235563755035,9.824295043945312,0.0021488966212808557,-0.004022088970562609,-0.0020727116187903376,2.740022659301758,2019-07-26 15:05:49:241,-171.0548389591388,-163.29975698480595,0,-43.632232666015625,20.241758346557617,-31.037363052368164
0.15719854831695557,-0.025204740464687347,9.781189918518066,0.0005506098557455085,0.0031702019944951057,-0.004736523024719746,2.750032901763916,2019-07-26 15:05:49:251,-171.2171090521562,-163.63111847288874,0,-43.632232666015625,20.241758346557617,-31.037363052368164
0.15959329903125763,-0.04675748944282532,9.809926986694336,0.000816990983334733,-0.003755707842973384,-0.004203760769541297,2.760037899017334,2019-07-26 15:05:49:261,-171.37201625044068,-163.95349328513385,0,-43.632232666015625,20.241758346557617,-31.037363052368164
0.14043530821800232,-0.037178490310907364,9.81950569152832,0.0002842286956469933,-2.63717336631639e-05,-0.006867572045433543,2.7701199054718018,2019-07-26 15:05:49:271,-171.52817360944306,-164.27024569160812,0,-43.632232666015625,20.241758346557617,-31.037363052368164
0.13085630536079407,-0.07549448311328888,9.774005889892578,-0.00024853360829539187,0.00343658312208433,-0.0026054740040059496,2.780024528503418,2019-07-26 15:05:49:281,-171.68418054386794,-164.57585167425995,0,-43.632232666015625,20.241758346557617,-31.037363052368164
0.1476195603609085,-0.022809991613030434,9.742874145507812,0.0005506098557455085,0.003702964249673555,-0.007133953173022766,2.790041446685791,2019-07-26 15:05:49:291,-171.83521860102738,-164.88196152081505,0,-43.93211364746094,21.441268920898438,-30.737483978271484
0.14043530821800232,-0.018020492047071457,9.776400566101074,-0.0007812959122377771,0.0031702019944951057,-0.00047442482074569963,2.8000328540802,2019-07-26 15:05:49:301,-171.98383313300266,-165.18177174763287,0,-43.93211364746094,21.441268920898438,-30.737483978271484
0.14283005893230438,-0.07549448311328888,9.771611213684082,-0.0021132015501838996,-0.0008255151794175883,-0.004736523024719746,2.810035467147827,2019-07-26 15:05:49:311,-172.12694435364244,-165.46809639064625,0,-43.93211364746094,21.441268920898438,-30.737483978271484
0.12606680393218994,-0.022809991613030434,9.809926986694336,-0.00024853360829539187,0.003702964249673555,-0.006334809790255094,2.820033550262451,2019-07-26 15:05:49:321,-172.27175899304362,-165.7559304660848,0,-43.93211364746094,21.441268920898438,-30.737483978271484
0.15240906178951263,-0.0347837395966053,9.797953605651855,-0.003977869573345634,0.0026374397393166566,-0.005269285279898195,2.830050230026245,2019-07-26 15:05:49:331,-172.40998370114642,-166.03450646215921,0,-43.93211364746094,21.441268920898438,-30.737483978271484
0.15959329903125763,-0.015625741332769394,9.821900367736816,-0.006375299721648655,0.0031702019944951057,-0.00793309707593909,2.8401336669921875,2019-07-26 15:05:49:341,-172.54496092153104,-166.30838369776993,0,-43.93211364746094,21.441268920898438,-30.737483978271484
0.12606680393218994,-0.02759948931634426,9.829085350036621,0.00294804000404853,0.0007727717161549218,-0.007666715948349867,2.850054979324341,2019-07-26 15:05:49:351,-172.67979561331623,-166.5806406643061,0,-43.93211364746094,21.441268920898438,-30.737483978271484
0.13325105607509613,-0.06591548770666122,9.821900367736816,0.0016161343661024066,0.005567632142798127,-0.003670998514362848,2.8600332736968994,2019-07-26 15:05:49:361,-172.81377376121588,-166.84224313115712,0,-43.93211364746094,21.441268920898438,-30.737483978271484
0.11888255923986435,-0.051546987146139145,9.84824275970459,1.7847537580308712e-05,0.0018382962265118203,-0.00953138384147444,2.87003493309021,2019-07-26 15:05:49:371,-172.94469846846,-167.09941047467154,0,-43.93211364746094,21.441268920898438,-30.737483978271484
0.13085630536079407,-0.0036519933491945267,9.843453407287598,-0.0015804392950054507,0.00343658312208433,-0.0020727116187903376,2.8800504207611084,2019-07-26 15:05:49:381,-173.07250451832886,-167.35610833320416,0,-43.93211364746094,21.441268920898438,-30.737483978271484
0.19072504341602325,-0.03238898888230324,9.783584594726562,-0.0015804392950054507,-0.0026901830725421603,-0.006068428662665869,2.890028238296509,2019-07-26 15:05:49:391,-173.18721114484524,-167.6043071302198,0,-43.93211364746094,21.441268920898438,-30.737483978271484
0.13804055750370026,-0.029994240030646324,9.802742958068848,-0.0005149147521392618,0.0031702019944951057,-0.004736523024719746,2.9000296592712402,2019-07-26 15:05:49:401,-173.3091117172275,-167.8484255835643,0,-43.93211364746094,21.441268920898438,-30.737483978271484
0.11648780852556229,-0.022809991613030434,9.812321662902832,-0.0013140581674162262,0.00024000941221253666,-0.005002904152308971,2.9100213050842285,2019-07-26 15:05:49:411,-173.42946094020306,-168.08805602446742,0,-43.93211364746094,21.441268920898438,-30.737483978271484
0.16677755117416382,-0.018020492047071457,9.77879524230957,0.0016161343661024066,0.004502107632441229,-0.0007408059808442149,2.920036554336548,2019-07-26 15:05:49:421,-173.54386178455425,-168.3250920391506,0,-43.93211364746094,21.441268920898438,-30.737483978271484
0.14043530821800232,-0.04196798801422119,9.814716339111328,-0.002912345062988736,0.0007727717161549218,-0.0020727116187903376,2.930018901824951,2019-07-26 15:05:49:431,-173.65702231073487,-168.55205787158684,0,-43.93211364746094,21.441268920898438,-30.737483978271484
0.14283005893230438,-0.05633648484945297,9.841058731079102,-0.0021132015501838996,0.0018382962265118203,-0.002339092876416725,2.94002103805542,2019-07-26 15:05:49:441,-173.76828399180278,-168.77327002223043,0,-43.93211364746094,21.441268920898438,-30.737483978271484
0.15240906178951263,-0.02759948931634426,9.814716339111328,0.0010833721109239577,0.0031702019944951057,0.0008574809147282953,2.950021743774414,2019-07-26 15:05:49:451,-173.876905436883,-168.99519061134427,0,-43.93211364746094,21.441268920898438,-30.737483978271484
0.15959329903125763,-0.07070498168468475,9.829085350036621,0.0032144211316377544,-0.00029275289172984846,-0.007400334300611992,2.9600226879119873,2019-07-26 15:05:49:461,-173.98059851749392,-169.20884892438988,0,-43.93211364746094,21.441268920898438,-30.737483978271484
0.13085630536079407,-0.037178490310907364,9.850637435913086,-0.0007812959122377771,0.002371058611727432,-0.003404617386773623,2.970034599304199,2019-07-26 15:05:49:471,-174.08709798084885,-169.41990780772414,0,-43.93211364746094,21.441268920898438,-30.737483978271484
0.11409305781126022,-0.06831023842096329,9.805137634277344,-0.0021132015501838996,0.004235726504852004,-0.0031382362591843983,2.9800219535827637,2019-07-26 15:05:49:481,-174.19439804057188,-169.6223413794123,0,-43.93211364746094,21.441268920898438,-30.737483978271484
0.15719854831695557,-0.05633648484945297,9.793163299560547,-0.0007812959122377771,0.0031702019944951057,-0.006068428662665869,2.9900193214416504,2019-07-26 15:05:49:491,-174.29389717101535,-169.82286401035267,0,-43.93211364746094,21.441268920898438,-30.737483978271484
0.14043530821800232,-0.05394173786044121,9.788373947143555,0.0010833721109239577,0.002371058611727432,-0.0018063304912011133,3.000028133392334,2019-07-26 15:05:49:501,-174.39291224744647,-170.0207007343397,0,-43.93211364746094,21.441268920898438,-30.737483978271484
0.10690881311893463,-0.02041524089872837,9.783584594726562,0.0005506098557455085,0.004235726504852004,-0.004736523024719746,3.0100185871124268,2019-07-26 15:05:49:511,-174.49490874562116,-170.2182044319415,0,-43.93211364746094,21.441268920898438,-30.737483978271484
0.11169830709695816,-0.037178490310907364,9.776400566101074,0.0024152777488700805,0.002371058611727432,0.0003247186270405554,3.0200388431549072,2019-07-26 15:05:49:521,-174.59325275418794,-170.41084150565206,0,-43.93211364746094,21.441268920898438,-30.737483978271484
0.128461554646492,-0.029994240030646324,9.771611213684082,-0.002912345062988736,0.0031702019944951057,-0.006068428662665869,3.030022382736206,2019-07-26 15:05:49:531,-174.68810103093406,-170.59747467986114,0,-43.93211364746094,21.441268920898438,-30.737483978271484
0.12367206066846848,-0.04915223643183708,9.745268821716309,-0.00371148844575641,0.0010391528437441464,-0.001273568236022664,3.0400187969207764,2019-07-26 15:05:49:541,-174.78038085492628,-170.77766232954963,0,-44.231990814208984,21.14139175415039,-30.737483978271484
0.11888255923986435,-0.05394173786044121,9.785979270935059,-0.002379582807810287,-0.0013582774345960375,-0.009265002193736565,3.0500168800354004,2019-07-26 15:05:49:551,-174.87009052449494,-170.95445681751653,0,-44.231990814208984,21.14139175415039,-30.737483978271484
0.12127730995416641,-0.044362738728523254,9.821900367736816,0.0002842286956469933,0.005301251015208902,-0.0026054740040059496,3.0600380897521973,2019-07-26 15:05:49:561,-174.96152303611743,-171.13035187311286,0,-44.231990814208984,21.14139175415039,-30.737483978271484
0.15240906178951263,-0.03238898888230324,9.84824275970459,-0.005043394083702533,0.0018382962265118203,-0.004203760769541297,3.070026397705078,2019-07-26 15:05:49:571,-175.04559106788932,-171.30114760390225,0,-44.231990814208984,21.14139175415039,-30.737483978271484
0.13085630536079407,-0.04196798801422119,9.776400566101074,-0.0034451073181671855,0.0068995377807442495,-0.00793309707593909,3.0800223350524902,2019-07-26 15:05:49:581,-175.1332146850627,-171.46827187533054,0,-44.231990814208984,21.14139175415039,-30.737483978271484
0.1548037976026535,-0.015625741332769394,9.716531753540039,-0.0010476770398270016,-0.0018910396897744866,-0.006867572045433543,3.090017795562744,2019-07-26 15:05:49:591,-175.21123387281744,-171.63647562118103,0,-44.231990814208984,21.14139175415039,-30.737483978271484
0.14522480964660645,-0.02041524089872837,9.800348281860352,0.0026816588764593053,0.0031702019944951057,-0.002871855131595174,3.100018262863159,2019-07-26 15:05:49:601,-175.29181002827968,-171.80286485778686,0,-44.231990814208984,21.14139175415039,-30.737483978271484
0.13325105607509613,-0.04915223643183708,9.788373947143555,-0.0007812959122377771,0.0029038208669058814,-0.0055356664074874195,3.110045909881592,2019-07-26 15:05:49:611,-175.3720102166459,-171.96061349415885,0,-44.231990814208984,21.14139175415039,-30.737483978271484
0.12606680393218994,-0.07788923382759094,9.817111015319824,-0.002912345062988736,0.00343658312208433,-0.003670998514362848,3.1200222969055176,2019-07-26 15:05:49:621,-175.45178058283867,-172.11067827223064,0,-44.231990814208984,21.14139175415039,-30.737483978271484
0.11888255923986435,-0.06352073699235916,9.788373947143555,-0.00024853360829539187,-2.63717336631639e-05,-0.0055356664074874195,3.1300032138824463,2019-07-26 15:05:49:631,-175.52881340831894,-172.26088921417508,0,-44.231990814208984,21.14139175415039,-30.737483978271484
0.16917230188846588,-0.05394173786044121,9.76682186126709,0.0018825154936916314,0.002371058611727432,-0.002871855131595174,3.14005970954895,2019-07-26 15:05:49:641,-175.5997294500674,-172.41040565327683,0,-44.231990814208984,21.14139175415039,-30.737483978271484
0.15001431107521057,-0.07549448311328888,9.843453407287598,0.000816990983334733,0.00343658312208433,-0.002871855131595174,3.1500236988067627,2019-07-26 15:05:49:651,-175.67219513784883,-172.55386618663186,0,-44.231990814208984,21.14139175415039,-30.737483978271484
0.14283005893230438,-0.07549448311328888,9.802742958068848,-0.0005149147521392618,-0.0005591340518283637,-0.003937379641952073,3.160037040710449,2019-07-26 15:05:49:661,-175.74174157586407,-172.69367441562147,0,-44.231990814208984,21.14139175415039,-30.737483978271484
0.14043530821800232,-0.07549448311328888,9.759636878967285,-0.0015804392950054507,0.005567632142798127,-0.0026054740040059496,3.1700026988983154,2019-07-26 15:05:49:671,-175.8135343275838,-172.83005264656373,0,-44.231990814208984,21.14139175415039,-30.737483978271484
0.13325105607509613,-0.010836242698132992,9.793163299560547,-0.00024853360829539187,0.0010391528437441464,0.006185103726587112,3.1800506114959717,2019-07-26 15:05:49:681,-175.88225893676992,-172.9720434060604,0,-44.231990814208984,21.14139175415039,-30.737483978271484
0.14043530821800232,-0.022809991613030434,9.774005889892578,-0.0018468204225946753,-0.0010918963070068127,-0.0020727116187903376,3.1900253295898438,2019-07-26 15:05:49:691,-175.94753854707199,-173.10889390792724,0,-44.231990814208984,21.14139175415039,-30.737483978271484
0.12606680393218994,-0.03957323729991913,9.771611213684082,0.0013497532385131823,0.002371058611727432,-0.004203760769541297,3.2000367641448975,2019-07-26 15:05:49:701,-176.0151376269135,-173.24283405790501,0,-44.231990814208984,21.14139175415039,-30.737483978271484
0.13804055750370026,-0.0611259862780571,9.800348281860352,0.0026816588764593053,0.004502107632441229,0.0005910997871390706,3.210019826889038,2019-07-26 15:05:49:711,-176.08121905617054,-173.37233344942106,0,-44.231990814208984,21.14139175415039,-30.737483978271484
0.11409305781126022,-0.04196798801422119,9.843453407287598,0.0018825154936916314,0.0021046773541010446,0.0003247186270405554,3.2200396060943604,2019-07-26 15:05:49:721,-176.14749735374212,-173.50106027011842,0,-44.231990814208984,21.14139175415039,-30.737483978271484
0.128461554646492,-0.05394173786044121,9.795557975769043,0.0002842286956469933,0.002371058611727432,0.0019230054250851934,3.230018138885498,2019-07-26 15:05:49:731,-176.2108489141827,-173.6248881035157,0,-44.231990814208984,21.14139175415039,-30.737483978271484
0.09014556556940079,-0.04196798801422119,9.805137634277344,1.7847537580308712e-05,-0.00029275289172984846,0.0003247186270405554,3.240027904510498,2019-07-26 15:05:49:741,-176.27593247929113,-173.74749565021136,0,-44.231990814208984,21.14139175415039,-30.737483978271484
0.15959329903125763,-0.05633648484945297,9.800348281860352,-0.004510631828524084,-0.0018910396897744866,0.004586816961051765,3.250048875808716,2019-07-26 15:05:49:751,-176.33069082878364,-173.8634205844861,0,-44.231990814208984,21.14139175415039,-30.737483978271484
0.11888255923986435,-0.037178490310907364,9.824295043945312,0.0037471836468905284,0.0007727717161549218,0.0003247186270405554,3.26003360748291,2019-07-26 15:05:49:761,-176.3906443562444,-173.9839164832436,0,-44.231990814208984,21.14139175415039,-30.737483978271484
0.13085630536079407,-0.0347837395966053,9.776400566101074,-0.0010476770398270016,0.00024000941221253666,5.833747100570152e-05,3.270033836364746,2019-07-26 15:05:49:771,-176.44762916852292,-174.0995728017162,0,-44.231990814208984,21.14139175415039,-30.737483978271484
0.14283005893230438,0.013111254200339317,9.80753231048584,-0.0013140581674162262,0.0010391528437441464,0.005385960343819439,3.2800347805023193,2019-07-26 15:05:49:781,-176.5025729875287,-167.01837535687392,0,-44.231990814208984,21.14139175415039,-30.737483978271484
0.11888255923986435,-0.018020492047071457,9.795557975769043,0.0026816588764593053,0.004502107632441229,-0.002339092876416725,3.290034055709839,2019-07-26 15:05:49:791,-176.56114269395596,-167.27740539619853,0,-43.482295989990234,20.39169692993164,-30.88742446899414
0.12367206066846848,-0.05394173786044121,9.805137634277344,-0.0010476770398270016,0.0029038208669058814,0.004586816961051765,3.3000328540802,2019-07-26 15:05:49:801,-176.61709748505479,-167.52496504208656,0,-43.482295989990234,20.39169692993164,-30.88742446899414
0.1476195603609085,-0.029994240030646324,9.788373947143555,-0.004510631828524084,-0.0010918963070068127,0.00725062823694401,3.3102495670318604,2019-07-26 15:05:49:811,-176.6668487794745,-167.76836675438025,0,-43.482295989990234,20.39169692993164,-30.88742446899414
0.1548037976026535,-0.06591548770666122,9.817111015319824,-0.0034451073181671855,0.002371058611727432,0.008049771619711684,3.3200197219848633,2019-07-26 15:05:49:821,-176.71674436410373,-168.00341549894677,0,-43.482295989990234,20.39169692993164,-30.88742446899414
0.15240906178951263,-0.015625741332769394,9.76682186126709,-0.0013140581674162262,0.0005063905560564065,0.002988529935442092,3.3300328254699707,2019-07-26 15:05:49:831,-176.76481388280996,-168.24077505458547,0,-43.482295989990234,20.39169692993164,-30.88742446899414
0.1619880497455597,-0.025204740464687347,9.802742958068848,0.004279945902068978,0.0018382962265118203,0.008049771619711684,3.3400254249572754,2019-07-26 15:05:49:841,-176.81161477654425,-168.47541459558505,0,-43.482295989990234,20.39169692993164,-30.88742446899414
0.16677755117416382,-0.0611259862780571,9.833874702453613,0.000816990983334733,0.005834013270387351,0.011779107405960828,3.3500232696533203,2019-07-26 15:05:49:851,-176.8592252784231,-168.69924218522667,0,-43.482295989990234,20.39169692993164,-30.88742446899414
0.1356458067893982,-0.04915223643183708,9.838664054870605,-0.00024853360829539187,-0.0013582774345960375,0.0024557676802636425,3.3600399494171143,2019-07-26 15:05:49:861,-176.90547907552534,-168.91939281220778,0,-43.482295989990234,20.39169692993164,-30.88742446899414
0.1811460554599762,-0.037178490310907364,9.872190475463867,-0.002379582807810287,-0.0026901830725421603,0.006451484854176337,3.370023250579834,2019-07-26 15:05:49:871,-176.9448372934126,-169.13535557770936,0,-43.482295989990234,20.39169692993164,-30.88742446899414
0.13325105607509613,-0.04915223643183708,9.802742958068848,0.0005506098557455085,0.0029038208669058814,0.0027221488078528673,3.380021810531616,2019-07-26 15:05:49:881,-176.9919950557188,-169.34721186569308,0,-43.482295989990234,20.39169692993164,-30.88742446899414
0.20988304913043976,-0.044362738728523254,9.754847526550293,0.0005506098557455085,-0.001624658562185262,0.003787673578284091,3.3900232315063477,2019-07-26 15:05:49:891,-177.02659132938746,-169.55536552192126,0,-43.482295989990234,20.39169692993164,-30.88742446899414
0.128461554646492,-0.02759948931634426,9.833874702453613,-0.00024853360829539187,0.0031702019944951057,0.0032549110630313164,3.4000191688537598,2019-07-26 15:05:49:901,-177.0728704075683,-169.76090262933945,0,-43.482295989990234,20.39169692993164,-30.88742446899414
0.18593555688858032,-0.044362738728523254,9.805137634277344,-0.0007812959122377771,0.005034869887619677,0.005385960343819439,3.4100382328033447,2019-07-26 15:05:49:911,-177.11251798278423,-169.9600604550016,0,-43.482295989990234,20.39169692993164,-30.88742446899414
0.1811460554599762,-0.02759948931634426,9.745268821716309,0.0002842286956469933,0.0026374397393166566,0.0003247186270405554,3.420006513595581,2019-07-26 15:05:49:921,-177.1504459008936,-170.1577730050141,0,-43.482295989990234,20.39169692993164,-30.88742446899414
0.1476195603609085,-0.051546987146139145,9.747663497924805,0.0016161343661024066,0.005034869887619677,0.006451484854176337,3.430022716522217,2019-07-26 15:05:49:931,-177.1929161059199,-170.3494667695214,0,-43.482295989990234,20.39169692993164,-30.88742446899414
0.1811460554599762,-0.07788923382759094,9.821900367736816,0.0005506098557455085,-0.0010918963070068127,0.0027221488078528673,3.4400227069854736,2019-07-26 15:05:49:941,-177.22731287347224,-170.5336994979144,0,-43.482295989990234,20.39169692993164,-30.88742446899414
0.1811460554599762,-0.08507348597049713,9.84824275970459,-0.0021132015501838996,0.0031702019944951057,0.00725062823694401,3.4500346183776855,2019-07-26 15:05:49:951,-177.26347349906945,-170.71193885425058,0,-43.482295989990234,20.39169692993164,-30.88742446899414
0.15959329903125763,-0.0036519933491945267,9.79076862335205,0.0002842286956469933,0.0007727717161549218,0.0032549110630313164,3.460022449493408,2019-07-26 15:05:49:961,-177.2999601999931,-170.89743204619808,0,-43.482295989990234,20.39169692993164,-30.88742446899414
0.1548037976026535,-0.051546987146139145,9.860217094421387,-0.0007812959122377771,0.0015719150989225955,0.002189386552674418,3.470019578933716,2019-07-26 15:05:49:971,-177.3368541611755,-171.0730543013886,0,-43.482295989990234,20.39169692993164,-30.88742446899414
0.15959329903125763,-0.037178490310907364,9.81950569152832,0.0010833721109239577,0.001305533971333371,0.0003247186270405554,3.480027914047241,2019-07-26 15:05:49:981,-177.37222818293205,-171.2478634037389,0,-43.482295989990234,20.39169692993164,-30.88742446899414
0.15719854831695557,-0.08267873525619507,9.797953605651855,0.0002842286956469933,0.0018382962265118203,0.0024557676802636425,3.4900224208831787,2019-07-26 15:05:49:991,-177.40743173949986,-171.4133962144186,0,-43.482295989990234,20.39169692993164,-30.88742446899414
0.16677755117416382,-0.04196798801422119,9.747663497924805,1.7847537580308712e-05,0.0029038208669058814,0.004054054705873315,3.5000364780426025,2019-07-26 15:05:50:001,-177.44131176963234,-171.5802046843478,0,-43.482295989990234,20.39169692993164,-30.88742446899414
0.13325105607509613,-0.051546987146139145,9.757242202758789,-0.003178726190577961,0.002371058611727432,-0.0015399493636118885,3.5100207328796387,2019-07-26 15:05:50:011,-177.47816641063272,-171.74076479623253,0,-43.482295989990234,20.39169692993164,-30.88742446899414
0.14043530821800232,-0.06352073699235916,9.833874702453613,-0.0007812959122377771,-0.00029275289172984846,0.002189386552674418,3.5200273990631104,2019-07-26 15:05:50:021,-177.51207514720826,-171.89810870957166,0,-43.482295989990234,20.39169692993164,-30.88742446899414
0.12367206066846848,-0.029994240030646324,9.77879524230957,-0.0015804392950054507,0.005034869887619677,0.0019230054250851934,3.530020236968994,2019-07-26 15:05:50:031,-177.5501671127072,-172.05574493087957,0,-43.482295989990234,20.39169692993164,-30.88742446899414
0.1093035638332367,-0.0347837395966053,9.69976806640625,-0.0007812959122377771,0.00024000941221253666,-0.001273568236022664,3.5400285720825195,2019-07-26 15:05:50:041,-177.58638624037505,-172.2100816904537,0,-44.381927490234375,20.39169692993164,-30.287668228149414
0.1619880497455597,-0.0036519933491945267,9.805137634277344,0.0005506098557455085,0.0029038208669058814,-0.003670998514362848,3.550032615661621,2019-07-26 15:05:50:051,-177.61736002418883,-172.36576254393972,0,-44.381927490234375,20.39169692993164,-30.287668228149414
0.1021193116903305,-0.0347837395966053,9.795557975769043,-0.005309775211291758,-0.0010918963070068127,0.0013902431699067445,3.56003475189209,2019-07-26 15:05:50:061,-177.6524537846608,-172.51139612899246,0,-44.381927490234375,20.39169692993164,-30.287668228149414
0.09014556556940079,-0.015625741332769394,9.757242202758789,-0.00024853360829539187,-0.001624658562185262,-0.003404617386773623,3.570021390914917,2019-07-26 15:05:50:071,-177.68790705864558,-172.65919371594867,0,-44.381927490234375,20.39169692993164,-30.287668228149414
0.11409305781126022,-0.04675748944282532,9.857821464538574,0.0002842286956469933,0.004768488760030453,-0.007400334300611992,3.5800185203552246,2019-07-26 15:05:50:081,-177.72356357293916,-172.80073413880922,0,-44.381927490234375,20.39169692993164,-30.287668228149414
0.09972456097602844,-0.04915223643183708,9.809926986694336,0.0024152777488700805,0.002371058611727432,-0.006867572045433543,3.5900444984436035,2019-07-26 15:05:50:091,-177.75877849835345,-172.94033763931145,0,-44.381927490234375,20.39169692993164,-30.287668228149414
0.09972456097602844,-0.029994240030646324,9.774005889892578,-0.00024853360829539187,0.0031702019944951057,-0.0055356664074874195,3.600019931793213,2019-07-26 15:05:50:101,-177.7936872039718,-173.07787513022546,0,-44.381927490234375,20.39169692993164,-30.287668228149414
0.04943481832742691,-0.025204740464687347,9.795557975769043,-0.0021132015501838996,0.002371058611727432,-0.008199478203528315,3.609997272491455,2019-07-26 15:05:50:111,-177.833358795838,-173.2121852321283,0,-44.381927490234375,20.39169692993164,-30.287668228149414
0.1021193116903305,-0.0036519933491945267,9.781189918518066,0.0002842286956469933,0.0005063905560564065,0.002189386552674418,3.6200509071350098,2019-07-26 15:05:50:121,-177.86501412628556,-173.34767412812096,0,-44.381927490234375,20.39169692993164,-30.287668228149414
0.10690881311893463,-0.037178490310907364,9.83626937866211,-0.005576156338880983,0.001305533971333371,-0.006601190917844318,3.6300196647644043,2019-07-26 15:05:50:131,-177.89599032917138,-173.4732681868786,0,-44.381927490234375,20.39169692993164,-30.287668228149414
0.1619880497455597,-0.0874682292342186,9.785979270935059,-0.00371148844575641,0.00024000941221253666,-0.00899862158629599,3.6400341987609863,2019-07-26 15:05:50:141,-177.91923878878805,-173.59147374349098,0,-44.381927490234375,20.39169692993164,-30.287668228149414
0.13085630536079407,-0.015625741332769394,9.84824275970459,0.0016161343661024066,0.003702964249673555,-0.00899862158629599,3.650023937225342,2019-07-26 15:05:50:151,-177.94770588972438,-173.7187326260957,0,-44.381927490234375,20.39169692993164,-30.287668228149414
0.1476195603609085,-0.04915223643183708,9.891348838806152,-0.0013140581674162262,-2.63717336631639e-05,-0.009265002193736565,3.6600284576416016,2019-07-26 15:05:50:161,-177.97163645879806,-173.83792554439492,0,-44.381927490234375,20.39169692993164,-30.287668228149414
0.09732981026172638,-0.07070498168468475,9.781189918518066,-0.00024853360829539187,-2.63717336631639e-05,-0.004736523024719746,3.6700241565704346,2019-07-26 15:05:50:171,-178.0007866278671,-173.9527442423297,0,-44.381927490234375,20.39169692993164,-30.287668228149414
0.1619880497455597,-0.029994240030646324,9.812321662902832,-0.0021132015501838996,0.003702964249673555,-0.005269285279898195,3.680021047592163,2019-07-26 15:05:50:181,-178.02393367282735,-174.0690003502918,0,-44.381927490234375,20.39169692993164,-30.287668228149414
0.19790929555892944,-0.015625741332769394,9.783584594726562,0.0010833721109239577,-0.0032229453277206094,-0.010330526704093462,3.690042734146118,2019-07-26 15:05:50:191,-178.03846416225554,-174.18639978992013,0,-44.381927490234375,20.39169692993164,-30.287668228149414
0.18593555688858032,-0.029994240030646324,9.774005889892578,0.000816990983334733,0.006100394397976576,0.0005910997871390706,3.7000033855438232,2019-07-26 15:05:50:201,-178.05931009632963,-174.29961218052435,0,-44.381927490234375,20.39169692993164,-30.287668228149414
0.13325105607509613,-0.0611259862780571,9.795557975769043,0.0026816588764593053,0.0018382962265118203,-0.0007408059808442149,3.710054397583008,2019-07-26 15:05:50:211,-178.08357418889912,-174.40798274598188,0,-44.381927490234375,20.39169692993164,-30.287668228149414
0.17635655403137207,-0.05633648484945297,9.817111015319824,-0.003977869573345634,0.0018382962265118203,-0.0010071871084334394,3.720027208328247,2019-07-26 15:05:50:221,-178.10234885562105,-174.51101971524204,0,-44.381927490234375,20.39169692993164,-30.287668228149414
0.13804055750370026,-0.03957323729991913,9.785979270935059,0.0021488966212808557,0.006366775525565801,0.005119579216230213,3.7300572395324707,2019-07-26 15:05:50:231,-178.12772439150748,-174.61737563753013,0,-44.381927490234375,20.39169692993164,-30.287668228149414
0.18833030760288239,-0.04915223643183708,9.759636878967285,-0.002379582807810287,-0.00029275289172984846,-0.001273568236022664,3.740264415740967,2019-07-26 15:05:50:241,-178.14289229367037,-174.71789321104728,0,-44.381927490234375,20.39169692993164,-30.287668228149414
0.17875130474567413,-0.018020492047071457,9.76682186126709,-0.0018468204225946753,0.004502107632441229,0.002189386552674418,3.7502012252807617,2019-07-26 15:05:50:251,-178.16157632046713,-174.8203906177774,0,-44.381927490234375,20.39169692993164,-30.287668228149414
0.1356458067893982,-0.051546987146139145,9.855426788330078,-0.005576156338880983,0.003969345377262779,-0.005802047535076645,3.7600913047790527,2019-07-26 15:05:50:261,-178.18477818934522,-174.91489277246453,0,-44.381927490234375,20.39169692993164,-30.287668228149414
0.16677755117416382,-0.080283984541893,9.80753231048584,-0.004777012956113309,0.006100394397976576,0.0032549110630313164,3.770023822784424,2019-07-26 15:05:50:271,-178.205000402798,-175.00455053133328,0,-44.381927490234375,20.39169692993164,-30.287668228149414
0.18593555688858032,-0.0611259862780571,9.833874702453613,0.0005506098557455085,0.001305533971333371,0.001656624297495969,3.7800564765930176,2019-07-26 15:05:50:281,-178.21997184329194,-175.0976469380385,0,-44.381927490234375,20.39169692993164,-30.287668228149414
0.15719854831695557,-0.018020492047071457,9.757242202758789,0.0010833721109239577,-0.0026901830725421603,0.002189386552674418,3.7900350093841553,2019-07-26 15:05:50:291,-178.23560491072075,-175.19418463489416,0,-43.03247833251953,21.441268920898438,-31.037363052368164
0.1476195603609085,-0.015625741332769394,9.776400566101074,0.0037471836468905284,-2.63717336631639e-05,-0.002339092876416725,3.8000335693359375,2019-07-26 15:05:50:301,-178.2535764755408,-175.29057314829336,0,-43.03247833251953,21.441268920898438,-31.037363052368164
0.17875130474567413,-0.03238898888230324,9.802742958068848,-0.005043394083702533,0.001305533971333371,-0.004470141897130521,3.8100666999816895,2019-07-26 15:05:50:311,-178.26834717523212,-175.37813426806352,0,-43.03247833251953,21.441268920898438,-31.037363052368164
0.18593555688858032,-0.006046743132174015,9.797953605651855,0.0013497532385131823,0.0018382962265118203,-0.00047442482074569963,3.8200414180755615,2019-07-26 15:05:50:321,-178.28226641707639,-175.47062035699304,0,-43.03247833251953,21.441268920898438,-31.037363052368164
0.1619880497455597,-0.05633648484945297,9.829085350036621,-0.006375299721648655,0.001305533971333371,0.0005910997871390706,3.830040454864502,2019-07-26 15:05:50:331,-178.29847054360383,-175.55106070308915,0,-43.03247833251953,21.441268920898438,-31.037363052368164
0.16917230188846588,-0.05394173786044121,9.809926986694336,0.000816990983334733,0.001305533971333371,-0.0007408059808442149,3.840071439743042,2019-07-26 15:05:50:341,-178.313477090917,-175.63419867977495,0,-43.03247833251953,21.441268920898438,-31.037363052368164
0.15240906178951263,-0.06831023842096329,9.769216537475586,-0.002379582807810287,0.0010391528437441464,-0.0020727116187903376,3.8500373363494873,2019-07-26 15:05:50:351,-178.32991312012345,-175.71217056441986,0,-43.03247833251953,21.441268920898438,-31.037363052368164
0.14043530821800232,-0.04675748944282532,9.774005889892578,-0.003178726190577961,0.003702964249673555,-0.001273568236022664,3.860036849975586,2019-07-26 15:05:50:361,-178.34893030327967,-175.79066052997604,0,-43.03247833251953,21.441268920898438,-31.037363052368164
0.11888255923986435,-0.044362738728523254,9.83626937866211,0.004279945902068978,0.0005063905560564065,-0.00047442482074569963,3.87003493309021,2019-07-26 15:05:50:371,-178.36838695482348,-175.8720818626586,0,-43.03247833251953,21.441268920898438,-31.037363052368164
0.11409305781126022,-0.058731235563755035,9.83626937866211,0.0026816588764593053,0.00343658312208433,0.005385960343819439,3.880040407180786,2019-07-26 15:05:50:381,-178.389658777173,-175.9493047483102,0,-43.03247833251953,21.441268920898438,-31.037363052368164
0.13804055750370026,-0.04675748944282532,9.81950569152832,-0.0010476770398270016,-0.0008255151794175883,0.002988529935442092,3.890038251876831,2019-07-26 15:05:50:391,-178.40529419519407,-176.02427405180399,0,-43.03247833251953,21.441268920898438,-31.037363052368164
0.1619880497455597,-0.02041524089872837,9.841058731079102,0.0010833721109239577,0.0021046773541010446,-0.003404617386773623,3.900038957595825,2019-07-26 15:05:50:401,-178.41950960907812,-176.1020197313084,0,-43.03247833251953,21.441268920898438,-31.037363052368164
0.11169830709695816,-0.03957323729991913,9.77879524230957,-0.002379582807810287,0.00024000941221253666,5.833747100570152e-05,3.910067558288574,2019-07-26 15:05:50:411,-178.43816591352243,-176.1740020689518,0,-43.03247833251953,21.441268920898438,-31.037363052368164
0.13804055750370026,-0.07070498168468475,9.785979270935059,0.0024152777488700805,-0.0008255151794175883,-0.0015399493636118885,3.9200730323791504,2019-07-26 15:05:50:421,-178.45277565710623,-176.24359969899376,0,-43.03247833251953,21.441268920898438,-31.037363052368164
0.15001431107521057,-0.0347837395966053,9.769216537475586,-0.00024853360829539187,0.0018382962265118203,0.002189386552674418,3.93003511428833,2019-07-26 15:05:50:431,-178.46715334254063,-176.31450861557127,0,-43.03247833251953,21.441268920898438,-31.037363052368164
0.128461554646492,-0.044362738728523254,9.802742958068848,0.0005506098557455085,0.004235726504852004,0.0003247186270405554,3.9400415420532227,2019-07-26 15:05:50:441,-178.48517419132796,-176.38334195333223,0,-43.03247833251953,21.441268920898438,-31.037363052368164
0.14522480964660645,-0.05633648484945297,9.812321662902832,0.0010833721109239577,0.0010391528437441464,0.002189386552674418,3.950037717819214,2019-07-26 15:05:50:451,-178.49909536870246,-176.44970410363663,0,-43.03247833251953,21.441268920898438,-31.037363052368164
0.12367206066846848,-0.02759948931634426,9.788373947143555,0.0002842286956469933,0.0021046773541010446,-0.0031382362591843983,3.960038423538208,2019-07-26 15:05:50:461,-178.5158179184841,-176.51763858955786,0,-43.03247833251953,21.441268920898438,-31.037363052368164
0.17396180331707,-0.06591548770666122,9.829085350036621,0.004279945902068978,0.001305533971333371,-0.005269285279898195,3.9700417518615723,2019-07-26 15:05:50:471,-178.52595578740397,-176.58200521531776,0,-43.03247833251953,21.441268920898438,-31.037363052368164
0.16917230188846588,-0.07070498168468475,9.69976806640625,0.0002842286956469933,0.00024000941221253666,-0.0015399493636118885,3.9800429344177246,2019-07-26 15:05:50:481,-178.53558772465408,-176.64217189471975,0,-43.03247833251953,21.441268920898438,-31.037363052368164
0.15959329903125763,-0.051546987146139145,9.747663497924805,-0.003178726190577961,0.00024000941221253666,-0.005002904152308971,3.9900379180908203,2019-07-26 15:05:50:491,-178.54625087843593,-176.70148479874808,0,-43.03247833251953,21.441268920898438,-31.037363052368164
0.17396180331707,-0.051546987146139145,9.793163299560547,-0.0007812959122377771,0.003702964249673555,-0.0055356664074874195,4.000035047531128,2019-07-26 15:05:50:501,-178.55705103163325,-176.76098498245813,0,-43.03247833251953,21.441268920898438,-31.037363052368164
0.1548037976026535,-0.03238898888230324,9.781189918518066,-0.00371148844575641,-0.0005591340518283637,-0.008732239938558114,4.01003885269165,2019-07-26 15:05:50:511,-178.56746140913762,-176.81988597503494,0,-43.03247833251953,21.441268920898438,-31.037363052368164
0.1476195603609085,-0.09225773066282272,9.783584594726562,0.00294804000404853,0.0026374397393166566,-0.006867572045433543,4.020047664642334,2019-07-26 15:05:50:521,-178.58030557583677,-176.87433954332118,0,-43.03247833251953,21.441268920898438,-31.037363052368164
0.1356458067893982,-0.0347837395966053,9.745268821716309,0.0016161343661024066,-0.0013582774345960375,-0.005002904152308971,4.030032396316528,2019-07-26 15:05:50:531,-178.59198882290997,-176.93366873071176,0,-43.03247833251953,21.441268920898438,-31.037363052368164
0.15719854831695557,-0.07788923382759094,9.788373947143555,-0.004510631828524084,0.003969345377262779,-0.007133953173022766,4.040039777755737,2019-07-26 15:05:50:541,-178.60397797160877,-176.98334254718418,0,-43.482295989990234,21.89108657836914,-30.287668228149414
0.14283005893230438,-0.037178490310907364,9.805137634277344,-0.002379582807810287,-2.63717336631639e-05,5.833747100570152e-05,4.050012111663818,2019-07-26 15:05:50:551,-178.6151924349635,-177.03799827207033,0,-43.482295989990234,21.89108657836914,-30.287668228149414
0.1548037976026535,-0.04196798801422119,9.77879524230957,-0.0010476770398270016,-0.00029275289172984846,-0.002339092876416725,4.060035467147827,2019-07-26 15:05:50:561,-178.62458485248104,-177.0917307287606,0,-43.482295989990234,21.89108657836914,-30.287668228149414
0.1476195603609085,-0.029994240030646324,9.795557975769043,-0.003178726190577961,-0.00029275289172984846,-0.004736523024719746,4.070038080215454,2019-07-26 15:05:50:571,-178.63466103261842,-177.14460198653774,0,-43.482295989990234,21.89108657836914,-30.287668228149414
0.12127730995416641,-0.022809991613030434,9.865006446838379,-0.0010476770398270016,0.001305533971333371,5.833747100570152e-05,4.080039978027344,2019-07-26 15:05:50:581,-178.6486141876994,-177.1984719702567,0,-43.482295989990234,21.89108657836914,-30.287668228149414
0.11648780852556229,-0.022809991613030434,9.84824275970459,0.003480802519301304,0.00024000941221253666,0.001656624297495969,4.090034246444702,2019-07-26 15:05:50:591,-178.66222300911792,-177.25380177070772,0,-43.482295989990234,21.89108657836914,-30.287668228149414
0.11169830709695816,-0.03957323729991913,9.821900367736816,-0.0018468204225946753,-0.0005591340518283637,-0.0026054740040059496,4.100041389465332,2019-07-26 15:05:50:601,-178.67563315477977,-177.30307104506784,0,-43.482295989990234,21.89108657836914,-30.287668228149414
0.16438280045986176,-0.0036519933491945267,9.833874702453613,-0.0005149147521392618,0.003969345377262779,0.002988529935442092,4.110037565231323,2019-07-26 15:05:50:611,-178.68519510922087,-177.35629505362817,0,-43.482295989990234,21.89108657836914,-30.287668228149414
0.1476195603609085,-0.02041524089872837,9.73808479309082,0.0005506098557455085,-0.00029275289172984846,-0.00047442482074569963,4.120041131973267,2019-07-26 15:05:50:621,-178.6939571719103,-177.40707609793984,0,-43.482295989990234,21.89108657836914,-30.287668228149414
0.14043530821800232,-0.0611259862780571,9.824295043945312,-0.0010476770398270016,0.0031702019944951057,5.833747100570152e-05,4.130040168762207,2019-07-26 15:05:50:631,-178.70547852203381,-177.45121665929707,0,-43.482295989990234,21.89108657836914,-30.287668228149414
0.15240906178951263,-0.029994240030646324,9.841058731079102,-0.00024853360829539187,-2.63717336631639e-05,0.006984247109354786,4.140037298202515,2019-07-26 15:05:50:641,-178.713608703912,-177.4985602271709,0,-43.482295989990234,21.89108657836914,-30.287668228149414
0.13085630536079407,-0.04675748944282532,9.795557975769043,0.000816990983334733,0.0015719150989225955,0.003787673578284091,4.150038957595825,2019-07-26 15:05:50:651,-178.7249122273507,-177.54357803948793,0,-43.482295989990234,21.89108657836914,-30.287668228149414
0.1356458067893982,-0.05394173786044121,9.802742958068848,0.0005506098557455085,0.0018382962265118203,0.0032549110630313164,4.1600470542907715,2019-07-26 15:05:50:661,-178.7355913832981,-177.58671030810015,0,-43.482295989990234,21.89108657836914,-30.287668228149414
0.17156705260276794,-0.05394173786044121,9.769216537475586,0.0021488966212808557,0.004768488760030453,0.008582533874890132,4.170070648193359,2019-07-26 15:05:50:671,-178.74344086341998,-177.6298583243578,0,-43.482295989990234,21.89108657836914,-30.287668228149414
0.20509354770183563,-0.010836242698132992,9.788373947143555,0.0010833721109239577,0.0010391528437441464,0.00432043583346254,4.180063486099243,2019-07-26 15:05:50:681,-178.7451485180969,-177.67660044609195,0,-43.482295989990234,21.89108657836914,-30.287668228149414
0.1619880497455597,-0.051546987146139145,9.788373947143555,0.0026816588764593053,0.0021046773541010446,0.011512726798520253,4.190067529678345,2019-07-26 15:05:50:691,-178.75246574369802,-177.71854029306553,0,-43.482295989990234,21.89108657836914,-30.287668228149414
0.17156705260276794,-0.07549448311328888,9.762031555175781,-0.0010476770398270016,0.004235726504852004,0.006984247109354786,4.200064659118652,2019-07-26 15:05:50:701,-178.75965678396133,-177.7547196473408,0,-43.482295989990234,21.89108657836914,-30.287668228149414
0.17396180331707,-0.0611259862780571,9.80753231048584,-0.002912345062988736,0.005567632142798127,0.009914440032984907,4.210062742233276,2019-07-26 15:05:50:711,-178.7672656386825,-177.79084840039735,0,-43.482295989990234,21.89108657836914,-30.287668228149414
0.2003040462732315,-0.0347837395966053,9.821900367736816,0.00294804000404853,0.004768488760030453,0.0131110135640556,4.220063209533691,2019-07-26 15:05:50:721,-178.77123182954782,-177.83262864782895,0,-43.482295989990234,21.89108657836914,-30.287668228149414
0.12127730995416641,-0.06591548770666122,9.702162742614746,0.0032144211316377544,0.0010391528437441464,0.009648058385247031,4.23003077507019,2019-07-26 15:05:50:731,-178.7820655519054,-177.8699900019613,0,-43.482295989990234,21.89108657836914,-30.287668228149414
0.11169830709695816,-0.03238898888230324,9.860217094421387,0.0005506098557455085,0.01036249295955282,0.011512726798520253,4.240041255950928,2019-07-26 15:05:50:741,-178.7992682828681,-177.90913558547476,0,-43.482295989990234,21.89108657836914,-30.287668228149414
0.17396180331707,-0.07788923382759094,9.793163299560547,-0.0018468204225946753,0.003969345377262779,0.008049771619711684,4.25003457069397,2019-07-26 15:05:50:751,-178.80515676746887,-177.940802813177,0,-43.482295989990234,21.89108657836914,-30.287668228149414
0.10690881311893463,-0.006046743132174015,9.809926986694336,0.005079089284836651,0.00343658312208433,0.01124634515078238,4.260039806365967,2019-07-26 15:05:50:761,-178.81849655868967,-177.98413382071507,0,-43.482295989990234,21.89108657836914,-30.287668228149414
0.16677755117416382,-0.04675748944282532,9.802742958068848,-0.0010476770398270016,0.0015719150989225955,0.006185103726587112,4.270036458969116,2019-07-26 15:05:50:771,-178.82351497163037,-178.01839728246034,0,-43.482295989990234,21.89108657836914,-30.287668228149414
0.17635655403137207,-0.03957323729991913,9.704558372497559,-0.0013140581674162262,0.003969345377262779,0.004054054705873315,4.280034780502319,2019-07-26 15:05:50:781,-178.82845116580873,-178.05261883136785,0,-43.482295989990234,21.89108657836914,-30.287668228149414
0.1356458067893982,-0.03238898888230324,9.7500581741333,-0.003178726190577961,0.0029038208669058814,0.0019230054250851934,4.290037631988525,2019-07-26 15:05:50:791,-178.83757179734727,-178.08597446055802,0,-45.43150329589844,21.441268920898438,-31.33724021911621
0.1619880497455597,0.003532255766913295,9.812321662902832,0.0018825154936916314,0.005301251015208902,-0.00020804367690182974,4.300041913986206,2019-07-26 15:05:50:801,-178.84488249578234,-170.9257249624248,0,-45.43150329589844,21.441268920898438,-31.33724021911621
0.16917230188846588,-0.03238898888230324,9.762031555175781,-0.00371148844575641,0.00343658312208433,-0.0007408059808442149,4.31003475189209,2019-07-26 15:05:50:811,-178.8500568058771,-171.10132599413802,0,-45.43150329589844,21.441268920898438,-31.33724021911621
0.14043530821800232,-0.05633648484945297,9.774005889892578,-0.0015804392950054507,0.00343658312208433,0.004853198088640989,4.320037364959717,2019-07-26 15:05:50:821,-178.85852214803202,-171.2718069473054,0,-45.43150329589844,21.441268920898438,-31.33724021911621
0.14522480964660645,-0.02759948931634426,9.714137077331543,0.0016161343661024066,0.0026374397393166566,-0.0007408059808442149,4.330041408538818,2019-07-26 15:05:50:831,-178.86570324236152,-171.44402290331777,0,-45.43150329589844,21.441268920898438,-31.33724021911621
0.1548037976026535,-0.05394173786044121,9.865006446838379,-0.002912345062988736,-0.0005591340518283637,-0.0031382362591843983,4.34003758430481,2019-07-26 15:05:50:841,-178.87009486705512,-171.60724200246486,0,-45.43150329589844,21.441268920898438,-31.33724021911621
0.16677755117416382,-0.025204740464687347,9.76682186126709,0.004546327029658202,0.0029038208669058814,-0.0007408059808442149,4.349997282028198,2019-07-26 15:05:50:851,-178.87475121886447,-171.77468243114552,0,-45.43150329589844,21.441268920898438,-31.33724021911621
0.13804055750370026,-0.06591548770666122,9.783584594726562,-0.0021132015501838996,0.0018382962265118203,-0.004203760769541297,4.360061407089233,2019-07-26 15:05:50:861,-178.88212789990737,-171.93027428998673,0,-45.43150329589844,21.441268920898438,-31.33724021911621
0.12367206066846848,-0.037178490310907364,9.776400566101074,-0.0042442507009348585,0.0015719150989225955,-0.007400334300611992,4.3700361251831055,2019-07-26 15:05:50:871,-178.8908706100194,-172.0849339283344,0,-45.43150329589844,21.441268920898438,-31.33724021911621
0.18354080617427826,-0.07070498168468475,9.81950569152832,0.0016161343661024066,0.0015719150989225955,-0.00899862158629599,4.380043029785156,2019-07-26 15:05:50:881,-178.89252010455218,-172.23589235403082,0,-45.43150329589844,21.441268920898438,-31.33724021911621
0.16438280045986176,-0.05633648484945297,9.817111015319824,-0.00024853360829539187,-0.0026901830725421603,-0.007133953173022766,4.3900415897369385,2019-07-26 15:05:50:891,-178.89397337363155,-172.3844590953898,0,-45.43150329589844,21.441268920898438,-31.33724021911621
0.18593555688858032,-0.04675748944282532,9.800348281860352,-0.0034451073181671855,0.002371058611727432,-0.00793309707593909,4.400033235549927,2019-07-26 15:05:50:901,-178.89568604587134,-172.52936998141502,0,-45.43150329589844,21.441268920898438,-31.33724021911621
0.1811460554599762,-0.06831023842096329,9.833874702453613,-0.00371148844575641,0.003969345377262779,-0.009797764448915013,4.410034656524658,2019-07-26 15:05:50:911,-178.89889533664365,-172.66873840530621,0,-45.43150329589844,21.441268920898438,-31.33724021911621
0.18593555688858032,-0.02759948931634426,9.797953605651855,-0.0026459639353995116,-0.0008255151794175883,-0.009797764448915013,4.420037508010864,2019-07-26 15:05:50:921,-178.8987103662068,-172.81064963014356,0,-45.43150329589844,21.441268920898438,-31.33724021911621
0.226646289229393,-0.06352073699235916,9.73808479309082,-0.008239968134921878,0.004235726504852004,-0.004203760769541297,4.430040597915649,2019-07-26 15:05:50:931,-178.8964497755397,-172.94233386861987,0,-45.43150329589844,21.441268920898438,-31.33724021911621
0.17156705260276794,-0.03238898888230324,9.752452850341797,-0.006375299721648655,-2.63717336631639e-05,-0.011129670607009786,4.440049171447754,2019-07-26 15:05:50:941,-178.8983488683543,-173.07609869993576,0,-45.43150329589844,21.441268920898438,-31.33724021911621
0.20269879698753357,-0.0611259862780571,9.797953605651855,-0.003178726190577961,0.0015719150989225955,-0.004736523024719746,4.450037240982056,2019-07-26 15:05:50:951,-178.8975602938058,-173.20564513335086,0,-45.43150329589844,21.441268920898438,-31.33724021911621
0.14043530821800232,-0.0036519933491945267,9.838664054870605,-0.0013140581674162262,-0.0005591340518283637,-0.00047442482074569963,4.460037469863892,2019-07-26 15:05:50:961,-178.90293964691355,-173.3403690219062,0,-45.43150329589844,21.441268920898438,-31.33724021911621
0.11409305781126022,-0.07070498168468475,9.76682186126709,-0.0034451073181671855,0.0021046773541010446,-0.0026054740040059496,4.470041990280151,2019-07-26 15:05:50:971,-178.91267753130828,-173.463330858831,0,-45.43150329589844,21.441268920898438,-31.33724021911621
0.059013817459344864,-0.051546987146139145,9.754847526550293,-0.00371148844575641,-0.0005591340518283637,-0.0026054740040059496,4.480034828186035,2019-07-26 15:05:50:981,-178.92717790137675,-173.58592649816316,0,-45.43150329589844,21.441268920898438,-31.33724021911621
