ACCELEROMETER X (m/s²),ACCELEROMETER Y (m/s²),ACCELEROMETER Z (m/s²),GYROSCOPE X (rad/s),GYROSCOPE Y (rad/s),GYROSCOPE Z (rad/s),Time since start in ms ,YYYY-MO-DD HH-MI-SS_SSS,Pitch (Deg),Roll (Deg),Heading (Deg),MagX,MagY,MagZ
-0.019725553691387177,-0.03716651350259781,9.594337463378906,-0.0013718629371216693,0.012242078195822388,-0.000856149009090349,0.0,2019-08-06 15:24:30:978,3.5976440491342596,-3.595560978088914,0,-56.52698516845703,20.841514587402344,-35.235652923583984
-0.07241004705429077,-0.049140263348817825,9.658995628356934,-0.0005727194893354142,0.015971413982071532,0.005270617380591885,0.010004997253417969,2019-08-06 15:24:30:988,7.108128399664119,-7.117498206739381,0,-56.52698516845703,20.841514587402344,-35.235652923583984
-0.038883551955223083,-0.04674551263451576,9.639837265014648,0.0034229976195586987,0.016504176237249982,-0.00431910373276885,0.01999974250793457,2019-08-06 15:24:30:998,10.55208145254515,-10.57151250918124,0,-56.52698516845703,20.841514587402344,-35.235652923583984
-0.046067800372838974,-0.044350765645504,9.60391616821289,0.0004928051185493561,0.01996713141605855,0.0007421378864821609,0.0299990177154541,2019-08-06 15:24:31:008,13.924332464814789,-13.955067161991519,0,-56.52698516845703,20.841514587402344,-35.235652923583984
-0.04127829894423485,-0.05871926248073578,9.694916725158691,-0.0003063383292368989,0.01810246300278533,-0.001655292456876604,0.03999948501586914,2019-08-06 15:24:31:018,17.230801867075186,-17.268853412935314,0,-56.52698516845703,20.841514587402344,-35.235652923583984
-0.0005675556603819132,-0.06111401319503784,9.637442588806152,-0.002970149702657017,0.016770557884987856,-0.002987198094822727,0.04999732971191406,2019-08-06 15:24:31:028,20.476703730113808,-20.51454246026241,0,-56.52698516845703,20.841514587402344,-35.235652923583984
-0.038883551955223083,-0.01082426868379116,9.63265323638916,-0.0016382440647108938,0.016504176237249982,-0.0019216735844658289,0.060002803802490234,2019-08-06 15:24:31:038,23.653271886716073,-23.70204356420051,0,-56.52698516845703,20.841514587402344,-35.235652923583984
-0.026909802109003067,-0.044350765645504,9.73083782196045,-0.0011054818095324445,0.014905889471714633,-0.000856149009090349,0.06999683380126953,2019-08-06 15:24:31:048,26.768672885242857,-26.822159571682313,0,-56.52698516845703,20.841514587402344,-35.235652923583984
-0.03409405052661896,-0.034771766513586044,9.637442588806152,0.0004928051185493561,0.020766275318974875,0.0007421378864821609,0.07999873161315918,2019-08-06 15:24:31:058,29.81758312989098,-29.88185871167968,0,-56.52698516845703,20.841514587402344,-35.235652923583984
-0.005357054993510246,-0.03237701579928398,9.6901273727417,0.001824710854023351,0.015971413982071532,-0.0032535792224119516,0.0899965763092041,2019-08-06 15:24:31:068,32.811631969167905,-32.8814171275239,0,-56.52698516845703,20.841514587402344,-35.235652923583984
-0.03409405052661896,-0.041956014931201935,9.594337463378906,-0.003236530830246241,0.01810246300278533,-0.003519960350001176,0.10000348091125488,2019-08-06 15:24:31:078,35.74115574098399,-35.81695916832644,0,-57.126739501953125,19.94188117980957,-35.83540725708008
-0.026909802109003067,-0.03956126421689987,9.63265323638916,-0.002703768575067792,0.012774840451000838,0.0031395680998037635,0.10999822616577148,2019-08-06 15:24:31:088,38.61596211580708,-38.694396376542045,0,-57.126739501953125,19.94188117980957,-35.83540725708008
-0.04127829894423485,-0.015613768249750137,9.608705520629883,0.0010255674062370958,0.012774840451000838,0.0012749002066791914,0.1199960708618164,2019-08-06 15:24:31:098,41.43154862435732,-41.51922211351074,0,-57.126739501953125,19.94188117980957,-35.83540725708008
-0.053252048790454865,-0.07548251003026962,9.709284782409668,-0.002970149702657017,0.012774840451000838,0.0031395680998037635,0.13000154495239258,2019-08-06 15:24:31:108,44.189455784460314,-44.278260556349785,0,-57.126739501953125,19.94188117980957,-35.83540725708008
-0.012541304342448711,-0.08027201145887375,9.666179656982422,0.001824710854023351,0.01570503337463096,0.004471473997824211,0.1400001049041748,2019-08-06 15:24:31:118,46.89536282597718,-46.98420382524027,0,-57.126739501953125,19.94188117980957,-35.83540725708008
-0.038883551955223083,-0.0706930086016655,9.651811599731445,0.0004928051185493561,0.010111029175108591,0.00047575672638364575,0.15000534057617188,2019-08-06 15:24:31:128,49.54715882598579,-49.636403694460206,0,-57.126739501953125,19.94188117980957,-35.83540725708008
-0.046067800372838974,-0.03237701579928398,9.656600952148438,0.0007591862786478714,0.011442934292906064,-0.0019216735844658289,0.15999817848205566,2019-08-06 15:24:31:138,52.14432839341302,-52.24025954272224,0,-57.126739501953125,19.94188117980957,-35.83540725708008
0.0018271940061822534,-0.056324511766433716,9.6901273727417,0.003955759874737148,0.014373127216536186,-0.0003233867214026093,0.1699972152709961,2019-08-06 15:24:31:148,47.49358818816052,-54.79101465591131,0,-57.126739501953125,19.94188117980957,-35.83540725708008
-0.0149360541254282,-0.06590351462364197,9.601521492004395,-0.003502911957835466,0.016770557884987856,-0.0021880547120550534,0.17999768257141113,2019-08-06 15:24:31:158,50.13251676274867,-57.285362108088194,0,-57.126739501953125,19.94188117980957,-35.83540725708008
-0.02212030254304409,-0.05392976477742195,9.618284225463867,-0.004302055340603139,0.015971413982071532,-0.0061837716258934215,0.18999743461608887,2019-08-06 15:24:31:168,52.718263330063294,-59.730814240843195,0,-57.126739501953125,19.94188117980957,-35.83540725708008
-0.010146554559469223,-0.034771766513586044,9.630258560180664,0.004754903517579147,0.020499892630939702,-0.0024544358396442778,0.20000338554382324,2019-08-06 15:24:31:178,55.25117320193292,-62.13473190201945,0,-57.126739501953125,19.94188117980957,-35.83540725708008
-0.04367304965853691,-0.04674551263451576,9.637442588806152,-3.9957173202045016e-05,0.016770557884987856,-0.004052722605179625,0.20999860763549805,2019-08-06 15:24:31:188,57.73154479434349,-64.48645672614346,0,-57.126739501953125,19.94188117980957,-35.83540725708008
-0.07001529633998871,-0.02519276738166809,9.627863883972168,-0.002171006319889343,0.015438651726893083,-0.0019216735844658289,0.22000432014465332,2019-08-06 15:24:31:198,60.159907038211884,-66.79250942291068,0,-56.976802825927734,20.39169692993164,-35.38559341430664
-0.019725553691387177,-0.02519276738166809,9.596732139587402,-0.0019046251923001184,0.016237795629809405,0.0031395680998037635,0.22999978065490723,2019-08-06 15:24:31:208,62.5452401731912,-69.05258209329394,0,-56.976802825927734,20.39169692993164,-35.38559341430664
-0.02212030254304409,-0.06590351462364197,9.651811599731445,-0.0003063383292368989,0.01410674660909561,-0.004052722605179625,0.2400035858154297,2019-08-06 15:24:31:218,64.88378519858546,-71.2635340751685,0,-56.976802825927734,20.39169692993164,-35.38559341430664
-0.05564679950475693,-0.0635087639093399,9.63265323638916,-3.9957173202045016e-05,0.014905889471714633,0.0023404247170360896,0.2499995231628418,2019-08-06 15:24:31:228,67.17112350103604,-73.43068597383476,0,-56.976802825927734,20.39169692993164,-35.38559341430664
-0.02930455282330513,-0.05153501406311989,9.649415969848633,-0.003236530830246241,0.015438651726893083,0.0018076624618576407,0.25999999046325684,2019-08-06 15:24:31:238,69.41555179495415,-75.55413488366028,0,-56.976802825927734,20.39169692993164,-35.38559341430664
-0.053252048790454865,-0.03716651350259781,9.682943344116211,-0.0037692930854246903,0.015438651726893083,-0.004052722605179625,0.26999783515930176,2019-08-06 15:24:31:248,71.61227186318901,-77.63653778713304,0,-56.976802825927734,20.39169692993164,-35.38559341430664
-0.04367304965853691,-0.03237701579928398,9.658995628356934,-0.003502911957835466,0.018901606905701654,-0.0019216735844658289,0.2800018787384033,2019-08-06 15:24:31:258,73.76422769754676,-79.6779982536874,0,-56.976802825927734,20.39169692993164,-35.38559341430664
-0.0508572980761528,-0.044350765645504,9.64462661743164,0.0004928051185493561,0.012774840451000838,-0.002987198094822727,0.2900052070617676,2019-08-06 15:24:31:268,75.87572520331027,-81.67944564033924,0,-56.976802825927734,20.39169692993164,-35.38559341430664
-0.07959429919719696,-0.06111401319503784,9.680547714233398,0.003689378747147923,0.014639508864274061,0.001541281334268416,0.29999613761901855,2019-08-06 15:24:31:278,77.94057648545285,-83.64069227616014,0,-56.976802825927734,20.39169692993164,-35.38559341430664
-0.012541304342448711,-0.041956014931201935,9.666179656982422,0.0002264239747054862,0.01357398435391716,-0.0019216735844658289,0.3099973201751709,2019-08-06 15:24:31:288,79.97265552287196,-85.56303177153038,0,-56.976802825927734,20.39169692993164,-35.38559341430664
-0.04367304965853691,-0.05871926248073578,9.618284225463867,-0.002171006319889343,0.014905889471714633,-0.004052722605179625,0.31999897956848145,2019-08-06 15:24:31:298,81.95962824637107,-87.44355623216784,0,-56.976802825927734,20.39169692993164,-35.38559341430664
-0.06522579491138458,0.013123228214681149,9.67336368560791,0.001824710854023351,0.016770557884987856,-0.002987198094822727,0.329998254776001,2019-08-06 15:24:31:308,83.90329312775476,-82.09726419469845,0,-56.976802825927734,20.39169692993164,-35.38559341430664
-0.017330802977085114,-0.07308775931596756,9.714075088500977,0.002890235364380249,0.01357398435391716,0.00047575672638364575,0.34000611305236816,2019-08-06 15:24:31:318,85.81555508546715,-84.048321454184,0,-56.976802825927734,20.39169692993164,-35.38559341430664
-0.03648880124092102,-0.027587516233325005,9.615889549255371,-0.0024373874474785677,0.017036938492428433,-0.0013889113292873795,0.3502838611602783,2019-08-06 15:24:31:328,87.6850637543381,-85.96266085635044,0,-56.67692184448242,21.291330337524414,-35.08571243286133
-0.026909802109003067,-0.049140263348817825,9.637442588806152,0.0012919485988449018,0.011709315940643939,-0.006982915528809746,0.35999536514282227,2019-08-06 15:24:31:338,89.52177776039794,-87.8382692909629,0,-56.67692184448242,21.291330337524414,-35.08571243286133
-0.02212030254304409,-0.022798016667366028,9.58236312866211,0.002890235364380249,0.016237795629809405,0.0010085190140713856,0.3699970245361328,2019-08-06 15:24:31:348,91.31957792033398,-89.68040072129743,0,-56.67692184448242,21.291330337524414,-35.08571243286133
-0.017330802977085114,-0.05153501406311989,9.658995628356934,0.0010255674062370958,0.016770557884987856,0.001541281334268416,0.38000011444091797,2019-08-06 15:24:31:358,93.08171073219664,-91.48125483098481,0,-56.67692184448242,21.291330337524414,-35.08571243286133
-0.06762054562568665,-0.03237701579928398,9.654206275939941,-0.0019046251923001184,0.015172271119452508,-0.0005897678815011245,0.3900017738342285,2019-08-06 15:24:31:368,94.8035297378067,-93.24671710484985,0,-56.67692184448242,21.291330337524414,-35.08571243286133
-0.0508572980761528,-0.056324511766433716,9.692522048950195,0.0010255674062370958,0.014905889471714633,0.0031395680998037635,0.39999985694885254,2019-08-06 15:24:31:378,96.49307847177556,-94.97569951684017,0,-56.67692184448242,21.291330337524414,-35.08571243286133
-0.10114704072475433,-0.04674551263451576,9.658995628356934,-0.0013718629371216693,0.01570503337463096,-0.004585484860358075,0.40999841690063477,2019-08-06 15:24:31:388,98.14240046059955,-96.66986962775466,0,-56.67692184448242,21.291330337524414,-35.08571243286133
0.006616693455725908,-0.056324511766433716,9.654206275939941,-0.0016382440647108938,0.017836082395344753,-0.003786341477590401,0.4199981689453125,2019-08-06 15:24:31:398,92.57032313858916,-98.32886696825256,0,-56.67692184448242,21.291330337524414,-35.08571243286133
-0.0508572980761528,-0.06590351462364197,9.606310844421387,-0.0037692930854246903,0.01410674660909561,-0.0003233867214026093,0.4300086498260498,2019-08-06 15:24:31:408,94.30492085695897,-99.95230959644208,0,-56.67692184448242,21.291330337524414,-35.08571243286133
-0.026909802109003067,-0.08745625615119934,9.663784980773926,-0.0008391006169246387,0.012774840451000838,-0.0027208169672335025,0.4399991035461426,2019-08-06 15:24:31:418,96.008465320448,-101.54242256577639,0,-56.67692184448242,21.291330337524414,-35.08571243286133
-0.024515053257346153,-0.041956014931201935,9.635047912597656,-0.002171006319889343,0.017303320140166306,-0.00431910373276885,0.4499983787536621,2019-08-06 15:24:31:428,97.6756653093141,-103.10536530417792,0,-56.67692184448242,21.291330337524414,-35.08571243286133
-0.02212030254304409,-0.044350765645504,9.651811599731445,-0.0024373874474785677,0.01756970178790418,-0.000856149009090349,0.46000242233276367,2019-08-06 15:24:31:438,99.3096564122643,-104.63662332780156,0,-56.67692184448242,21.291330337524414,-35.08571243286133
-0.03169930353760719,-0.0706930086016655,9.623074531555176,-0.0011054818095324445,0.017303320140166306,-0.0003233867214026093,0.4699981212615967,2019-08-06 15:24:31:448,100.90997693313653,-106.13485243057399,0,-56.82686233520508,19.94188117980957,-35.83540725708008
-0.017330802977085114,-0.07308775931596756,9.666179656982422,-0.0011054818095324445,0.015438651726893083,0.0012749002066791914,0.48000502586364746,2019-08-06 15:24:31:458,102.48104808054106,-107.60286991376451,0,-56.82686233520508,19.94188117980957,-35.83540725708008
0.00901144277304411,-0.06590351462364197,9.630258560180664,-0.0005727194893354142,0.015438651726893083,0.00020937558253977584,0.49025559425354004,2019-08-06 15:24:31:468,96.82361340639284,-109.0426410635485,0,-56.82686233520508,19.94188117980957,-35.83540725708008
0.013800942339003086,-0.027587516233325005,9.651811599731445,-0.002171006319889343,0.015438651726893083,0.0010085190140713856,0.5000066757202148,2019-08-06 15:24:31:478,91.28032666022841,-110.45732423766182,0,-56.82686233520508,19.94188117980957,-35.83540725708008
-0.04127829894423485,-0.056324511766433716,9.623074531555176,0.0004928051185493561,0.015172271119452508,-0.0003233867214026093,0.5099985599517822,2019-08-06 15:24:31:488,93.04129244227465,-111.84174719220155,0,-56.82686233520508,19.94188117980957,-35.83540725708008
-0.03169930353760719,-0.013219018466770649,9.682943344116211,-0.0011054818095324445,0.01756970178790418,-0.0013889113292873795,0.5199985504150391,2019-08-06 15:24:31:498,94.76684983891349,-113.2027271354953,0,-56.82686233520508,19.94188117980957,-35.83540725708008
-0.03169930353760719,-0.04674551263451576,9.658995628356934,0.0012919485988449018,0.00824636128198402,0.0026068058446253144,0.5300033092498779,2019-08-06 15:24:31:508,96.46311961688,-114.53385265488141,0,-56.82686233520508,19.94188117980957,-35.83540725708008
-0.05564679950475693,-0.044350765645504,9.647021293640137,-0.0005727194893354142,0.013041222098738713,-0.001122530201698155,0.5399956703186035,2019-08-06 15:24:31:518,98.11993029166932,-115.83758612446279,0,-56.82686233520508,19.94188117980957,-35.83540725708008
-0.05564679950475693,-0.049140263348817825,9.637442588806152,-0.0003063383292368989,0.01810246300278533,-0.0021880547120550534,0.5500013828277588,2019-08-06 15:24:31:528,99.74074490342564,-117.11481944780874,0,-56.82686233520508,19.94188117980957,-35.83540725708008
-0.03169930353760719,0.005938979331403971,9.685338020324707,0.0031566164919694735,0.0194343681205828,0.00020937558253977584,0.5599982738494873,2019-08-06 15:24:31:538,101.33127055397514,-111.17499761074757,0,-56.82686233520508,19.94188117980957,-35.83540725708008
-0.053252048790454865,-0.049140263348817825,9.66139030456543,-0.0019046251923001184,0.014639508864274061,0.0023404247170360896,0.5700051784515381,2019-08-06 15:24:31:548,102.890103362201,-112.54459911075269,0,-56.82686233520508,19.94188117980957,-35.83540725708008
-0.03648880124092102,-0.08745625615119934,9.651811599731445,-0.0005727194893354142,0.0183688436102259,0.004471473997824211,0.5799980163574219,2019-08-06 15:24:31:558,104.41766247292082,-113.88300277920416,0,-56.82686233520508,19.94188117980957,-35.83540725708008
-0.04127829894423485,-0.03237701579928398,9.639837265014648,0.0012919485988449018,0.014373127216536186,0.0007421378864821609,0.5899991989135742,2019-08-06 15:24:31:568,105.91633093582917,-115.20221950089544,0,-56.82686233520508,19.94188117980957,-35.83540725708008
-0.07480479776859283,-0.02519276738166809,9.630258560180664,-0.0008391006169246387,0.011975696548084513,0.0010085190140713856,0.5999999046325684,2019-08-06 15:24:31:578,107.38237857496743,-116.49470621411933,0,-55.92722702026367,20.841514587402344,-35.83540725708008
-0.02212030254304409,-0.027587516233325005,9.62067985534668,-3.9957173202045016e-05,0.01756970178790418,-0.006982915528809746,0.6099989414215088,2019-08-06 15:24:31:588,108.82223185372033,-117.76150372633413,0,-55.92722702026367,20.841514587402344,-35.83540725708008
-0.007751804776489735,-0.05153501406311989,9.685338020324707,-0.0013718629371216693,0.015172271119452508,0.001541281334268416,0.6200037002563477,2019-08-06 15:24:31:598,110.2363468024649,-118.99940570596549,0,-55.92722702026367,20.841514587402344,-35.83540725708008
0.006616693455725908,-0.027587516233325005,9.60391616821289,-0.002703768575067792,0.016504176237249982,-0.001122530201698155,0.6299991607666016,2019-08-06 15:24:31:608,104.42314648811377,-120.21460845329676,0,-55.92722702026367,20.841514587402344,-35.83540725708008
-0.017330802977085114,-0.041956014931201935,9.639837265014648,-0.0019046251923001184,0.01357398435391716,-0.000856149009090349,0.640000581741333,2019-08-06 15:24:31:618,105.92500054066159,-121.40425928535717,0,-55.92722702026367,20.841514587402344,-35.83540725708008
-0.053252048790454865,-0.04674551263451576,9.654206275939941,0.0015583297264341264,0.014905889471714633,0.00020937558253977584,0.6499981880187988,2019-08-06 15:24:31:628,107.39181215600222,-122.57150042859013,0,-55.92722702026367,20.841514587402344,-35.83540725708008
-0.10593654215335846,-0.05153501406311989,9.687732696533203,-0.0013718629371216693,0.014905889471714633,-0.003519960350001176,0.6599998474121094,2019-08-06 15:24:31:638,108.82307465964011,-123.71320422006265,0,-55.92722702026367,20.841514587402344,-35.83540725708008
-0.03409405052661896,-0.041956014931201935,9.668574333190918,-0.002171006319889343,0.016237795629809405,0.0007421378864821609,0.67000412940979,2019-08-06 15:24:31:648,110.23345096560564,-124.83274801756868,0,-55.92722702026367,20.841514587402344,-35.83540725708008
-0.03169930353760719,-0.0898510068655014,9.625469207763672,-0.002171006319889343,0.014905889471714633,0.00047575672638364575,0.6800007820129395,2019-08-06 15:24:31:658,111.61664131138099,-125.92417796399306,0,-55.92722702026367,20.841514587402344,-35.83540725708008
-0.010146554559469223,-0.03716651350259781,9.618284225463867,-0.002703768575067792,0.011975696548084513,-0.0021880547120550534,0.6899967193603516,2019-08-06 15:24:31:668,112.97637802680609,-126.99974888898107,0,-55.92722702026367,20.841514587402344,-35.83540725708008
-0.04127829894423485,-0.08506150543689728,9.67336368560791,-0.0013718629371216693,0.015172271119452508,-0.0021880547120550534,0.6999995708465576,2019-08-06 15:24:31:678,114.30343899173035,-128.048907187641,0,-55.92722702026367,20.841514587402344,-35.83540725708008
-0.0508572980761528,-0.029982266947627068,9.639837265014648,-0.003236530830246241,0.01570503337463096,-0.0024544358396442778,0.709998369216919,2019-08-06 15:24:31:688,115.60250741730209,-129.08254788651922,0,-55.92722702026367,20.841514587402344,-35.83540725708008
0.00422194367274642,-0.05153501406311989,9.635047912597656,-0.0019046251923001184,0.014373127216536186,-0.0013889113292873795,0.7200038433074951,2019-08-06 15:24:31:698,109.6828844839267,-130.09369779468227,0,-56.52698516845703,21.14139175415039,-34.336021423339844
-0.019725553691387177,-0.056324511766433716,9.637442588806152,-0.002970149702657017,0.014373127216536186,0.00047575672638364575,0.7299995422363281,2019-08-06 15:24:31:708,111.07881436055206,-131.08345977456128,0,-56.52698516845703,21.14139175415039,-34.336021423339844
-0.0005675556603819132,-0.0706930086016655,9.647021293640137,-0.004035674213013915,0.016770557884987856,-5.7005565367755386e-05,0.7399992942810059,2019-08-06 15:24:31:718,112.44775424464443,-132.05112753370653,0,-56.52698516845703,21.14139175415039,-34.336021423339844
-0.038883551955223083,-0.07787726074457169,9.587152481079102,-0.0016382440647108938,0.015438651726893083,0.0010085190140713856,0.7500007152557373,2019-08-06 15:24:31:728,113.78548156955502,-132.9998768147484,0,-56.52698516845703,21.14139175415039,-34.336021423339844
-0.02212030254304409,-0.06590351462364197,9.721259117126465,0.0010255674062370958,0.017303320140166306,-0.002987198094822727,0.7599995136260986,2019-08-06 15:24:31:738,115.09744983831624,-133.9326866558723,0,-56.52698516845703,21.14139175415039,-34.336021423339844
-0.012541304342448711,-0.0635087639093399,9.639837265014648,-0.0005727194893354142,0.016770557884987856,-0.003519960350001176,0.7700042724609375,2019-08-06 15:24:31:748,116.38458889428357,-134.84616182560734,0,-56.52698516845703,21.14139175415039,-34.336021423339844
-0.005357054993510246,-0.05392976477742195,9.642231941223145,0.0034229976195586987,0.016504176237249982,0.00047575672638364575,0.7800047397613525,2019-08-06 15:24:31:758,117.64699296030518,-135.74475155784774,0,-56.52698516845703,21.14139175415039,-34.336021423339844
-0.06283104419708252,-0.07308775931596756,9.625469207763672,0.0020910919816125757,0.020499892630939702,0.0020740435894468653,0.78999924659729,2019-08-06 15:24:31:768,118.87506880998058,-136.62232907005532,0,-56.52698516845703,21.14139175415039,-34.336021423339844
-0.0029623054433614016,-0.056324511766433716,9.649415969848633,-0.004834817595781589,0.015971413982071532,-0.0027208169672335025,0.7999958992004395,2019-08-06 15:24:31:778,120.08825072015932,-137.4804799171441,0,-56.52698516845703,21.14139175415039,-34.336021423339844
-0.02212030254304409,-0.08506150543689728,9.718864440917969,-0.005367579850960038,0.01410674660909561,-0.004585484860358075,0.8100066184997559,2019-08-06 15:24:31:788,121.27594817698188,-138.31782416590195,0,-56.52698516845703,21.14139175415039,-34.336021423339844
-0.007751804776489735,-0.06829825788736343,9.682943344116211,0.0026238542367910244,0.017036938492428433,-0.003519960350001176,0.8199996948242188,2019-08-06 15:24:31:798,122.43995224173943,-139.14485741685453,0,-56.52698516845703,21.14139175415039,-34.336021423339844
-0.02212030254304409,-0.03716651350259781,9.687732696533203,-0.0008391006169246387,0.016237795629809405,-0.00431910373276885,0.8299994468688965,2019-08-06 15:24:31:808,123.57941942252903,-139.95709289869913,0,-56.52698516845703,21.14139175415039,-34.336021423339844
-0.005357054993510246,-0.03956126421689987,9.649415969848633,-0.003236530830246241,0.013041222098738713,-0.0024544358396442778,0.8399989604949951,2019-08-06 15:24:31:818,124.69987258521522,-140.75143575314127,0,-56.52698516845703,21.14139175415039,-34.336021423339844
0.025774691253900528,-0.06590351462364197,9.642231941223145,-0.004035674213013915,0.013307602706179285,0.00047575672638364575,0.8500015735626221,2019-08-06 15:24:31:828,118.60146412471059,-141.52630834483477,0,-57.57655715942383,20.39169692993164,-35.08571243286133
-0.04367304965853691,-0.0635087639093399,9.611100196838379,0.0026238542367910244,0.01410674660909561,0.00047575672638364575,0.8600037097930908,2019-08-06 15:24:31:838,119.81630520141535,-142.28968384850836,0,-57.57655715942383,20.39169692993164,-35.08571243286133
-0.03409405052661896,-0.041956014931201935,9.635047912597656,-0.0011054818095324445,0.01570503337463096,-5.7005565367755386e-05,0.8702521324157715,2019-08-06 15:24:31:848,121.00688681768597,-143.03826414321313,0,-57.57655715942383,20.39169692993164,-35.08571243286133
-0.03648880124092102,-0.05392976477742195,9.599126815795898,-0.005101198723370813,0.0183688436102259,0.0010085190140713856,0.8799858093261719,2019-08-06 15:24:31:858,122.17235378339045,-143.7682729182346,0,-57.57655715942383,20.39169692993164,-35.08571243286133
-0.03409405052661896,-0.029982266947627068,9.635047912597656,-0.0024373874474785677,0.013840364961357736,0.0026068058446253144,0.8899979591369629,2019-08-06 15:24:31:868,123.3170710626442,-144.48797136763744,0,-57.57655715942383,20.39169692993164,-35.08571243286133
-0.019725553691387177,-0.03956126421689987,9.6901273727417,0.0004928051185493561,0.01410674660909561,-0.002987198094822727,0.8999979496002197,2019-08-06 15:24:31:878,124.44047606829372,-145.1938103190142,0,-57.57655715942383,20.39169692993164,-35.08571243286133
-0.07001529633998871,-0.03237701579928398,9.63265323638916,-0.003236530830246241,0.014639508864274061,-0.000856149009090349,0.9100053310394287,2019-08-06 15:24:31:888,125.53511143185416,-145.88426385728766,0,-57.57655715942383,20.39169692993164,-35.08571243286133
-0.03409405052661896,-0.027587516233325005,9.64462661743164,-0.0011054818095324445,0.019700750808617978,-0.003519960350001176,0.9200000762939453,2019-08-06 15:24:31:898,126.60930224137707,-146.56268040865154,0,-57.57655715942383,20.39169692993164,-35.08571243286133
-0.03169930353760719,-0.06111401319503784,9.675758361816406,-3.9957173202045016e-05,0.0183688436102259,0.001541281334268416,0.9299972057342529,2019-08-06 15:24:31:908,127.66305089061967,-147.22416663661048,0,-57.57655715942383,20.39169692993164,-35.08571243286133
-0.04846255108714104,-0.08027201145887375,9.630258560180664,0.0020910919816125757,0.014373127216536186,-0.001655292456876604,0.9399971961975098,2019-08-06 15:24:31:918,128.6959528228737,-147.87130600989616,0,-57.57655715942383,20.39169692993164,-35.08571243286133
-0.03648880124092102,-0.05392976477742195,9.630258560180664,-0.002970149702657017,0.015172271119452508,-0.001655292456876604,0.9500100612640381,2019-08-06 15:24:31:928,129.70916177297738,-148.50579291120332,0,-57.57655715942383,20.39169692993164,-35.08571243286133
-0.046067800372838974,-0.05153501406311989,9.606310844421387,-0.0016382440647108938,0.01357398435391716,0.0012749002066791914,0.959998607635498,2019-08-06 15:24:31:938,130.7018702095019,-149.12861079579432,0,-57.57655715942383,20.39169692993164,-35.08571243286133
-0.03169930353760719,-0.03956126421689987,9.666179656982422,-0.003502911957835466,0.017836082395344753,-0.001655292456876604,0.969996452331543,2019-08-06 15:24:31:948,131.67406212169837,-149.73938220277714,0,-56.67692184448242,20.091819763183594,-34.485958099365234
-0.03169930353760719,-0.06829825788736343,9.611100196838379,-0.002171006319889343,0.014639508864274061,-0.002987198094822727,0.9799997806549072,2019-08-06 15:24:31:958,132.62857863719435,-150.3352321845667,0,-56.67692184448242,20.091819763183594,-34.485958099365234
-0.02930455282330513,-0.06590351462364197,9.630258560180664,0.0010255674062370958,0.013840364961357736,-0.0019216735844658289,0.9899985790252686,2019-08-06 15:24:31:968,133.56474968035795,-150.9212615134639,0,-56.67692184448242,20.091819763183594,-34.485958099365234
-0.06522579491138458,-0.034771766513586044,9.649415969848633,-0.002171006319889343,0.01810246300278533,-0.00431910373276885,1.0000026226043701,2019-08-06 15:24:31:978,134.47554030243435,-151.4974874728165,0,-56.67692184448242,20.091819763183594,-34.485958099365234
-0.038883551955223083,-0.0635087639093399,9.625469207763672,-3.9957173202045016e-05,0.014373127216536186,-0.0013889113292873795,1.0099983215332031,2019-08-06 15:24:31:988,135.37333340044552,-152.05995466551238,0,-56.67692184448242,20.091819763183594,-34.485958099365234
-0.0508572980761528,-0.03716651350259781,9.613494873046875,0.0026238542367910244,0.013840364961357736,0.0020740435894468653,1.0199968814849854,2019-08-06 15:24:31:998,136.2520344408412,-152.61579847454067,0,-56.67692184448242,20.091819763183594,-34.485958099365234
-0.06762054562568665,-0.041956014931201935,9.687732696533203,-0.0019046251923001184,0.01996713141605855,-5.7005565367755386e-05,1.0300025939941406,2019-08-06 15:24:32:008,137.1077774491147,-153.157449704259,0,-56.67692184448242,20.091819763183594,-34.485958099365234
-0.05804154649376869,-0.022798016667366028,9.654206275939941,0.0015583297264341264,0.015172271119452508,0.0012749002066791914,1.0399963855743408,2019-08-06 15:24:32:018,137.95021876369543,-153.6924691387855,0,-56.67692184448242,20.091819763183594,-34.485958099365234
-0.03169930353760719,-0.022798016667366028,9.63265323638916,-0.003236530830246241,0.013840364961357736,0.003672330354982212,1.0500035285949707,2019-08-06 15:24:32:028,138.77966650581152,-154.2140890673645,0,-56.67692184448242,20.091819763183594,-34.485958099365234
-0.03648880124092102,-0.029982266947627068,9.678153038024902,-0.0019046251923001184,0.009578266919930143,0.003405949227392988,1.0599970817565918,2019-08-06 15:24:32:038,139.5943781215204,-154.72518857297428,0,-56.67692184448242,20.091819763183594,-34.485958099365234
-0.053252048790454865,-0.03237701579928398,9.587152481079102,-0.002970149702657017,0.016504176237249982,0.003938711482571438,1.0699999332427979,2019-08-06 15:24:32:048,140.38685589626982,-155.22514670505473,0,-56.67692184448242,20.091819763183594,-34.485958099365234
-0.03409405052661896,-0.015613768249750137,9.675758361816406,-0.002970149702657017,0.015172271119452508,0.0012749002066791914,1.0799977779388428,2019-08-06 15:24:32:058,141.16656360849936,-155.71712723335946,0,-56.67692184448242,20.091819763183594,-34.485958099365234
-0.07001529633998871,-0.06590351462364197,9.611100196838379,0.0031566164919694735,0.01863522629826108,0.001541281334268416,1.0900049209594727,2019-08-06 15:24:32:068,141.92441354752202,-156.19670094664264,0,-56.67692184448242,20.091819763183594,-34.485958099365234
-0.03169930353760719,-0.049140263348817825,9.608705520629883,-0.0037692930854246903,0.020499892630939702,0.0007421378864821609,1.0999960899353027,2019-08-06 15:24:32:078,142.6706443960841,-156.66479202237704,0,-55.77729034423828,20.39169692993164,-35.08571243286133
-0.0508572980761528,-0.02519276738166809,9.658995628356934,-3.9957173202045016e-05,0.01810246300278533,-0.001122530201698155,1.1099977493286133,2019-08-06 15:24:32:088,143.40103180463043,-157.1284849512834,0,-55.77729034423828,20.39169692993164,-35.08571243286133
-0.0508572980761528,-0.003640019567683339,9.62067985534668,-0.003502911957835466,0.019167987513142228,-0.001655292456876604,1.1199963092803955,2019-08-06 15:24:32:098,144.1161923821413,-157.58351509384758,0,-55.77729034423828,20.39169692993164,-35.08571243286133
-0.04367304965853691,-0.06111401319503784,9.668574333190918,-0.0011054818095324445,0.01756970178790418,-5.7005565367755386e-05,1.130000352859497,2019-08-06 15:24:32:108,144.8188231044165,-158.02398070233167,0,-55.77729034423828,20.39169692993164,-35.08571243286133
-0.04367304965853691,-0.044350765645504,9.658995628356934,-0.004302055340603139,0.013307602706179285,0.003405949227392988,1.1400058269500732,2019-08-06 15:24:32:118,145.50978914088728,-158.45582255685022,0,-55.77729034423828,20.39169692993164,-35.08571243286133
-0.04846255108714104,-0.041956014931201935,9.680547714233398,-0.0016382440647108938,0.016237795629809405,0.004205092610160662,1.1500003337860107,2019-08-06 15:24:32:128,146.18474425609574,-158.88082031044036,0,-55.77729034423828,20.39169692993164,-35.08571243286133
-0.0508572980761528,-0.044350765645504,9.654206275939941,-0.0024373874474785677,0.016770557884987856,0.0023404247170360896,1.1600031852722168,2019-08-06 15:24:32:138,146.84559353879519,-159.2965707031559,0,-55.77729034423828,20.39169692993164,-35.08571243286133
-0.019725553691387177,-0.0635087639093399,9.6901273727417,-0.003236530830246241,0.010111029175108591,0.0010085190140713856,1.1700072288513184,2019-08-06 15:24:32:148,147.50066938159668,-159.70131106247516,0,-55.77729034423828,20.39169692993164,-35.08571243286133
-0.0508572980761528,-0.08506150543689728,9.687732696533203,0.0012919485988449018,0.013307602706179285,0.005004236253002661,1.1799945831298828,2019-08-06 15:24:32:158,148.13717763087615,-160.09794809094294,0,-55.77729034423828,20.39169692993164,-35.08571243286133
-0.04367304965853691,-0.06111401319503784,9.670969009399414,-0.0005727194893354142,0.016504176237249982,-0.003786341477590401,1.1900017261505127,2019-08-06 15:24:32:168,148.7599855906288,-160.48842599954733,0,-55.77729034423828,20.39169692993164,-35.08571243286133
-0.0149360541254282,-0.049140263348817825,9.668574333190918,-0.0037692930854246903,0.01863522629826108,0.00020937558253977584,1.2000017166137695,2019-08-06 15:24:32:178,149.37255202079177,-160.87071699428714,0,-55.77729034423828,20.39169692993164,-35.08571243286133
-0.03169930353760719,-0.049140263348817825,9.670969009399414,-0.0013718629371216693,0.014639508864274061,-0.0003233867214026093,1.209996223449707,2019-08-06 15:24:32:188,149.9731293863573,-161.24671018611062,0,-55.77729034423828,20.39169692993164,-35.08571243286133
0.006616693455725908,-0.041956014931201935,9.618284225463867,-0.0019046251923001184,0.012508459843560263,0.00047575672638364575,1.2199997901916504,2019-08-06 15:24:32:198,143.36742911841523,-161.61570757820573,0,-56.07716751098633,20.091819763183594,-35.08571243286133
-0.010146554559469223,-0.01800851710140705,9.58236312866211,-0.002970149702657017,0.015971413982071532,0.0023404247170360896,1.230039358139038,2019-08-06 15:24:32:208,144.0898637401012,-161.97956553041612,0,-56.07716751098633,20.091819763183594,-35.08571243286133
-0.04127829894423485,-0.05153501406311989,9.615889549255371,-3.9957173202045016e-05,0.013307602706179285,0.0023404247170360896,1.2402300834655762,2019-08-06 15:24:32:218,144.79553268881108,-162.33381004059063,0,-56.07716751098633,20.091819763183594,-35.08571243286133
-0.05804154649376869,-0.03956126421689987,9.678153038024902,-0.002970149702657017,0.010910172037727614,0.005803379635770335,1.25020170211792,2019-08-06 15:24:32:228,145.4866412045505,-162.68078671939,0,-56.07716751098633,20.091819763183594,-35.08571243286133
-0.04846255108714104,-0.013219018466770649,9.613494873046875,0.004222141002326372,0.015971413982071532,0.004737855125413436,1.2602527141571045,2019-08-06 15:24:32:238,146.16211808438695,-163.02797811685414,0,-56.07716751098633,20.091819763183594,-35.08571243286133
-0.04846255108714104,-0.027587516233325005,9.64462661743164,-0.004035674213013915,0.013307602706179285,0.00020937558253977584,1.2700486183166504,2019-08-06 15:24:32:248,146.82579805072436,-163.36192100644297,0,-56.07716751098633,20.091819763183594,-35.08571243286133
-0.04127829894423485,-0.01082426868379116,9.623074531555176,-0.005367579850960038,0.01810246300278533,-0.0005897678815011245,1.2800288200378418,2019-08-06 15:24:32:258,147.4742223161893,-163.69038571128218,0,-56.07716751098633,20.091819763183594,-35.08571243286133
-0.010146554559469223,-0.008429518900811672,9.611100196838379,0.003689378747147923,0.015172271119452508,-0.0003233867214026093,1.2900094985961914,2019-08-06 15:24:32:268,148.1150253641396,-164.01764053826156,0,-56.07716751098633,20.091819763183594,-35.08571243286133
-0.0149360541254282,-0.034771766513586044,9.685338020324707,-0.0019046251923001184,0.014639508864274061,0.0031395680998037635,1.3000202178955078,2019-08-06 15:24:32:278,148.74272883135913,-164.3321031513816,0,-56.07716751098633,20.091819763183594,-35.08571243286133
-0.046067800372838974,-0.04674551263451576,9.658995628356934,-0.0024373874474785677,0.015971413982071532,-0.0027208169672335025,1.3100202083587646,2019-08-06 15:24:32:288,149.35344102555055,-164.63854678942104,0,-56.07716751098633,20.091819763183594,-35.08571243286133
-0.024515053257346153,-0.03956126421689987,9.623074531555176,0.0002264239747054862,0.012774840451000838,-0.001655292456876604,1.32000732421875,2019-08-06 15:24:32:298,149.95628914546677,-164.94119189829198,0,-56.07716751098633,20.091819763183594,-35.08571243286133
-0.0005675556603819132,-0.034771766513586044,9.618284225463867,-0.003502911957835466,0.019167987513142228,-0.005917390498304197,1.3300087451934814,2019-08-06 15:24:32:308,150.54633141610503,-165.23625823488032,0,-56.07716751098633,20.091819763183594,-35.08571243286133
-0.04367304965853691,-0.06590351462364197,9.654206275939941,0.0012919485988449018,0.010910172037727614,-0.0019216735844658289,1.340026617050171,2019-08-06 15:24:32:318,151.12408401205738,-165.52443743250143,0,-56.07716751098633,20.091819763183594,-35.08571243286133
0.013800942339003086,-0.029982266947627068,9.577573776245117,-0.0016382440647108938,0.011975696548084513,-0.0005897678815011245,1.3500175476074219,2019-08-06 15:24:32:328,144.49653531546687,-165.8094424084885,0,-56.67692184448242,21.591209411621094,-34.485958099365234
-0.05564679950475693,-0.0635087639093399,9.67336368560791,-0.0005727194893354142,0.014373127216536186,-0.003519960350001176,1.3600034713745117,2019-08-06 15:24:32:338,145.19195357947967,-166.08540923307245,0,-56.67692184448242,21.591209411621094,-34.485958099365234
-0.03169930353760719,-0.05392976477742195,9.587152481079102,-0.0003063383292368989,0.01863522629826108,-0.0003233867214026093,1.3700101375579834,2019-08-06 15:24:32:348,145.8738549959711,-166.35708297510018,0,-56.67692184448242,21.591209411621094,-34.485958099365234
0.025774691253900528,-0.056324511766433716,9.651811599731445,-0.0008391006169246387,0.014905889471714633,-0.001655292456876604,1.3800029754638672,2019-08-06 15:24:32:358,139.35107435812532,-166.62278342258844,0,-56.67692184448242,21.591209411621094,-34.485958099365234
-0.012541304342448711,-0.056324511766433716,9.64462661743164,-0.0008391006169246387,0.019167987513142228,-0.006982915528809746,1.3900222778320312,2019-08-06 15:24:32:368,140.1517792170125,-166.88316363266816,0,-56.67692184448242,21.591209411621094,-34.485958099365234
-0.03648880124092102,-0.029982266947627068,9.666179656982422,0.0015583297264341264,0.015971413982071532,0.00020937558253977584,1.4000060558319092,2019-08-06 15:24:32:378,140.9354645641654,-167.14281958530546,0,-56.67692184448242,21.591209411621094,-34.485958099365234
-0.012541304342448711,-0.056324511766433716,9.668574333190918,-0.0019046251923001184,0.017036938492428433,-0.0053846282431257485,1.4100143909454346,2019-08-06 15:24:32:388,141.70569469197437,-167.3922173744993,0,-56.67692184448242,21.591209411621094,-34.485958099365234
-0.010146554559469223,-0.049140263348817825,9.687732696533203,0.0007591862786478714,0.01756970178790418,-0.004052722605179625,1.4200046062469482,2019-08-06 15:24:32:398,142.46052490045395,-167.63898637497255,0,-56.67692184448242,21.591209411621094,-34.485958099365234
-0.038883551955223083,-0.041956014931201935,9.67336368560791,-0.005367579850960038,0.017836082395344753,-0.004851865987947299,1.430211067199707,2019-08-06 15:24:32:408,143.1964865404837,-167.87816041656936,0,-56.67692184448242,21.591209411621094,-34.485958099365234
-0.03169930353760719,-0.03956126421689987,9.639837265014648,-3.9957173202045016e-05,0.014905889471714633,-0.0024544358396442778,1.44020676612854,2019-08-06 15:24:32:418,143.92042259771335,-168.11587204545103,0,-56.67692184448242,21.591209411621094,-34.485958099365234
-0.04846255108714104,-0.0635087639093399,9.635047912597656,-0.003236530830246241,0.016504176237249982,-0.006450152753482647,1.4500033855438232,2019-08-06 15:24:32:428,144.6271718476401,-168.34422114199648,0,-56.67692184448242,21.591209411621094,-34.485958099365234
-0.0149360541254282,-0.10421950370073318,9.687732696533203,-0.0013718629371216693,0.016770557884987856,0.0020740435894468653,1.4600212574005127,2019-08-06 15:24:32:438,145.3234282229184,-168.56423789196,0,-56.67692184448242,21.591209411621094,-34.485958099365234
-0.005357054993510246,-0.0898510068655014,9.58236312866211,-0.0003063383292368989,0.013307602706179285,0.005270617380591885,1.4699914455413818,2019-08-06 15:24:32:448,146.00886910545302,-168.7820370390543,0,-57.72649383544922,20.241758346557617,-35.235652923583984
-0.03409405052661896,-0.07787726074457169,9.59194278717041,-0.003236530830246241,0.011709315940643939,-0.0027208169672335025,1.4800200462341309,2019-08-06 15:24:32:458,146.6780250752224,-168.9952702756118,0,-57.72649383544922,20.241758346557617,-35.235652923583984
-0.0149360541254282,-0.05871926248073578,9.613494873046875,-0.002171006319889343,0.017836082395344753,0.00553699850818111,1.490013599395752,2019-08-06 15:24:32:468,147.33267573816727,-169.20714746923377,0,-57.72649383544922,20.241758346557617,-35.235652923583984
-0.02212030254304409,-0.07308775931596756,9.682943344116211,-0.0024373874474785677,0.01410674660909561,-0.002987198094822727,1.5000128746032715,2019-08-06 15:24:32:478,147.97548408402042,-169.4129867158328,0,-57.72649383544922,20.241758346557617,-35.235652923583984
-0.012541304342448711,-0.03716651350259781,9.647021293640137,-0.0016382440647108938,0.016770557884987856,0.003405949227392988,1.5099899768829346,2019-08-06 15:24:32:488,148.6050896084672,-169.61939443601267,0,-57.72649383544922,20.241758346557617,-35.235652923583984
-0.017330802977085114,-0.05392976477742195,9.630258560180664,-0.0005727194893354142,0.01357398435391716,0.003405949227392988,1.5200345516204834,2019-08-06 15:24:32:498,149.2232698586585,-169.8202664347123,0,-57.72649383544922,20.241758346557617,-35.235652923583984
-0.04846255108714104,-0.05153501406311989,9.642231941223145,0.0007591862786478714,0.016237795629809405,0.0028731869722145387,1.529994249343872,2019-08-06 15:24:32:508,149.82396430127622,-170.01816113229273,0,-57.72649383544922,20.241758346557617,-35.235652923583984
-0.02930455282330513,-0.041956014931201935,9.599126815795898,-0.0003063383292368989,0.016504176237249982,-0.0019216735844658289,1.5401179790496826,2019-08-06 15:24:32:518,150.41460500088354,-170.21261521878847,0,-57.72649383544922,20.241758346557617,-35.235652923583984
-0.024515053257346153,-0.06590351462364197,9.699706077575684,-0.0003063383292368989,0.017836082395344753,0.0028731869722145387,1.5499975681304932,2019-08-06 15:24:32:528,150.99352237283642,-170.4004073078342,0,-57.72649383544922,20.241758346557617,-35.235652923583984
-0.06283104419708252,-0.05871926248073578,9.663784980773926,-0.0016382440647108938,0.016237795629809405,-0.0003233867214026093,1.5599865913391113,2019-08-06 15:24:32:538,151.55709413731728,-170.5845175525505,0,-57.72649383544922,20.241758346557617,-35.235652923583984
-0.06522579491138458,-0.029982266947627068,9.663784980773926,0.0020910919816125757,0.016770557884987856,0.0010085190140713856,1.569995641708374,2019-08-06 15:24:32:548,152.10879283762557,-170.77044717338137,0,-57.72649383544922,20.241758346557617,-35.235652923583984
-0.024515053257346153,-0.06590351462364197,9.654206275939941,0.003689378747147923,0.012774840451000838,-0.0003233867214026093,1.5801563262939453,2019-08-06 15:24:32:558,152.65641883308857,-170.94932073664077,0,-57.72649383544922,20.241758346557617,-35.235652923583984
-0.08917329460382462,-0.06111401319503784,9.723653793334961,0.001824710854023351,0.01410674660909561,0.0028731869722145387,1.5899994373321533,2019-08-06 15:24:32:568,153.1849851856921,-171.1241407354372,0,-57.72649383544922,20.241758346557617,-35.235652923583984
-0.07001529633998871,-0.034771766513586044,9.579968452453613,0.0015583297264341264,0.018901606905701654,0.004737855125413436,1.5999712944030762,2019-08-06 15:24:32:578,153.70232733757595,-171.29837122383944,0,-57.72649383544922,20.241758346557617,-35.235652923583984
-0.024515053257346153,-0.05392976477742195,9.615889549255371,0.0015583297264341264,0.015438651726893083,-0.0024544358396442778,1.6100122928619385,2019-08-06 15:24:32:588,154.21665504106198,-171.46685569996242,0,-57.72649383544922,20.241758346557617,-35.235652923583984
-0.053252048790454865,-0.034771766513586044,9.589548110961914,0.0002264239747054862,0.017303320140166306,-0.002987198094822727,1.6201422214508057,2019-08-06 15:24:32:598,154.71611655583973,-171.63349229509183,0,-57.72649383544922,20.241758346557617,-35.235652923583984
-0.02930455282330513,-0.0706930086016655,9.649415969848633,0.001824710854023351,0.013307602706179285,-0.003519960350001176,1.6300065517425537,2019-08-06 15:24:32:608,155.21094335000998,-171.79343812934317,0,-57.72649383544922,20.241758346557617,-35.235652923583984
-0.09156804531812668,-0.029982266947627068,9.647021293640137,-0.0061667232337277115,0.015172271119452508,-0.001655292456876604,1.6401710510253906,2019-08-06 15:24:32:618,155.68718860478174,-171.95048838643953,0,-57.72649383544922,20.241758346557617,-35.235652923583984
-0.06283104419708252,-0.015613768249750137,9.675758361816406,-0.0005727194893354142,0.01756970178790418,-0.002987198094822727,1.6500041484832764,2019-08-06 15:24:32:628,156.1563030476629,-172.1093132427436,0,-57.72649383544922,20.241758346557617,-35.235652923583984
-0.06762054562568665,-0.02519276738166809,9.697311401367188,0.001824710854023351,0.01410674660909561,-0.0013889113292873795,1.659986972808838,2019-08-06 15:24:32:638,156.61727919149433,-172.2651728089356,0,-57.72649383544922,20.241758346557617,-35.235652923583984
-0.03169930353760719,-0.020403267815709114,9.637442588806152,0.0004928051185493561,0.011176553685465489,-0.003519960350001176,1.6699886322021484,2019-08-06 15:24:32:648,157.07488783516504,-172.41772011305466,0,-57.72649383544922,20.241758346557617,-35.235652923583984
-0.02212030254304409,-0.07308775931596756,9.62067985534668,-0.0005727194893354142,0.013840364961357736,-0.0019216735844658289,1.6800274848937988,2019-08-06 15:24:32:658,157.52295380225323,-172.56033759185897,0,-57.72649383544922,20.241758346557617,-35.235652923583984
-0.046067800372838974,-0.02519276738166809,9.678153038024902,-0.0011054818095324445,0.014639508864274061,-0.0061837716258934215,1.6899783611297607,2019-08-06 15:24:32:668,157.95886054957492,-172.70553028784013,0,-57.72649383544922,20.241758346557617,-35.235652923583984
-0.07001529633998871,-0.003640019567683339,9.66139030456543,0.0007591862786478714,0.011709315940643939,-0.00431910373276885,1.7000055313110352,2019-08-06 15:24:32:678,158.38478649974013,-172.8514153879175,0,-57.72649383544922,20.241758346557617,-35.235652923583984
-0.0149360541254282,-0.034771766513586044,9.613494873046875,0.0004928051185493561,0.01570503337463096,-0.005118247115536523,1.7100012302398682,2019-08-06 15:24:32:688,158.80649585168973,-172.99051894106958,0,-57.72649383544922,20.241758346557617,-35.235652923583984
-0.03409405052661896,-0.015613768249750137,9.62067985534668,-0.002171006319889343,0.011975696548084513,-0.0003233867214026093,1.7199835777282715,2019-08-06 15:24:32:698,159.21959255483912,-173.12763194854372,0,-55.17753219604492,20.39169692993164,-34.485958099365234
-0.0029623054433614016,-0.09224575757980347,9.637442588806152,-0.002970149702657017,0.015172271119452508,-0.004585484860358075,1.7299940586090088,2019-08-06 15:24:32:708,159.62632033989223,-173.25244191445685,0,-55.17753219604492,20.39169692993164,-34.485958099365234
-0.024515053257346153,-0.008429518900811672,9.651811599731445,-0.004035674213013915,0.015438651726893083,-0.003786341477590401,1.7399888038635254,2019-08-06 15:24:32:718,160.02221915212817,-173.38412744323165,0,-55.17753219604492,20.39169692993164,-34.485958099365234
-0.04846255108714104,-0.08027201145887375,9.656600952148438,-0.0013718629371216693,0.014639508864274061,0.0026068058446253144,1.749999761581421,2019-08-06 15:24:32:728,160.40779486164942,-173.50614836727286,0,-55.17753219604492,20.39169692993164,-34.485958099365234
-0.02930455282330513,-0.056324511766433716,9.704495429992676,-0.0024373874474785677,0.011709315940643939,0.004471473997824211,1.7601003646850586,2019-08-06 15:24:32:738,160.7895377577112,-173.62799226718397,0,-55.17753219604492,20.39169692993164,-34.485958099365234
-0.02930455282330513,-0.03956126421689987,9.623074531555176,0.003689378747147923,0.013840364961357736,-0.0003233867214026093,1.7699742317199707,2019-08-06 15:24:32:748,161.1625841037744,-173.7527669452296,0,-55.17753219604492,20.39169692993164,-34.485958099365234
-0.04846255108714104,-0.027587516233325005,9.608705520629883,-0.0011054818095324445,0.017036938492428433,0.005004236253002661,1.7799997329711914,2019-08-06 15:24:32:758,161.5239623079929,-173.8737992722059,0,-55.17753219604492,20.39169692993164,-34.485958099365234
-0.0963575467467308,-0.015613768249750137,9.656600952148438,-3.9957173202045016e-05,0.015172271119452508,0.004471473997824211,1.789984941482544,2019-08-06 15:24:32:768,161.8735424145626,-173.99444805353932,0,-55.17753219604492,20.39169692993164,-34.485958099365234
-0.07001529633998871,-0.05871926248073578,9.635047912597656,-0.0013718629371216693,0.014905889471714633,-0.004052722605179625,1.7999954223632812,2019-08-06 15:24:32:778,162.2193662443197,-174.1068044726484,0,-55.17753219604492,20.39169692993164,-34.485958099365234
-0.11791028827428818,-0.044350765645504,9.611100196838379,-0.0011054818095324445,0.012242078195822388,-0.000856149009090349,1.8099870681762695,2019-08-06 15:24:32:788,162.5540532082268,-174.21876034428252,0,-55.17753219604492,20.39169692993164,-34.485958099365234
-0.08438379317522049,-0.01800851710140705,9.642231941223145,-0.0008391006169246387,0.017036938492428433,0.004737855125413436,1.820002555847168,2019-08-06 15:24:32:798,162.88336290988815,-174.3317730629914,0,-55.17753219604492,20.39169692993164,-34.485958099365234
-0.07001529633998871,-0.01800851710140705,9.666179656982422,0.0012919485988449018,0.01810246300278533,-0.00431910373276885,1.8299846649169922,2019-08-06 15:24:32:808,163.20724923286417,-174.44372684266784,0,-55.17753219604492,20.39169692993164,-34.485958099365234
-0.08198904246091843,-0.022798016667366028,9.642231941223145,-0.0008391006169246387,0.014905889471714633,-0.004052722605179625,1.8400001525878906,2019-08-06 15:24:32:818,163.5249780275085,-174.55167103357513,0,-55.17753219604492,20.39169692993164,-34.485958099365234
-0.04367304965853691,-0.044350765645504,9.613494873046875,-0.0061667232337277115,0.013307602706179285,-0.004052722605179625,1.849991798400879,2019-08-06 15:24:32:828,163.84180677590714,-174.65189138513313,0,-55.17753219604492,20.39169692993164,-34.485958099365234
-0.0508572980761528,-0.07787726074457169,9.637442588806152,-0.002970149702657017,0.011975696548084513,-0.0005897678815011245,1.8599894046783447,2019-08-06 15:24:32:838,164.1522009111933,-174.7479266256195,0,-55.17753219604492,20.39169692993164,-34.485958099365234
-0.02212030254304409,-0.07787726074457169,9.675758361816406,-0.003236530830246241,0.017836082395344753,-0.008048440039166644,1.8699958324432373,2019-08-06 15:24:32:848,164.45651578124549,-174.8419266875167,0,-55.17753219604492,20.39169692993164,-34.485958099365234
0.023379940539598465,-0.022798016667366028,9.63265323638916,-0.0016382440647108938,0.01410674660909561,0.0018076624618576407,1.879988431930542,2019-08-06 15:24:32:858,157.5622517175455,-174.94145687982393,0,-55.17753219604492,20.39169692993164,-34.485958099365234
0.037748441100120544,-0.041956014931201935,9.663784980773926,0.0007591862786478714,0.013041222098738713,-0.0005897678815011245,1.889995813369751,2019-08-06 15:24:32:868,150.8081547743317,-175.03807929556262,0,-55.17753219604492,20.39169692993164,-34.485958099365234
0.013800942339003086,-0.0706930086016655,9.6901273727417,-0.0011054818095324445,0.013307602706179285,-0.00431910373276885,1.8999850749969482,2019-08-06 15:24:32:878,144.18615954493575,-175.1283379263791,0,-55.17753219604492,20.39169692993164,-34.485958099365234
0.0664854347705841,-0.08745625615119934,9.635047912597656,0.0002264239747054862,0.018901606905701654,0.003938711482571438,1.9099931716918945,2019-08-06 15:24:32:888,137.69972165500084,-175.2154973450758,0,-55.17753219604492,20.39169692993164,-34.485958099365234
0.03295893967151642,-0.09703525900840759,9.637442588806152,-0.003236530830246241,0.015971413982071532,-0.001655292456876604,1.919994831085205,2019-08-06 15:24:32:898,131.34067669013712,-175.29783244823068,0,-55.17753219604492,20.39169692993164,-34.485958099365234
0.00422194367274642,-0.08266676217317581,9.697311401367188,-0.003502911957835466,0.011709315940643939,-0.0021880547120550534,1.9299890995025635,2019-08-06 15:24:32:908,125.10779105996606,-175.38014168545718,0,-55.17753219604492,20.39169692993164,-34.485958099365234
0.00422194367274642,-0.08745625615119934,9.649415969848633,0.0020910919816125757,0.01357398435391716,0.0010085190140713856,1.9399974346160889,2019-08-06 15:24:32:918,118.99850848872559,-175.4633283996617,0,-55.17753219604492,20.39169692993164,-34.485958099365234
0.00422194367274642,-0.05392976477742195,9.635047912597656,-0.0013718629371216693,0.012508459843560263,0.0007421378864821609,1.9500231742858887,2019-08-06 15:24:32:928,113.01199888176055,-175.54687564156467,0,-55.17753219604492,20.39169692993164,-34.485958099365234
-0.053252048790454865,-0.05392976477742195,9.639837265014648,0.0007591862786478714,0.015971413982071532,0.001541281334268416,1.9599862098693848,2019-08-06 15:24:32:938,114.33649396425854,-175.62995211341246,0,-55.17753219604492,20.39169692993164,-34.485958099365234
-0.0508572980761528,-0.03716651350259781,9.611100196838379,0.0031566164919694735,0.010377409782549165,0.006868904146127233,1.969989538192749,2019-08-06 15:24:32:948,115.63787166912628,-175.71469481704904,0,-56.07716751098633,20.991453170776367,-34.78583526611328
-0.07959429919719696,-0.03716651350259781,9.668574333190918,-0.0008391006169246387,0.010910172037727614,0.001541281334268416,1.9800019264221191,2019-08-06 15:24:32:958,116.90954732826678,-175.79552424445382,0,-56.07716751098633,20.991453170776367,-34.78583526611328
-0.060436297208070755,-0.044350765645504,9.64462661743164,-0.0003063383292368989,0.012242078195822388,0.0026068058446253144,1.9899945259094238,2019-08-06 15:24:32:968,118.15730698101437,-175.87417242852916,0,-56.07716751098633,20.991453170776367,-34.78583526611328
-0.08917329460382462,-0.027587516233325005,9.627863883972168,-0.0003063383292368989,0.015172271119452508,-5.7005565367755386e-05,2.000026226043701,2019-08-06 15:24:32:978,119.37500145677787,-175.9532329482193,0,-56.07716751098633,20.991453170776367,-34.78583526611328
-0.09875229001045227,-0.01082426868379116,9.654206275939941,0.0020910919816125757,0.013041222098738713,0.0012749002066791914,2.0099856853485107,2019-08-06 15:24:32:988,120.56848739339218,-176.03405287772037,0,-56.07716751098633,20.991453170776367,-34.78583526611328
-0.0963575467467308,-0.013219018466770649,9.654206275939941,0.0020910919816125757,0.0183688436102259,-0.003786341477590401,2.0199902057647705,2019-08-06 15:24:32:998,121.73536202761095,-176.11297745270195,0,-56.07716751098633,20.991453170776367,-34.78583526611328
-0.08917329460382462,-0.05871926248073578,9.608705520629883,0.0007591862786478714,0.017036938492428433,0.003938711482571438,2.0300002098083496,2019-08-06 15:24:33:008,122.88044467026886,-176.18414195394124,0,-56.07716751098633,20.991453170776367,-34.78583526611328
-0.09396279603242874,-0.02519276738166809,9.606310844421387,-3.9957173202045016e-05,0.01863522629826108,0.0007421378864821609,2.039985418319702,2019-08-06 15:24:33:018,124.00117934312172,-176.25743152949573,0,-56.07716751098633,20.991453170776367,-34.78583526611328
-0.0771995484828949,-0.04674551263451576,9.651811599731445,0.0004928051185493561,0.02289732433968867,-0.0013889113292873795,2.049990177154541,2019-08-06 15:24:33:028,125.09912746645084,-176.3270099017734,0,-56.07716751098633,20.991453170776367,-34.78583526611328
-0.053252048790454865,-0.049140263348817825,9.685338020324707,-0.0008391006169246387,0.01810246300278533,-0.005917390498304197,2.0599939823150635,2019-08-06 15:24:33:038,126.18067611682295,-176.3941844165008,0,-56.07716751098633,20.991453170776367,-34.78583526611328
-0.04846255108714104,-0.05153501406311989,9.685338020324707,-0.0013718629371216693,0.014905889471714633,0.001541281334268416,2.069986581802368,2019-08-06 15:24:33:048,127.24296537881915,-176.45943371896234,0,-56.07716751098633,20.991453170776367,-34.78583526611328
-0.060436297208070755,-0.03956126421689987,9.647021293640137,-0.0003063383292368989,0.013307602706179285,-0.0003233867214026093,2.079995632171631,2019-08-06 15:24:33:058,128.28344831271463,-176.5253736458515,0,-56.07716751098633,20.991453170776367,-34.78583526611328
-0.02212030254304409,-0.03956126421689987,9.699706077575684,-0.0013718629371216693,0.013840364961357736,-0.001122530201698155,2.089994430541992,2019-08-06 15:24:33:068,129.3073956637114,-176.58942225583166,0,-56.07716751098633,20.991453170776367,-34.78583526611328
-0.02212030254304409,-0.049140263348817825,9.575179100036621,-0.0008391006169246387,0.01863522629826108,0.00047575672638364575,2.0999927520751953,2019-08-06 15:24:33:078,130.30813859608742,-176.65128189560133,0,-56.07716751098633,20.991453170776367,-34.78583526611328
-0.0149360541254282,-0.034771766513586044,9.666179656982422,-0.0011054818095324445,0.01756970178790418,-0.001655292456876604,2.109987258911133,2019-08-06 15:24:33:088,131.2903452273832,-176.71351373299478,0,-56.07716751098633,20.991453170776367,-34.78583526611328
-0.017330802977085114,-0.049140263348817825,9.60391616821289,-0.0011054818095324445,0.016504176237249982,0.00047575672638364575,2.1199862957000732,2019-08-06 15:24:33:098,132.2532042765292,-176.77275954773535,0,-56.07716751098633,20.991453170776367,-34.78583526611328
-0.017330802977085114,-0.0635087639093399,9.627863883972168,-3.9957173202045016e-05,0.013840364961357736,0.004471473997824211,2.1299924850463867,2019-08-06 15:24:33:108,133.19830131199282,-176.82972315584902,0,-56.07716751098633,20.991453170776367,-34.78583526611328
-0.02212030254304409,-0.05153501406311989,9.663784980773926,-3.9957173202045016e-05,0.015438651726893083,0.0007421378864821609,2.139986515045166,2019-08-06 15:24:33:118,134.12304869488494,-176.88699539168786,0,-56.07716751098633,20.991453170776367,-34.78583526611328
-0.0005675556603819132,-0.07548251003026962,9.658995628356934,0.001824710854023351,0.0194343681205828,-0.001122530201698155,2.1499991416931152,2019-08-06 15:24:33:128,135.02959423788758,-176.94132650359163,0,-56.07716751098633,20.991453170776367,-34.78583526611328
-0.0149360541254282,-0.03956126421689987,9.642231941223145,0.001824710854023351,0.014905889471714633,0.0023404247170360896,2.159982681274414,2019-08-06 15:24:33:138,135.9188714432699,-176.9988212910785,0,-56.07716751098633,20.991453170776367,-34.78583526611328
0.0018271940061822534,-0.05871926248073578,9.63265323638916,0.0007591862786478714,0.012242078195822388,0.0023404247170360896,2.169999122619629,2019-08-06 15:24:33:148,129.59382616839534,-177.05228659882064,0,-56.07716751098633,20.991453170776367,-34.78583526611328
-0.03409405052661896,-0.06590351462364197,9.678153038024902,0.0015583297264341264,0.014373127216536186,0.005270617380591885,2.179988384246826,2019-08-06 15:24:33:158,130.58985102271052,-177.10431192007997,0,-56.07716751098633,20.991453170776367,-34.78583526611328
-0.012541304342448711,-0.03956126421689987,9.656600952148438,-0.002171006319889343,0.017036938492428433,0.0012749002066791914,2.189985513687134,2019-08-06 15:24:33:168,131.5670022979424,-177.1563124417471,0,-56.07716751098633,20.991453170776367,-34.78583526611328
0.0018271940061822534,-0.03956126421689987,9.630258560180664,-0.0013718629371216693,0.01756970178790418,0.0007421378864821609,2.199995279312134,2019-08-06 15:24:33:178,125.32600467411663,-177.2077077274473,0,-56.07716751098633,20.991453170776367,-34.78583526611328
-0.0005675556603819132,-0.06111401319503784,9.666179656982422,0.0015583297264341264,0.015971413982071532,-0.0019216735844658289,2.209991693496704,2019-08-06 15:24:33:188,126.41045258601417,-177.25718335270537,0,-56.07716751098633,20.991453170776367,-34.78583526611328
-0.019725553691387177,-0.029982266947627068,9.647021293640137,0.0015583297264341264,0.015438651726893083,0.00047575672638364575,2.21999192237854,2019-08-06 15:24:33:198,127.4712314692444,-177.3093532917187,0,-56.82686233520508,20.841514587402344,-34.93577575683594
0.011406192556023598,-0.049140263348817825,9.60391616821289,-0.0005727194893354142,0.015438651726893083,-0.0053846282431257485,2.2299869060516357,2019-08-06 15:24:33:208,121.3145033645916,-177.35698156212922,0,-56.82686233520508,20.841514587402344,-34.93577575683594
0.030564190819859505,-0.01082426868379116,9.663784980773926,-0.0024373874474785677,0.012242078195822388,-0.001122530201698155,2.2399916648864746,2019-08-06 15:24:33:218,115.28496035482644,-177.40718916657667,0,-56.82686233520508,20.841514587402344,-34.93577575683594
-0.010146554559469223,-0.044350765645504,9.651811599731445,0.0002264239747054862,0.014373127216536186,0.0012749002066791914,2.249987840652466,2019-08-06 15:24:33:228,116.56998908897849,-177.45390694422105,0,-56.82686233520508,20.841514587402344,-34.93577575683594
-0.046067800372838974,-0.05153501406311989,9.651811599731445,-0.0024373874474785677,0.014373127216536186,-0.004585484860358075,2.2600340843200684,2019-08-06 15:24:33:238,117.82501211652318,-177.49733542760438,0,-56.82686233520508,20.841514587402344,-34.93577575683594
-0.017330802977085114,-0.020403267815709114,9.639837265014648,-0.006965867136644035,0.014639508864274061,-0.0027208169672335025,2.2699849605560303,2019-08-06 15:24:33:248,119.0582720290249,-177.54107121566236,0,-56.82686233520508,20.841514587402344,-34.93577575683594
-0.017330802977085114,-0.08266676217317581,9.678153038024902,0.0010255674062370958,0.012242078195822388,0.0031395680998037635,2.279989242553711,2019-08-06 15:24:33:258,120.26817773003002,-177.5810381957936,0,-56.82686233520508,20.841514587402344,-34.93577575683594
-0.053252048790454865,-0.03237701579928398,9.627863883972168,0.0004928051185493561,0.017036938492428433,-0.003786341477590401,2.289994239807129,2019-08-06 15:24:33:268,121.44690514295831,-177.62584075734952,0,-56.82686233520508,20.841514587402344,-34.93577575683594
-0.017330802977085114,-0.07787726074457169,9.623074531555176,0.0002264239747054862,0.01570503337463096,-0.003519960350001176,2.2999932765960693,2019-08-06 15:24:33:278,122.60708578506171,-177.66417764595596,0,-56.82686233520508,20.841514587402344,-34.93577575683594
-0.02930455282330513,-0.044350765645504,9.630258560180664,0.0002264239747054862,0.01810246300278533,-0.002987198094822727,2.309998035430908,2019-08-06 15:24:33:288,123.7412877520678,-177.70574397876698,0,-56.82686233520508,20.841514587402344,-34.93577575683594
-0.05564679950475693,-0.06590351462364197,9.649415969848633,-0.0003063383292368989,0.016770557884987856,-0.004851865987947299,2.3199830055236816,2019-08-06 15:24:33:298,124.8504512469381,-177.74363110445705,0,-56.82686233520508,20.841514587402344,-34.93577575683594
-0.038883551955223083,-0.01800851710140705,9.711679458618164,0.0026238542367910244,0.014639508864274061,-0.001122530201698155,2.3299875259399414,2019-08-06 15:24:33:308,125.9406304578475,-177.7881075524115,0,-56.82686233520508,20.841514587402344,-34.93577575683594
-0.03648880124092102,-0.05392976477742195,9.663784980773926,-0.0024373874474785677,0.010910172037727614,0.0018076624618576407,2.3399930000305176,2019-08-06 15:24:33:318,127.01136168753193,-177.82458122679958,0,-56.82686233520508,20.841514587402344,-34.93577575683594
-0.017330802977085114,-0.05153501406311989,9.594337463378906,-0.0016382440647108938,0.013041222098738713,0.00020937558253977584,2.349989652633667,2019-08-06 15:24:33:328,128.06174434557846,-177.86101492777854,0,-56.82686233520508,20.841514587402344,-34.93577575683594
-0.010146554559469223,-0.044350765645504,9.606310844421387,-0.003502911957835466,0.013307602706179285,0.0028731869722145387,2.3600006103515625,2019-08-06 15:24:33:338,129.09181871041017,-177.8965351264455,0,-56.82686233520508,20.841514587402344,-34.93577575683594
-0.046067800372838974,-0.022798016667366028,9.66139030456543,0.0023574731092018,0.016237795629809405,-0.004052722605179625,2.37004017829895,2019-08-06 15:24:33:348,130.09536480407232,-177.9372293635115,0,-56.82686233520508,20.841514587402344,-34.93577575683594
-0.04127829894423485,-0.056324511766433716,9.651811599731445,-0.0019046251923001184,0.019167987513142228,0.001541281334268416,2.3799805641174316,2019-08-06 15:24:33:358,131.07785811625632,-177.97073463059314,0,-56.82686233520508,20.841514587402344,-34.93577575683594
-0.03409405052661896,-0.05153501406311989,9.630258560180664,-0.003502911957835466,0.015971413982071532,-0.0061837716258934215,2.389993190765381,2019-08-06 15:24:33:368,132.0432648297218,-178.00321842185542,0,-56.82686233520508,20.841514587402344,-34.93577575683594
-0.0508572980761528,-0.041956014931201935,9.642231941223145,-0.004035674213013915,0.011176553685465489,-0.001655292456876604,2.3999907970428467,2019-08-06 15:24:33:378,132.99008141767595,-178.03590240642856,0,-56.82686233520508,20.841514587402344,-34.93577575683594
-0.02930455282330513,-0.049140263348817825,9.556020736694336,0.0010255674062370958,0.015971413982071532,-0.000856149009090349,2.4099972248077393,2019-08-06 15:24:33:388,133.91779203684771,-178.06986795282833,0,-56.82686233520508,20.841514587402344,-34.93577575683594
-0.017330802977085114,-0.027587516233325005,9.596732139587402,0.00608680915552527,0.014639508864274061,-0.0027208169672335025,2.419975996017456,2019-08-06 15:24:33:398,134.8291641676013,-178.10858694395185,0,-56.82686233520508,20.841514587402344,-34.93577575683594
-0.04127829894423485,-0.056324511766433716,9.627863883972168,0.001824710854023351,0.015438651726893083,-0.0003233867214026093,2.429994821548462,2019-08-06 15:24:33:408,135.71898283883178,-178.14073799733103,0,-56.82686233520508,20.841514587402344,-34.93577575683594
-0.05804154649376869,-0.041956014931201935,9.67336368560791,-0.004834817595781589,0.01570503337463096,-0.004851865987947299,2.439987897872925,2019-08-06 15:24:33:418,136.58891536007172,-178.17024025639728,0,-56.82686233520508,20.841514587402344,-34.93577575683594
-0.06283104419708252,-0.07308775931596756,9.692522048950195,0.0010255674062370958,0.019700750808617978,0.0010085190140713856,2.450000047683716,2019-08-06 15:24:33:428,137.4386334605836,-178.19877123957156,0,-56.82686233520508,20.841514587402344,-34.93577575683594
-0.06522579491138458,-0.05871926248073578,9.675758361816406,0.0002264239747054862,0.017303320140166306,0.0010085190140713856,2.459986686706543,2019-08-06 15:24:33:438,138.27243330335034,-178.2279686505502,0,-56.82686233520508,20.841514587402344,-34.93577575683594
-0.03409405052661896,-0.020403267815709114,9.627863883972168,-0.0016382440647108938,0.013307602706179285,0.00020937558253977584,2.46999192237854,2019-08-06 15:24:33:448,139.0954506417358,-178.26006051548788,0,-56.07716751098633,21.291330337524414,-35.08571243286133
-0.04846255108714104,-0.020403267815709114,9.642231941223145,-0.0003063383292368989,0.01756970178790418,0.001541281334268416,2.479996919631958,2019-08-06 15:24:33:458,139.89791192962306,-178.29226242064559,0,-56.07716751098633,21.291330337524414,-35.08571243286133
-0.012541304342448711,-0.03956126421689987,9.716469764709473,0.0002264239747054862,0.01756970178790418,0.003672330354982212,2.489988327026367,2019-08-06 15:24:33:468,140.68861774158412,-178.32187855264797,0,-56.07716751098633,21.291330337524414,-35.08571243286133
-0.04367304965853691,-0.056324511766433716,9.623074531555176,0.0002264239747054862,0.013840364961357736,0.006069760763359559,2.4999992847442627,2019-08-06 15:24:33:478,141.46186497455685,-178.348861212122,0,-56.07716751098633,21.291330337524414,-35.08571243286133
-0.03409405052661896,-0.03956126421689987,9.67336368560791,0.0015583297264341264,0.017036938492428433,0.00047575672638364575,2.509986162185669,2019-08-06 15:24:33:488,142.219035214642,-178.3780714019321,0,-56.07716751098633,21.291330337524414,-35.08571243286133
-0.019725553691387177,-0.006034769117832184,9.6901273727417,-0.002171006319889343,0.01410674660909561,-0.0024544358396442778,2.5199882984161377,2019-08-06 15:24:33:498,142.9643992376067,-178.40857704889436,0,-56.07716751098633,21.291330337524414,-35.08571243286133
-0.07959429919719696,-0.03237701579928398,9.608705520629883,-0.0016382440647108938,0.01410674660909561,-0.0013889113292873795,2.529991388320923,2019-08-06 15:24:33:508,143.68769584164508,-178.43562414635588,0,-56.07716751098633,21.291330337524414,-35.08571243286133
-0.010146554559469223,-0.027587516233325005,9.663784980773926,-0.0016382440647108938,0.015971413982071532,-0.001655292456876604,2.539990186691284,2019-08-06 15:24:33:518,144.40377191404357,-178.46272062913087,0,-56.07716751098633,21.291330337524414,-35.08571243286133
-0.06283104419708252,-0.05871926248073578,9.63265323638916,-0.0019046251923001184,0.01410674660909561,-5.7005565367755386e-05,2.5499985218048096,2019-08-06 15:24:33:528,145.10029458065145,-178.4854106313367,0,-56.07716751098633,21.291330337524414,-35.08571243286133
0.00901144277304411,-0.034771766513586044,9.685338020324707,0.0002264239747054862,0.015971413982071532,0.0026068058446253144,2.560004711151123,2019-08-06 15:24:33:538,138.59038139498688,-178.5117156488615,0,-56.07716751098633,21.291330337524414,-35.08571243286133
-0.0508572980761528,-0.03956126421689987,9.666179656982422,-0.004035674213013915,0.014373127216536186,-0.001122530201698155,2.5699896812438965,2019-08-06 15:24:33:548,139.4044863811878,-178.53452879539458,0,-56.07716751098633,21.291330337524414,-35.08571243286133
-0.04846255108714104,-0.04674551263451576,9.656600952148438,-0.0003063383292368989,0.015438651726893083,0.0020740435894468653,2.579989194869995,2019-08-06 15:24:33:558,140.20197745743948,-178.55811913357226,0,-56.07716751098633,21.291330337524414,-35.08571243286133
-0.06283104419708252,-0.03237701579928398,9.6901273727417,-0.0008391006169246387,0.01410674660909561,0.00047575672638364575,2.589998483657837,2019-08-06 15:24:33:568,140.98257958858284,-178.58265639764426,0,-56.07716751098633,21.291330337524414,-35.08571243286133
-0.06283104419708252,-0.05153501406311989,9.66139030456543,-0.0008391006169246387,0.015172271119452508,-0.0005897678815011245,2.599985122680664,2019-08-06 15:24:33:578,141.74696802713675,-178.60442035218819,0,-56.07716751098633,21.291330337524414,-35.08571243286133
-0.0029623054433614016,-0.049140263348817825,9.6901273727417,0.001824710854023351,0.016237795629809405,0.0026068058446253144,2.6099884510040283,2019-08-06 15:24:33:588,142.50255782149767,-178.6275457782176,0,-56.07716751098633,21.291330337524414,-35.08571243286133
-0.05804154649376869,-0.029982266947627068,9.625469207763672,0.0010255674062370958,0.011442934292906064,0.0020740435894468653,2.619985818862915,2019-08-06 15:24:33:598,143.23917338088145,-178.65200117760392,0,-56.07716751098633,21.291330337524414,-35.08571243286133
-0.053252048790454865,-0.022798016667366028,9.709284782409668,0.0012919485988449018,0.011709315940643939,-0.0032535792224119516,2.629990816116333,2019-08-06 15:24:33:608,143.96152697743548,-178.67699626638372,0,-56.07716751098633,21.291330337524414,-35.08571243286133
-0.02212030254304409,-0.07308775931596756,9.668574333190918,-0.0011054818095324445,0.017036938492428433,0.00020937558253977584,2.640004873275757,2019-08-06 15:24:33:618,144.6700950878233,-178.69417257474262,0,-56.07716751098633,21.291330337524414,-35.08571243286133
-0.0149360541254282,-0.05392976477742195,9.6901273727417,0.0002264239747054862,0.01863522629826108,-0.0024544358396442778,2.64998459815979,2019-08-06 15:24:33:628,145.3644844705942,-178.7140385504365,0,-56.07716751098633,21.291330337524414,-35.08571243286133
-0.03169930353760719,-0.041956014931201935,9.627863883972168,-0.0019046251923001184,0.01570503337463096,-5.7005565367755386e-05,2.659991979598999,2019-08-06 15:24:33:638,146.04459705581718,-178.7336939407725,0,-56.07716751098633,21.291330337524414,-35.08571243286133
-0.053252048790454865,-0.06590351462364197,9.608705520629883,-0.005367579850960038,0.015172271119452508,-0.0005897678815011245,2.6699917316436768,2019-08-06 15:24:33:648,146.7088354452808,-178.74814684577032,0,-56.07716751098633,21.291330337524414,-35.08571243286133
-0.0508572980761528,-0.0635087639093399,9.666179656982422,-0.003236530830246241,0.017836082395344753,-0.001122530201698155,2.6799910068511963,2019-08-06 15:24:33:658,147.3586155018566,-178.76383794304058,0,-56.07716751098633,21.291330337524414,-35.08571243286133
-0.02930455282330513,-0.0635087639093399,9.654206275939941,-0.004568436468192365,0.016237795629809405,-0.0003233867214026093,2.690001964569092,2019-08-06 15:24:33:668,147.99883737868706,-178.77845507548437,0,-56.07716751098633,21.291330337524414,-35.08571243286133
-0.012541304342448711,-0.027587516233325005,9.714075088500977,-0.0016382440647108938,0.01863522629826108,-0.0013889113292873795,2.7000038623809814,2019-08-06 15:24:33:678,148.62691556376916,-178.79871158997187,0,-56.07716751098633,21.291330337524414,-35.08571243286133
0.0018271940061822534,-0.05392976477742195,9.666179656982422,-3.9957173202045016e-05,0.013041222098738713,-0.001655292456876604,2.709988832473755,2019-08-06 15:24:33:688,142.04728224182912,-178.81632170455313,0,-56.07716751098633,21.291330337524414,-35.08571243286133
-0.019725553691387177,-0.03956126421689987,9.666179656982422,-0.003236530830246241,0.012774840451000838,0.0023404247170360896,2.7199902534484863,2019-08-06 15:24:33:698,142.79682408146905,-178.8334877838441,0,-55.77729034423828,18.89230728149414,-34.78583526611328
-0.03409405052661896,-0.027587516233325005,9.594337463378906,-0.003502911957835466,0.01756970178790418,0.0007421378864821609,2.7300000190734863,2019-08-06 15:24:33:708,143.5269405397806,-178.85155427546212,0,-55.77729034423828,18.89230728149414,-34.78583526611328
-0.03169930353760719,-0.03956126421689987,9.649415969848633,0.0034229976195586987,0.015438651726893083,0.003672330354982212,2.739988327026367,2019-08-06 15:24:33:718,144.24397864801838,-178.87174488292098,0,-55.77729034423828,18.89230728149414,-34.78583526611328
-0.024515053257346153,-0.05392976477742195,9.651811599731445,-0.0011054818095324445,0.013307602706179285,0.0031395680998037635,2.7499852180480957,2019-08-06 15:24:33:728,144.9487186430838,-178.88728668322992,0,-55.77729034423828,18.89230728149414,-34.78583526611328
-0.02930455282330513,-0.05392976477742195,9.611100196838379,-0.0016382440647108938,0.015971413982071532,-5.7005565367755386e-05,2.759990692138672,2019-08-06 15:24:33:738,145.63727751131165,-178.90219068497456,0,-55.77729034423828,18.89230728149414,-34.78583526611328
-0.026909802109003067,-0.041956014931201935,9.666179656982422,0.0012919485988449018,0.014905889471714633,-0.0021880547120550534,2.769989490509033,2019-08-06 15:24:33:748,146.31297320921382,-178.9198984005909,0,-55.77729034423828,18.89230728149414,-34.78583526611328
-0.05804154649376869,-0.05392976477742195,9.666179656982422,-0.004834817595781589,0.01357398435391716,-0.0005897678815011245,2.7800309658050537,2019-08-06 15:24:33:758,146.9721796772054,-178.93238117815724,0,-55.77729034423828,18.89230728149414,-34.78583526611328
-0.03648880124092102,-0.0635087639093399,9.62067985534668,0.0010255674062370958,0.01810246300278533,-0.0003233867214026093,2.789982795715332,2019-08-06 15:24:33:768,147.61827439117596,-178.94674224008764,0,-55.77729034423828,18.89230728149414,-34.78583526611328
-0.012541304342448711,-0.08745625615119934,9.58236312866211,-3.9957173202045016e-05,0.01410674660909561,0.003672330354982212,2.799988269805908,2019-08-06 15:24:33:778,148.2564838859406,-178.95732670173032,0,-55.77729034423828,18.89230728149414,-34.78583526611328
-0.019725553691387177,-0.0706930086016655,9.639837265014648,-0.0003063383292368989,0.020233512023499125,0.0010085190140713856,2.809993028640747,2019-08-06 15:24:33:788,148.8776428813339,-178.96960474366855,0,-55.77729034423828,18.89230728149414,-34.78583526611328
-0.010146554559469223,-0.02519276738166809,9.625469207763672,-0.0005727194893354142,0.015172271119452508,0.0007421378864821609,2.8199846744537354,2019-08-06 15:24:33:798,149.49036998068425,-178.98689213501683,0,-55.77729034423828,18.89230728149414,-34.78583526611328
-0.03169930353760719,-0.03716651350259781,9.625469207763672,-0.0011054818095324445,0.014905889471714633,-0.0005897678815011245,2.8300087451934814,2019-08-06 15:24:33:808,150.08839899817391,-179.00210740676582,0,-55.77729034423828,18.89230728149414,-34.78583526611328
-0.019725553691387177,-0.03237701579928398,9.656600952148438,0.0026238542367910244,0.01357398435391716,-0.001655292456876604,2.8399996757507324,2019-08-06 15:24:33:818,150.67667539669907,-179.01969515841762,0,-55.77729034423828,18.89230728149414,-34.78583526611328
-0.019725553691387177,-0.056324511766433716,9.579968452453613,-0.002703768575067792,0.014639508864274061,-0.000856149009090349,2.8499929904937744,2019-08-06 15:24:33:828,151.25256783523258,-179.03104688389922,0,-55.77729034423828,18.89230728149414,-34.78583526611328
-0.019725553691387177,-0.03716651350259781,9.704495429992676,-0.0003063383292368989,0.01756970178790418,-0.0053846282431257485,2.8599977493286133,2019-08-06 15:24:33:838,151.81531721212076,-179.04586522176544,0,-55.77729034423828,18.89230728149414,-34.78583526611328
-0.038883551955223083,-0.034771766513586044,9.6901273727417,0.002890235364380249,0.014373127216536186,0.0023404247170360896,2.8700010776519775,2019-08-06 15:24:33:848,152.36633950219456,-179.06245936872688,0,-55.77729034423828,18.89230728149414,-34.78583526611328
-0.060436297208070755,-0.10661425441503525,9.651811599731445,0.0004928051185493561,0.020766275318974875,0.00020937558253977584,2.8799872398376465,2019-08-06 15:24:33:858,152.90019337976096,-179.0688291982368,0,-55.77729034423828,18.89230728149414,-34.78583526611328
-0.0149360541254282,-0.049140263348817825,9.611100196838379,-0.0003063383292368989,0.01570503337463096,-0.0019216735844658289,2.889983892440796,2019-08-06 15:24:33:868,153.43159330953821,-179.08142180197268,0,-55.77729034423828,18.89230728149414,-34.78583526611328
-0.017330802977085114,-0.03237701579928398,9.706890106201172,0.0012919485988449018,0.011709315940643939,0.0018076624618576407,2.8999946117401123,2019-08-06 15:24:33:878,153.9543337008429,-179.09669742096568,0,-55.77729034423828,18.89230728149414,-34.78583526611328
-0.02930455282330513,-0.022798016667366028,9.694916725158691,0.0020910919816125757,0.014905889471714633,0.0012749002066791914,2.9099905490875244,2019-08-06 15:24:33:888,154.46341707410312,-179.11324247564897,0,-55.77729034423828,18.89230728149414,-34.78583526611328
-0.06283104419708252,-0.049140263348817825,9.682943344116211,-0.0008391006169246387,0.016770557884987856,0.005004236253002661,2.9200005531311035,2019-08-06 15:24:33:898,154.9572871112387,-179.1246906090193,0,-55.77729034423828,18.89230728149414,-34.78583526611328
-0.026909802109003067,-0.05153501406311989,9.606310844421387,-0.005367579850960038,0.013041222098738713,0.00020937558253977584,2.9299838542938232,2019-08-06 15:24:33:908,155.4476209660644,-179.1330405019416,0,-55.77729034423828,18.89230728149414,-34.78583526611328
-0.04367304965853691,0.0011494798818603158,9.630258560180664,-0.002171006319889343,0.015172271119452508,-0.0005897678815011245,2.939986228942871,2019-08-06 15:24:33:918,155.92495064314022,-171.9492971632729,0,-55.77729034423828,18.89230728149414,-34.78583526611328
-0.038883551955223083,0.005938979331403971,9.570389747619629,0.0004928051185493561,0.015438651726893083,0.00047575672638364575,2.94999623298645,2019-08-06 15:24:33:928,156.3931184593699,-164.91129931291772,0,-55.77729034423828,18.89230728149414,-34.78583526611328
-0.04367304965853691,-0.020403267815709114,9.63265323638916,0.0004928051185493561,0.016237795629809405,0.00047575672638364575,2.9599826335906982,2019-08-06 15:24:33:938,156.8509556101535,-165.21092245853168,0,-55.77729034423828,18.89230728149414,-34.78583526611328
-0.0508572980761528,-0.02519276738166809,9.675758361816406,-0.0003063383292368989,0.014373127216536186,-5.7005565367755386e-05,2.970003843307495,2019-08-06 15:24:33:948,157.29982583333353,-165.5035480228531,0,-56.67692184448242,21.591209411621094,-35.38559341430664
-0.053252048790454865,-0.034771766513586044,9.558416366577148,0.003955759874737148,0.012242078195822388,-0.0027208169672335025,2.980337381362915,2019-08-06 15:24:33:958,157.740342052546,-165.79160368765235,0,-56.67692184448242,21.591209411621094,-35.38559341430664
-0.05564679950475693,-0.008429518900811672,9.670969009399414,0.0004928051185493561,0.012774840451000838,-0.0027208169672335025,2.9900009632110596,2019-08-06 15:24:33:968,158.17200993984156,-166.07504019869958,0,-56.67692184448242,21.591209411621094,-35.38559341430664
-0.05564679950475693,-0.0706930086016655,9.687732696533203,-0.0013718629371216693,0.012774840451000838,-0.0003233867214026093,2.9999566078186035,2019-08-06 15:24:33:978,158.59484638036997,-166.34441072260864,0,-56.67692184448242,21.591209411621094,-35.38559341430664
-0.03169930353760719,-0.07787726074457169,9.651811599731445,-0.003502911957835466,0.016770557884987856,-0.009113964549523543,3.0105018615722656,2019-08-06 15:24:33:989,159.00925586093862,-166.6062025714744,0,-56.67692184448242,21.591209411621094,-35.38559341430664
-0.07241004705429077,-0.05153501406311989,9.666179656982422,0.0010255674062370958,0.013307602706179285,-5.7005565367755386e-05,3.0200119018554688,2019-08-06 15:24:33:998,159.41338067510534,-166.86851679551293,0,-56.67692184448242,21.591209411621094,-35.38559341430664
-0.04367304965853691,-0.05392976477742195,9.692522048950195,-0.0003063383292368989,0.01810246300278533,-0.004851865987947299,3.0300166606903076,2019-08-06 15:24:34:008,159.8097804274156,-167.12459849300606,0,-56.67692184448242,21.591209411621094,-35.38559341430664
-0.02930455282330513,-0.034771766513586044,9.687732696533203,-0.002171006319889343,0.020233512023499125,-0.0027208169672335025,3.040032386779785,2019-08-06 15:24:34:018,160.19873957795213,-167.37677262063553,0,-56.67692184448242,21.591209411621094,-35.38559341430664
-0.019725553691387177,-0.03716651350259781,9.565600395202637,-0.004035674213013915,0.016504176237249982,-0.000856149009090349,3.049989938735962,2019-08-06 15:24:34:028,160.5831740221884,-167.62252840395,0,-56.67692184448242,21.591209411621094,-35.38559341430664
-0.02930455282330513,-0.01082426868379116,9.697311401367188,-0.005367579850960038,0.01357398435391716,0.0026068058446253144,3.059999465942383,2019-08-06 15:24:34:038,160.96041864555195,-167.8657819899179,0,-56.67692184448242,21.591209411621094,-35.38559341430664
-0.046067800372838974,-0.027587516233325005,9.687732696533203,-0.005367579850960038,0.016237795629809405,-0.001122530201698155,3.0699784755706787,2019-08-06 15:24:34:048,161.32666281164745,-168.1021956010043,0,-56.67692184448242,21.591209411621094,-35.38559341430664
-0.0508572980761528,-0.0706930086016655,9.637442588806152,-0.0013718629371216693,0.01357398435391716,-0.0003233867214026093,3.07999324798584,2019-08-06 15:24:34:058,161.68644952097034,-168.3309748303233,0,-56.67692184448242,21.591209411621094,-35.38559341430664
-0.038883551955223083,-0.05871926248073578,9.745206832885742,0.0007591862786478714,0.013041222098738713,-0.0005897678815011245,3.0900115966796875,2019-08-06 15:24:34:068,162.0408122663033,-168.55787782371428,0,-56.67692184448242,21.591209411621094,-35.38559341430664
-0.010146554559469223,-0.08745625615119934,9.627863883972168,0.0010255674062370958,0.013041222098738713,0.004205092610160662,3.100029468536377,2019-08-06 15:24:34:078,162.39145265552136,-168.77688832809426,0,-56.67692184448242,21.591209411621094,-35.38559341430664
-0.019725553691387177,-0.07308775931596756,9.613494873046875,0.0004928051185493561,0.01756970178790418,0.0007421378864821609,3.1100144386291504,2019-08-06 15:24:34:088,162.73142181028643,-168.9929150608014,0,-56.67692184448242,21.591209411621094,-35.38559341430664
0.00422194367274642,-0.022798016667366028,9.680547714233398,-0.002171006319889343,0.01410674660909561,-0.0021880547120550534,3.120039939880371,2019-08-06 15:24:34:098,155.8693520198783,-169.20913596893456,0,-56.67692184448242,21.591209411621094,-35.38559341430664
-0.007751804776489735,-0.056324511766433716,9.635047912597656,-0.0024373874474785677,0.013041222098738713,0.0071352852737164565,3.13002872467041,2019-08-06 15:24:34:108,156.34372862599537,-169.41688748377416,0,-56.67692184448242,21.591209411621094,-35.38559341430664
-0.04367304965853691,-0.07548251003026962,9.611100196838379,0.0031566164919694735,0.016770557884987856,-0.002987198094822727,3.140018939971924,2019-08-06 15:24:34:118,156.80223959226237,-169.62132096580967,0,-56.67692184448242,21.591209411621094,-35.38559341430664
-0.04367304965853691,-0.05153501406311989,9.656600952148438,-0.002703768575067792,0.01064379143028704,0.0023404247170360896,3.1500284671783447,2019-08-06 15:24:34:128,157.25503013698633,-169.8212595130911,0,-56.67692184448242,21.591209411621094,-35.38559341430664
-0.010146554559469223,-0.03237701579928398,9.623074531555176,0.0002264239747054862,0.014373127216536186,0.0012749002066791914,3.1600162982940674,2019-08-06 15:24:34:138,157.70066061262318,-170.02110586479856,0,-56.67692184448242,21.591209411621094,-35.38559341430664
-0.012541304342448711,-0.022798016667366028,9.704495429992676,0.0012919485988449018,0.011176553685465489,-0.004052722605179625,3.1700141429901123,2019-08-06 15:24:34:148,158.138892245546,-170.2187170130729,0,-56.67692184448242,21.591209411621094,-35.38559341430664
-0.05804154649376869,-0.07308775931596756,9.59194278717041,-0.004834817595781589,0.013307602706179285,-0.001122530201698155,3.180009365081787,2019-08-06 15:24:34:158,158.56171183565672,-170.4028978584193,0,-56.67692184448242,21.591209411621094,-35.38559341430664
-0.02930455282330513,-0.01082426868379116,9.654206275939941,-3.9957173202045016e-05,0.015438651726893083,0.0023404247170360896,3.1900086402893066,2019-08-06 15:24:34:168,158.97833112303147,-170.59353267020862,0,-56.67692184448242,21.591209411621094,-35.38559341430664
-0.06762054562568665,-0.034771766513586044,9.649415969848633,0.001824710854023351,0.014905889471714633,0.0010085190140713856,3.2000319957733154,2019-08-06 15:24:34:178,159.38234517540482,-170.77855968204048,0,-56.67692184448242,21.591209411621094,-35.38559341430664
-0.04846255108714104,-0.0706930086016655,9.639837265014648,0.0002264239747054862,0.015438651726893083,0.0031395680998037635,3.2100136280059814,2019-08-06 15:24:34:188,159.78028457622102,-170.95471205801542,0,-56.67692184448242,21.591209411621094,-35.38559341430664
-0.1035417914390564,-0.049140263348817825,9.618284225463867,0.0010255674062370958,0.01810246300278533,0.00553699850818111,3.2200281620025635,2019-08-06 15:24:34:198,160.16216418384104,-171.13034002317056,0,-56.52698516845703,21.14139175415039,-35.235652923583984
-0.07480479776859283,-0.05871926248073578,9.55362606048584,-0.0024373874474785677,0.014639508864274061,0.0023404247170360896,3.2300195693969727,2019-08-06 15:24:34:208,160.54173557463,-171.29932277935626,0,-56.52698516845703,21.14139175415039,-35.235652923583984
-0.0771995484828949,-0.0635087639093399,9.615889549255371,-0.0003063383292368989,0.014373127216536186,-0.000856149009090349,3.240020990371704,2019-08-06 15:24:34:218,160.9136296324428,-171.4655961272474,0,-56.52698516845703,21.14139175415039,-35.235652923583984
-0.06283104419708252,-0.027587516233325005,9.663784980773926,0.0004928051185493561,0.015172271119452508,0.0023404247170360896,3.250035524368286,2019-08-06 15:24:34:228,161.27937515238816,-171.63329004325595,0,-56.52698516845703,21.14139175415039,-35.235652923583984
-0.05564679950475693,-0.03716651350259781,9.625469207763672,0.0002264239747054862,0.013307602706179285,-0.0005897678815011245,3.2600085735321045,2019-08-06 15:24:34:238,161.6397108889332,-171.79632637161606,0,-56.52698516845703,21.14139175415039,-35.235652923583984
-0.07241004705429077,-0.01082426868379116,9.666179656982422,-0.0005727194893354142,0.014905889471714633,0.0026068058446253144,3.270024061203003,2019-08-06 15:24:34:248,161.98995009633896,-171.95879455960645,0,-56.52698516845703,21.14139175415039,-35.235652923583984
-0.04127829894423485,-0.041956014931201935,9.675758361816406,0.002890235364380249,0.015438651726893083,0.00020937558253977584,3.2800207138061523,2019-08-06 15:24:34:258,162.33659658873245,-172.11627210136578,0,-56.52698516845703,21.14139175415039,-35.235652923583984
-0.05804154649376869,-0.034771766513586044,9.62067985534668,0.0007591862786478714,0.016237795629809405,0.0012749002066791914,3.290018320083618,2019-08-06 15:24:34:268,162.67383611619636,-172.27023120525075,0,-56.52698516845703,21.14139175415039,-35.235652923583984
-0.05804154649376869,-0.013219018466770649,9.637442588806152,-0.005633960978549262,0.01064379143028704,-0.0024544358396442778,3.3000361919403076,2019-08-06 15:24:34:278,163.00747103942524,-172.42008569325824,0,-56.52698516845703,21.14139175415039,-35.235652923583984
-0.06762054562568665,-0.01082426868379116,9.670969009399414,-0.0003063383292368989,0.016237795629809405,0.00047575672638364575,3.3100104331970215,2019-08-06 15:24:34:288,163.33021535885345,-172.57022984408255,0,-56.52698516845703,21.14139175415039,-35.235652923583984
-0.0963575467467308,-0.034771766513586044,9.647021293640137,-3.9957173202045016e-05,0.013041222098738713,-0.001655292456876604,3.320025682449341,2019-08-06 15:24:34:298,163.6448318644481,-172.71467245171922,0,-56.52698516845703,21.14139175415039,-35.235652923583984
-0.08198904246091843,-0.015613768249750137,9.67336368560791,0.003689378747147923,0.01357398435391716,-0.001122530201698155,3.3299896717071533,2019-08-06 15:24:34:308,163.95462863491315,-172.86059350412214,0,-56.52698516845703,21.14139175415039,-35.235652923583984
-0.05564679950475693,-0.04674551263451576,9.668574333190918,-0.002171006319889343,0.017036938492428433,-0.003786341477590401,3.340019941329956,2019-08-06 15:24:34:318,164.25934572409716,-172.99661871060084,0,-56.52698516845703,21.14139175415039,-35.235652923583984
-0.04846255108714104,-0.03956126421689987,9.584757804870605,0.0010255674062370958,0.013041222098738713,-0.0019216735844658289,3.3500280380249023,2019-08-06 15:24:34:328,164.56103631141366,-173.13253289651735,0,-56.52698516845703,21.14139175415039,-35.235652923583984
-0.04846255108714104,-0.06111401319503784,9.627863883972168,-0.0024373874474785677,0.01570503337463096,-0.0019216735844658289,3.3600101470947266,2019-08-06 15:24:34:338,164.8552450066605,-173.2612423593283,0,-56.52698516845703,21.14139175415039,-35.235652923583984
-0.007751804776489735,-0.006034769117832184,9.649415969848633,0.0007591862786478714,0.010377409782549165,0.0023404247170360896,3.370023488998413,2019-08-06 15:24:34:348,165.1513848661269,-173.39572770453472,0,-56.52698516845703,21.14139175415039,-35.235652923583984
-0.010146554559469223,-0.03716651350259781,9.66139030456543,0.0004928051185493561,0.017303320140166306,0.00047575672638364575,3.380006790161133,2019-08-06 15:24:34:358,165.43745414295267,-173.52368118365396,0,-56.52698516845703,21.14139175415039,-35.235652923583984
0.011406192556023598,-0.05392976477742195,9.630258560180664,0.0007591862786478714,0.015172271119452508,0.004471473997824211,3.3900365829467773,2019-08-06 15:24:34:368,158.52151770480071,-173.6472180141299,0,-56.52698516845703,21.14139175415039,-35.235652923583984
-0.005357054993510246,-0.04674551263451576,9.67336368560791,-0.0019046251923001184,0.01410674660909561,-0.0053846282431257485,3.400007486343384,2019-08-06 15:24:34:378,158.9425548772497,-173.76766984764657,0,-56.52698516845703,21.14139175415039,-35.235652923583984
-0.024515053257346153,-0.01800851710140705,9.642231941223145,-0.0003063383292368989,0.012508459843560263,-0.0005897678815011245,3.4100232124328613,2019-08-06 15:24:34:388,159.3537558054232,-173.89000398079313,0,-56.52698516845703,21.14139175415039,-35.235652923583984
-0.0029623054433614016,-0.08027201145887375,9.6901273727417,-0.002171006319889343,0.015971413982071532,0.0010085190140713856,3.4199914932250977,2019-08-06 15:24:34:398,159.75739089730465,-174.00149632178082,0,-56.52698516845703,21.14139175415039,-35.235652923583984
0.023379940539598465,-0.06590351462364197,9.627863883972168,0.0010255674062370958,0.018901606905701654,-0.001122530201698155,3.429983139038086,2019-08-06 15:24:34:408,152.95442141190193,-174.11419800566793,0,-56.52698516845703,21.14139175415039,-35.235652923583984
0.0018271940061822534,-0.07548251003026962,9.668574333190918,-0.003236530830246241,0.01410674660909561,-0.006450152753482647,3.440001964569092,2019-08-06 15:24:34:418,146.28761371139367,-174.22114734135414,0,-56.52698516845703,21.14139175415039,-35.235652923583984
-0.024515053257346153,-0.05871926248073578,9.62067985534668,0.0012919485988449018,0.015172271119452508,0.00020937558253977584,3.44998836517334,2019-08-06 15:24:34:428,146.950433840656,-174.330454892756,0,-56.52698516845703,21.14139175415039,-35.235652923583984
-0.02212030254304409,-0.0706930086016655,9.687732696533203,-0.0019046251923001184,0.011709315940643939,-0.001122530201698155,3.4599852561950684,2019-08-06 15:24:34:438,147.60223594265736,-174.43441489329837,0,-56.52698516845703,21.14139175415039,-35.235652923583984
-0.005357054993510246,-0.0706930086016655,9.594337463378906,0.0020910919816125757,0.014905889471714633,-0.0024544358396442778,3.470032215118408,2019-08-06 15:24:34:448,148.24114245556484,-174.53846307058458,0,-55.627349853515625,22.041025161743164,-35.83540725708008
-0.03169930353760719,-0.08027201145887375,9.66139030456543,-0.003236530830246241,0.016237795629809405,0.004205092610160662,3.4799954891204834,2019-08-06 15:24:34:458,148.86347582223104,-174.6363625136238,0,-55.627349853515625,22.041025161743164,-35.83540725708008
-0.06283104419708252,-0.06111401319503784,9.642231941223145,-0.0005727194893354142,0.014373127216536186,0.00020937558253977584,3.490007162094116,2019-08-06 15:24:34:468,149.47065944475847,-174.73605040713136,0,-55.627349853515625,22.041025161743164,-35.83540725708008
0.00901144277304411,-0.07308775931596756,9.642231941223145,-0.0013718629371216693,0.015172271119452508,0.0023404247170360896,3.500028371810913,2019-08-06 15:24:34:478,142.8737799274249,-174.83187163484828,0,-55.627349853515625,22.041025161743164,-35.83540725708008
-0.012541304342448711,-0.027587516233325005,9.596732139587402,-0.0019046251923001184,0.01810246300278533,-0.008048440039166644,3.5100269317626953,2019-08-06 15:24:34:488,143.60464376743195,-174.93087078226287,0,-55.627349853515625,22.041025161743164,-35.83540725708008
-0.017330802977085114,-0.03956126421689987,9.615889549255371,0.0010255674062370958,0.01756970178790418,0.0020740435894468653,3.520021677017212,2019-08-06 15:24:34:498,144.32062542084492,-175.02811447047327,0,-55.627349853515625,22.041025161743164,-35.83540725708008
0.013800942339003086,-0.044350765645504,9.64462661743164,-0.004834817595781589,0.015438651726893083,-0.004052722605179625,3.5300393104553223,2019-08-06 15:24:34:508,137.8271685869521,-175.119563200761,0,-55.627349853515625,22.041025161743164,-35.83540725708008
-0.0005675556603819132,-0.03956126421689987,9.649415969848633,0.0012919485988449018,0.017303320140166306,0.0023404247170360896,3.540018320083618,2019-08-06 15:24:34:518,138.6608624182809,-175.21319777311095,0,-55.627349853515625,22.041025161743164,-35.83540725708008
-0.010146554559469223,-0.05153501406311989,9.649415969848633,-0.003236530830246241,0.012242078195822388,0.0020740435894468653,3.550025463104248,2019-08-06 15:24:34:528,139.47956139682077,-175.3009952337672,0,-55.627349853515625,22.041025161743164,-35.83540725708008
-0.03169930353760719,-0.0706930086016655,9.599126815795898,-0.004302055340603139,0.014373127216536186,-0.0019216735844658289,3.5600037574768066,2019-08-06 15:24:34:538,140.27813303894092,-175.38412600272798,0,-55.627349853515625,22.041025161743164,-35.83540725708008
-0.007751804776489735,-0.05871926248073578,9.668574333190918,-0.002970149702657017,0.017836082395344753,-0.00831482116675587,3.570020914077759,2019-08-06 15:24:34:548,141.06161951931514,-175.46781358828187,0,-55.627349853515625,22.041025161743164,-35.83540725708008
-0.04127829894423485,-0.05153501406311989,9.647021293640137,-0.0013718629371216693,0.014373127216536186,-0.0024544358396442778,3.5800178050994873,2019-08-06 15:24:34:558,141.8274159588003,-175.55156575957946,0,-55.627349853515625,22.041025161743164,-35.83540725708008
-0.02930455282330513,-0.04674551263451576,9.67336368560791,-0.004568436468192365,0.017836082395344753,-0.000856149009090349,3.5900204181671143,2019-08-06 15:24:34:568,142.57737865290488,-175.63243112976397,0,-55.627349853515625,22.041025161743164,-35.83540725708008
-0.0029623054433614016,-0.06111401319503784,9.625469207763672,0.0002264239747054862,0.01756970178790418,0.00020937558253977584,3.6000185012817383,2019-08-06 15:24:34:578,143.31561494375515,-175.7126340719425,0,-55.627349853515625,22.041025161743164,-35.83540725708008
-0.024515053257346153,-0.015613768249750137,9.613494873046875,-0.005101198723370813,0.007979980154394795,0.0031395680998037635,3.6100215911865234,2019-08-06 15:24:34:588,144.04189835750694,-175.79365505088842,0,-55.627349853515625,22.041025161743164,-35.83540725708008
-0.06283104419708252,-0.06111401319503784,9.680547714233398,0.0004928051185493561,0.01357398435391716,-0.0027208169672335025,3.620023727416992,2019-08-06 15:24:34:598,144.74599959291544,-175.87082456467581,0,-55.627349853515625,22.041025161743164,-35.83540725708008
-0.04127829894423485,-0.044350765645504,9.654206275939941,-0.0037692930854246903,0.014639508864274061,-0.002987198094822727,3.6300251483917236,2019-08-06 15:24:34:608,145.43795882991867,-175.94602709861223,0,-55.627349853515625,22.041025161743164,-35.83540725708008
-0.053252048790454865,-0.04674551263451576,9.651811599731445,-0.0011054818095324445,0.01570503337463096,0.0026068058446253144,3.640012264251709,2019-08-06 15:24:34:618,146.11407035130884,-176.02093679164366,0,-55.627349853515625,22.041025161743164,-35.83540725708008
0.011406192556023598,-0.05392976477742195,9.680547714233398,-0.004302055340603139,0.014639508864274061,-0.004585484860358075,3.650024652481079,2019-08-06 15:24:34:628,139.5849088815151,-176.0917157024425,0,-55.627349853515625,22.041025161743164,-35.83540725708008
-0.026909802109003067,-0.029982266947627068,9.66139030456543,0.0007591862786478714,0.012508459843560263,-0.0032535792224119516,3.6600115299224854,2019-08-06 15:24:34:638,140.38300473497245,-176.16675099380313,0,-55.627349853515625,22.041025161743164,-35.83540725708008
-0.09156804531812668,-0.049140263348817825,9.658995628356934,-0.005900342106138487,0.01410674660909561,-0.0003233867214026093,3.670025110244751,2019-08-06 15:24:34:648,141.15654991904242,-176.2342686307849,0,-55.627349853515625,22.041025161743164,-35.83540725708008
0.00901144277304411,-0.049140263348817825,9.654206275939941,-0.0016382440647108938,0.014373127216536186,0.0031395680998037635,3.680009126663208,2019-08-06 15:24:34:658,134.7264309506518,-176.30283215471044,0,-55.627349853515625,22.041025161743164,-35.83540725708008
-0.04127829894423485,-0.044350765645504,9.625469207763672,-0.002171006319889343,0.017303320140166306,-0.000856149009090349,3.6900243759155273,2019-08-06 15:24:34:668,135.61725755877876,-176.37027469828715,0,-55.627349853515625,22.041025161743164,-35.83540725708008
-0.024515053257346153,-0.056324511766433716,9.64462661743164,0.0020910919816125757,0.012508459843560263,-0.002987198094822727,3.7000253200531006,2019-08-06 15:24:34:678,136.49497553878066,-176.43735140230362,0,-55.627349853515625,22.041025161743164,-35.83540725708008
-0.0005675556603819132,-0.020403267815709114,9.663784980773926,0.0004928051185493561,0.015971413982071532,0.0018076624618576407,3.71002197265625,2019-08-06 15:24:34:688,137.3560438029002,-176.50646160898285,0,-55.627349853515625,22.041025161743164,-35.83540725708008
-0.03169930353760719,-0.08266676217317581,9.637442588806152,0.001824710854023351,0.013840364961357736,-0.004052722605179625,3.7200374603271484,2019-08-06 15:24:34:698,138.19737043330326,-176.56752949632073,0,-56.227108001708984,21.441268920898438,-35.53553009033203
-0.0029623054433614016,-0.05153501406311989,9.615889549255371,-0.0003063383292368989,0.015172271119452508,0.0031395680998037635,3.7300117015838623,2019-08-06 15:24:34:708,139.02457274460494,-176.62986602550234,0,-56.227108001708984,21.441268920898438,-35.53553009033203
-0.02930455282330513,-0.06590351462364197,9.656600952148438,-0.0016382440647108938,0.01863522629826108,-0.004585484860358075,3.7400267124176025,2019-08-06 15:24:34:718,139.8301244689652,-176.68852703059517,0,-56.227108001708984,21.441268920898438,-35.53553009033203
-0.053252048790454865,-0.03237701579928398,9.656600952148438,0.0026238542367910244,0.019700750808617978,-5.7005565367755386e-05,3.750023365020752,2019-08-06 15:24:34:728,140.61614456444354,-176.75238723279404,0,-56.227108001708984,21.441268920898438,-35.53553009033203
-0.04367304965853691,-0.044350765645504,9.625469207763672,-0.0016382440647108938,0.012774840451000838,0.0028731869722145387,3.7600350379943848,2019-08-06 15:24:34:738,141.39144098785798,-176.81113860523635,0,-56.227108001708984,21.441268920898438,-35.53553009033203
-0.06283104419708252,-0.06111401319503784,9.687732696533203,0.0002264239747054862,0.01570503337463096,-0.0032535792224119516,3.770026683807373,2019-08-06 15:24:34:748,142.14736930058677,-176.86781407508707,0,-56.227108001708984,21.441268920898438,-35.53553009033203
-0.0149360541254282,-0.06590351462364197,9.637442588806152,-0.002703768575067792,0.012242078195822388,0.0010085190140713856,3.7800118923187256,2019-08-06 15:24:34:758,142.8957822397715,-176.9211059092117,0,-56.227108001708984,21.441268920898438,-35.53553009033203
-0.06762054562568665,-0.041956014931201935,9.680547714233398,0.0012919485988449018,0.013840364961357736,-0.001122530201698155,3.790024757385254,2019-08-06 15:24:34:768,143.62208093352316,-176.97844372291434,0,-56.227108001708984,21.441268920898438,-35.53553009033203
-0.04367304965853691,-0.034771766513586044,9.625469207763672,-0.0013718629371216693,0.019700750808617978,0.0023404247170360896,3.8000078201293945,2019-08-06 15:24:34:778,144.3333968493025,-177.03396628058735,0,-56.227108001708984,21.441268920898438,-35.53553009033203
-0.03409405052661896,-0.049140263348817825,9.594337463378906,-0.0008391006169246387,0.016504176237249982,-0.000856149009090349,3.810026168823242,2019-08-06 15:24:34:788,145.03337277368072,-177.08694583917017,0,-56.227108001708984,21.441268920898438,-35.53553009033203
-0.060436297208070755,-0.04674551263451576,9.625469207763672,-0.003502911957835466,0.01410674660909561,-0.002987198094822727,3.820004940032959,2019-08-06 15:24:34:798,145.7176063458427,-177.1376791911034,0,-56.227108001708984,21.441268920898438,-35.53553009033203
-0.038883551955223083,0.005938979331403971,9.678153038024902,-0.003502911957835466,0.015438651726893083,0.0007421378864821609,3.8300278186798096,2019-08-06 15:24:34:808,146.38996172673376,-169.99365741575855,0,-56.227108001708984,21.441268920898438,-35.53553009033203
-0.0771995484828949,-0.03956126421689987,9.58236312866211,0.0010255674062370958,0.015971413982071532,0.0031395680998037635,3.840008020401001,2019-08-06 15:24:34:818,147.0439805416027,-170.18962803925132,0,-56.227108001708984,21.441268920898438,-35.53553009033203
-0.02930455282330513,-0.02519276738166809,9.584757804870605,0.0004928051185493561,0.014373127216536186,-0.0021880547120550534,3.850026845932007,2019-08-06 15:24:34:828,147.69151172119305,-170.38310076847677,0,-56.227108001708984,21.441268920898438,-35.53553009033203
-0.03169930353760719,-0.06829825788736343,9.608705520629883,0.0026238542367910244,0.015971413982071532,-0.0005897678815011245,3.860011100769043,2019-08-06 15:24:34:838,148.32494729593512,-170.56876474332503,0,-56.227108001708984,21.441268920898438,-35.53553009033203
-0.04846255108714104,-0.015613768249750137,9.666179656982422,0.005287665772757595,0.0183688436102259,0.0026068058446253144,3.870025634765625,2019-08-06 15:24:34:848,148.94237414172602,-170.758511786313,0,-56.227108001708984,21.441268920898438,-35.53553009033203
-0.0963575467467308,-0.04674551263451576,9.642231941223145,-0.0005727194893354142,0.009311885272192268,-0.001122530201698155,3.8800222873687744,2019-08-06 15:24:34:858,149.54684872128678,-170.93746472506535,0,-56.227108001708984,21.441268920898438,-35.53553009033203
-0.03648880124092102,-0.03237701579928398,9.651811599731445,-3.9957173202045016e-05,0.014639508864274061,-0.0021880547120550534,3.8900222778320312,2019-08-06 15:24:34:868,150.14335956200756,-171.1148490336208,0,-56.227108001708984,21.441268920898438,-35.53553009033203
-0.05804154649376869,-0.03956126421689987,9.682943344116211,-0.0005727194893354142,0.011709315940643939,0.001541281334268416,3.9000301361083984,2019-08-06 15:24:34:878,150.72704366858122,-171.28754841768006,0,-56.227108001708984,21.441268920898438,-35.53553009033203
-0.09396279603242874,-0.056324511766433716,9.687732696533203,-0.003502911957835466,0.014639508864274061,0.0010085190140713856,3.910020351409912,2019-08-06 15:24:34:888,151.29317671252184,-171.4531702113808,0,-56.227108001708984,21.441268920898438,-35.53553009033203
-0.04127829894423485,-0.06111401319503784,9.611100196838379,0.0010255674062370958,0.015438651726893083,-0.0019216735844658289,3.9200217723846436,2019-08-06 15:24:34:898,151.85372165142937,-171.6173963191088,0,-56.227108001708984,21.441268920898438,-35.53553009033203
-0.0005675556603819132,-0.01082426868379116,9.611100196838379,-3.9957173202045016e-05,0.01064379143028704,0.0023404247170360896,3.930027723312378,2019-08-06 15:24:34:908,152.41059951871654,-171.78373538435872,0,-56.227108001708984,21.441268920898438,-35.53553009033203
-0.012541304342448711,-0.03237701579928398,9.675758361816406,0.0010255674062370958,0.010377409782549165,-0.001655292456876604,3.9400203227996826,2019-08-06 15:24:34:918,152.9550796531089,-171.9448016575849,0,-56.227108001708984,21.441268920898438,-35.53553009033203
-0.026909802109003067,-0.013219018466770649,9.658995628356934,0.0004928051185493561,0.01756970178790418,0.0023404247170360896,3.9500250816345215,2019-08-06 15:24:34:928,153.48291550801054,-172.1046141999888,0,-56.227108001708984,21.441268920898438,-35.53553009033203
-0.04127829894423485,-0.03237701579928398,9.670969009399414,0.0004928051185493561,0.017303320140166306,-0.0005897678815011245,3.960019111633301,2019-08-06 15:24:34:938,153.99865616097296,-172.25896211365057,0,-56.227108001708984,21.441268920898438,-35.53553009033203
-0.010146554559469223,-0.0012452697847038507,9.625469207763672,-0.0011054818095324445,0.014373127216536186,0.0026068058446253144,3.970027446746826,2019-08-06 15:24:34:948,154.50939786899136,-172.4130133776458,0,-57.42661666870117,21.14139175415039,-35.235652923583984
-0.046067800372838974,-0.06829825788736343,9.62067985534668,-0.0008391006169246387,0.014373127216536186,-0.0019216735844658289,3.980023145675659,2019-08-06 15:24:34:958,155.0056558148262,-172.55614731551103,0,-57.42661666870117,21.14139175415039,-35.235652923583984
0.0018271940061822534,-0.03237701579928398,9.694916725158691,-3.9957173202045016e-05,0.014639508864274061,-5.7005565367755386e-05,3.9900219440460205,2019-08-06 15:24:34:968,148.29753959185808,-172.70117506566058,0,-57.42661666870117,21.14139175415039,-35.235652923583984
-0.0508572980761528,-0.06829825788736343,9.601521492004395,-0.002171006319889343,0.017303320140166306,0.00047575672638364575,4.0000245571136475,2019-08-06 15:24:34:978,148.91580084645935,-172.83778115405653,0,-57.42661666870117,21.14139175415039,-35.235652923583984
-0.010146554559469223,-0.044350765645504,9.668574333190918,0.0012919485988449018,0.0183688436102259,0.00047575672638364575,4.010059833526611,2019-08-06 15:24:34:988,149.52593179928644,-172.97649711913937,0,-57.42661666870117,21.14139175415039,-35.235652923583984
-0.0508572980761528,-0.05153501406311989,9.630258560180664,0.0002264239747054862,0.017303320140166306,0.0007421378864821609,4.020035982131958,2019-08-06 15:24:34:998,150.11966903371513,-173.1109618579537,0,-57.42661666870117,21.14139175415039,-35.235652923583984
-0.08198904246091843,-0.044350765645504,9.60391616821289,0.0004928051185493561,0.015172271119452508,0.00020937558253977584,4.030034065246582,2019-08-06 15:24:35:008,150.6989755838063,-173.2437274908022,0,-57.42661666870117,21.14139175415039,-35.235652923583984
-0.038883551955223083,-0.027587516233325005,9.680547714233398,-0.0019046251923001184,0.013041222098738713,-0.0005897678815011245,4.0400331020355225,2019-08-06 15:24:35:018,151.27307141058412,-173.37451799099406,0,-57.42661666870117,21.14139175415039,-35.235652923583984
-0.046067800372838974,-0.03237701579928398,9.567995071411133,0.0020910919816125757,0.019700750808617978,0.0012749002066791914,4.050045728683472,2019-08-06 15:24:35:028,151.83101678015618,-173.50432562476087,0,-57.42661666870117,21.14139175415039,-35.235652923583984
-0.046067800372838974,-0.02519276738166809,9.670969009399414,-0.0005727194893354142,0.011975696548084513,-0.001655292456876604,4.060045957565308,2019-08-06 15:24:35:038,152.38221340917292,-173.63093243299608,0,-57.42661666870117,21.14139175415039,-35.235652923583984
-0.017330802977085114,-0.05153501406311989,9.608705520629883,-0.0011054818095324445,0.016770557884987856,-0.0021880547120550534,4.070041179656982,2019-08-06 15:24:35:048,152.92309015902535,-173.7515474474549,0,-57.42661666870117,21.14139175415039,-35.235652923583984
-0.010146554559469223,-0.027587516233325005,9.642231941223145,-0.003502911957835466,0.01410674660909561,-0.003519960350001176,4.080029487609863,2019-08-06 15:24:35:058,153.4555108474379,-173.87127333271974,0,-57.42661666870117,21.14139175415039,-35.235652923583984
-0.02930455282330513,-0.06111401319503784,9.618284225463867,0.0012919485988449018,0.014639508864274061,-0.0005897678815011245,4.090050458908081,2019-08-06 15:24:35:068,153.9746720147151,-173.98729383237006,0,-56.976802825927734,20.69157600402832,-34.18608093261719
-0.05564679950475693,-0.029982266947627068,9.60391616821289,-0.002703768575067792,0.015438651726893083,0.0023404247170360896,4.10001015663147,2019-08-06 15:24:35:078,154.47990516508037,-174.10245851336444,0,-56.976802825927734,20.69157600402832,-34.18608093261719
-0.03409405052661896,-0.05153501406311989,9.639837265014648,-0.0016382440647108938,0.011442934292906064,-0.001122530201698155,4.110028266906738,2019-08-06 15:24:35:088,154.97981739115153,-174.21336174620143,0,-56.976802825927734,20.69157600402832,-34.18608093261719
-0.012541304342448711,-0.04674551263451576,9.625469207763672,-0.0013718629371216693,0.013307602706179285,0.0010085190140713856,4.120018720626831,2019-08-06 15:24:35:098,155.47126292971694,-174.3227599210195,0,-56.976802825927734,20.69157600402832,-34.18608093261719
-0.026909802109003067,-0.05871926248073578,9.675758361816406,0.0012919485988449018,0.017036938492428433,0.006069760763359559,4.130024671554565,2019-08-06 15:24:35:108,155.94907879772416,-174.4300764505594,0,-56.976802825927734,20.69157600402832,-34.18608093261719
-0.026909802109003067,-0.05153501406311989,9.649415969848633,-0.0011054818095324445,0.018901606905701654,-0.0027208169672335025,4.140026092529297,2019-08-06 15:24:35:118,156.41628682407512,-174.53473412869488,0,-56.976802825927734,20.69157600402832,-34.18608093261719
-0.05804154649376869,-0.029982266947627068,9.649415969848633,-3.9957173202045016e-05,0.01810246300278533,-0.0003233867214026093,4.150020122528076,2019-08-06 15:24:35:128,156.87091001156702,-174.64045649345954,0,-56.976802825927734,20.69157600402832,-34.18608093261719
-0.06522579491138458,-0.04674551263451576,9.692522048950195,-0.002703768575067792,0.01570503337463096,0.005803379635770335,4.160008668899536,2019-08-06 15:24:35:138,157.316972237931,-174.7406044118655,0,-56.976802825927734,20.69157600402832,-34.18608093261719
-0.060436297208070755,-0.03956126421689987,9.709284782409668,0.0023574731092018,0.015971413982071532,-0.0019216735844658289,4.170023202896118,2019-08-06 15:24:35:148,157.7545190717,-174.84244886577315,0,-56.976802825927734,20.69157600402832,-34.18608093261719
-0.017330802977085114,-0.10661425441503525,9.678153038024902,0.0004928051185493561,0.015172271119452508,0.00020937558253977584,4.179987668991089,2019-08-06 15:24:35:158,158.18888774799754,-174.9332527521351,0,-56.976802825927734,20.69157600402832,-34.18608093261719
-0.0508572980761528,-0.041956014931201935,9.656600952148438,0.0015583297264341264,0.01810246300278533,0.0007421378864821609,4.19001030921936,2019-08-06 15:24:35:168,158.60888746733644,-175.03048593361143,0,-56.976802825927734,20.69157600402832,-34.18608093261719
-0.026909802109003067,-0.05153501406311989,9.64462661743164,-0.0013718629371216693,0.011709315940643939,0.0018076624618576407,4.200022220611572,2019-08-06 15:24:35:178,159.02692987163528,-175.12298198109937,0,-56.976802825927734,20.69157600402832,-34.18608093261719
-0.07480479776859283,-0.0012452697847038507,9.647021293640137,-3.9957173202045016e-05,0.013041222098738713,0.0018076624618576407,4.210020303726196,2019-08-06 15:24:35:188,159.43018458482373,-175.22035199126222,0,-56.976802825927734,20.69157600402832,-34.18608093261719
-0.03169930353760719,-0.0012452697847038507,9.692522048950195,-0.003502911957835466,0.016770557884987856,0.0020740435894468653,4.220019817352295,2019-08-06 15:24:35:198,159.82841701274026,-175.31383094257765,0,-55.17753219604492,19.492063522338867,-35.68547058105469
-0.038883551955223083,-0.05392976477742195,9.623074531555176,0.0026238542367910244,0.014639508864274061,0.003672330354982212,4.230026960372925,2019-08-06 15:24:35:208,160.21899250890738,-175.4026067782253,0,-55.17753219604492,19.492063522338867,-35.68547058105469
-0.024515053257346153,0.029886476695537567,9.663784980773926,-0.005101198723370813,0.013041222098738713,-0.004052722605179625,4.240019798278809,2019-08-06 15:24:35:218,160.60438832669465,-168.29523625549433,0,-55.17753219604492,19.492063522338867,-35.68547058105469
-0.038883551955223083,-0.020403267815709114,9.680547714233398,-0.002171006319889343,0.01756970178790418,-0.0005897678815011245,4.25002121925354,2019-08-06 15:24:35:228,160.97783105626453,-168.52569714738212,0,-55.17753219604492,19.492063522338867,-35.68547058105469
-0.02930455282330513,-0.03237701579928398,9.649415969848633,-0.0013718629371216693,0.016770557884987856,-5.7005565367755386e-05,4.260019302368164,2019-08-06 15:24:35:238,161.34537954573827,-168.75056813753247,0,-55.17753219604492,19.492063522338867,-35.68547058105469
-0.019725553691387177,-0.022798016667366028,9.62067985534668,-0.0005727194893354142,0.015172271119452508,0.0018076624618576407,4.27002477645874,2019-08-06 15:24:35:248,161.70759858169072,-168.9725195593498,0,-55.17753219604492,19.492063522338867,-35.68547058105469
-0.03409405052661896,-0.05153501406311989,9.670969009399414,-0.0003063383292368989,0.014639508864274061,-0.0019216735844658289,4.280016183853149,2019-08-06 15:24:35:258,162.0611938129009,-169.18679096821606,0,-55.17753219604492,19.492063522338867,-35.68547058105469
-0.038883551955223083,-0.11140375584363937,9.613494873046875,-0.0008391006169246387,0.014905889471714633,-0.005118247115536523,4.290022850036621,2019-08-06 15:24:35:268,162.4069598790913,-169.3893050982154,0,-55.17753219604492,19.492063522338867,-35.68547058105469
-0.010146554559469223,-0.04674551263451576,9.630258560180664,-0.004834817595781589,0.01863522629826108,-0.0021880547120550534,4.300006628036499,2019-08-06 15:24:35:278,162.7471666516404,-169.59324639774653,0,-55.17753219604492,19.492063522338867,-35.68547058105469
-0.02930455282330513,-0.05871926248073578,9.637442588806152,0.0015583297264341264,0.015438651726893083,0.00047575672638364575,4.310026407241821,2019-08-06 15:24:35:288,163.08005301795504,-169.79527642238133,0,-55.17753219604492,19.492063522338867,-35.68547058105469
-0.03648880124092102,-0.06590351462364197,9.680547714233398,0.0004928051185493561,0.017036938492428433,0.003938711482571438,4.320006370544434,2019-08-06 15:24:35:298,163.4045856385069,-169.99184597189495,0,-55.17753219604492,19.492063522338867,-35.68547058105469
-0.0029623054433614016,-0.04674551263451576,9.658995628356934,0.0010255674062370958,0.014639508864274061,-0.0024544358396442778,4.330031156539917,2019-08-06 15:24:35:308,163.7279020477563,-170.18704062397023,0,-55.17753219604492,19.492063522338867,-35.68547058105469
-0.02212030254304409,-0.05153501406311989,9.668574333190918,-0.0019046251923001184,0.014373127216536186,0.0023404247170360896,4.340010166168213,2019-08-06 15:24:35:318,164.0426687707905,-170.37612476028235,0,-57.42661666870117,20.241758346557617,-35.53553009033203
-0.046067800372838974,-0.06111401319503784,9.599126815795898,-0.0013718629371216693,0.015971413982071532,0.00020937558253977584,4.350027561187744,2019-08-06 15:24:35:328,164.34733247182996,-170.56053511298435,0,-57.42661666870117,20.241758346557617,-35.53553009033203
-0.02930455282330513,-0.06590351462364197,9.67336368560791,-0.002970149702657017,0.01810246300278533,-0.0019216735844658289,4.360005617141724,2019-08-06 15:24:35:338,164.64677218533976,-170.73985346501038,0,-57.42661666870117,20.241758346557617,-35.53553009033203
-0.053252048790454865,-0.08027201145887375,9.59194278717041,-0.004834817595781589,0.016770557884987856,-5.7005565367755386e-05,4.370032548904419,2019-08-06 15:24:35:348,164.9380329663362,-170.9127447505656,0,-57.42661666870117,20.241758346557617,-35.53553009033203
-0.053252048790454865,-0.0635087639093399,9.678153038024902,-0.0013718629371216693,0.016237795629809405,-0.0024544358396442778,4.380007028579712,2019-08-06 15:24:35:358,165.22387297352873,-171.0862020463528,0,-57.42661666870117,20.241758346557617,-35.53553009033203
-0.03169930353760719,-0.049140263348817825,9.630258560180664,-0.004302055340603139,0.012774840451000838,-0.001122530201698155,4.39002537727356,2019-08-06 15:24:35:368,165.5084373737866,-171.2562107689482,0,-57.42661666870117,20.241758346557617,-35.53553009033203
-0.06762054562568665,-0.07787726074457169,9.656600952148438,0.0015583297264341264,0.015971413982071532,-5.7005565367755386e-05,4.400005102157593,2019-08-06 15:24:35:378,165.78129471547138,-171.4227185534352,0,-57.42661666870117,20.241758346557617,-35.53553009033203
-0.03648880124092102,-0.056324511766433716,9.656600952148438,-0.0019046251923001184,0.012774840451000838,0.003672330354982212,4.4100258350372314,2019-08-06 15:24:35:388,166.0541509140071,-171.5865087605385,0,-57.42661666870117,20.241758346557617,-35.53553009033203
-0.0029623054433614016,-0.07308775931596756,9.611100196838379,0.0026238542367910244,0.01410674660909561,0.004205092610160662,4.420017242431641,2019-08-06 15:24:35:398,166.3248005920649,-171.7475366452041,0,-57.42661666870117,20.241758346557617,-35.53553009033203
-0.03169930353760719,-0.041956014931201935,9.668574333190918,-0.0003063383292368989,0.017036938492428433,0.0010085190140713856,4.430024147033691,2019-08-06 15:24:35:408,166.58497478194576,-171.9074412059644,0,-57.42661666870117,20.241758346557617,-35.53553009033203
-0.04846255108714104,0.008333728648722172,9.651811599731445,-0.002703768575067792,0.013041222098738713,0.0010085190140713856,4.440005540847778,2019-08-06 15:24:35:418,166.84021259305746,-164.86876646955508,0,-57.42661666870117,20.241758346557617,-35.53553009033203
-0.04846255108714104,-0.05871926248073578,9.587152481079102,0.0007591862786478714,0.013840364961357736,0.0031395680998037635,4.450029611587524,2019-08-06 15:24:35:428,167.089825795253,-165.16480004769426,0,-57.42661666870117,20.241758346557617,-35.53553009033203
-0.038883551955223083,-0.03237701579928398,9.649415969848633,-0.005101198723370813,0.01064379143028704,0.0026068058446253144,4.460480213165283,2019-08-06 15:24:35:439,167.33716591608152,-165.45466574867442,0,-57.42661666870117,20.241758346557617,-35.53553009033203
-0.06283104419708252,-0.03237701579928398,9.62067985534668,0.0002264239747054862,0.013307602706179285,-0.0013889113292873795,4.4699928760528564,2019-08-06 15:24:35:448,167.57583086917558,-165.74183697488817,0,-56.52698516845703,20.841514587402344,-35.83540725708008
-0.04367304965853691,-0.03956126421689987,9.694916725158691,-0.0008391006169246387,0.015971413982071532,0.001541281334268416,4.48003077507019,2019-08-06 15:24:35:458,167.8101503236204,-166.0218512765992,0,-56.52698516845703,20.841514587402344,-35.83540725708008
-0.0149360541254282,-0.041956014931201935,9.670969009399414,0.0007591862786478714,0.013041222098738713,0.00047575672638364575,4.4900221824646,2019-08-06 15:24:35:468,168.04486120526695,-166.296868819096,0,-56.52698516845703,20.841514587402344,-35.83540725708008
