ACCELEROMETER X (m/s²),ACCELEROMETER Y (m/s²),ACCELEROMETER Z (m/s²),GYROSCOPE X (rad/s),GYROSCOPE Y (rad/s),GYROSCOPE Z (rad/s),Pitch (Deg),Roll (Deg),Heading (Deg),Time since start in ms ,YYYY-MO-DD HH-MI-SS_SSS
0.24232232570648193,-0.02909860387444496,9.714465141296387,-0.007984774884654239,-0.0054168602945454634,-0.004308981379957623,-3.571421652680121,-3.5965675470935654,0,0.0,2019-08-07 14:04:33:345
0.44348129630088806,0.018796389922499657,9.721649169921875,-0.0037226765831523197,-0.004084954916673665,-0.005374506150388846,-7.046919397416781,0.07390987339978006,0,0.0036437511444091797,2019-08-07 14:04:33:348
0.11779534071683884,-0.05065134912729263,9.747991561889648,-0.007984774884654239,-0.007814290962997135,-0.008837460809048764,-10.491087104444896,-3.520543996692054,0,0.006030559539794922,2019-08-07 14:04:33:351
0.3500860631465912,-0.12009909003973007,9.755175590515137,-0.012246872926081832,-0.008613434345764809,-0.00617364953315652,-13.83839701095203,-7.033520432916873,0,0.009674310684204102,2019-08-07 14:04:33:354
0.3237438201904297,0.014006891287863255,9.59233283996582,0.0005394218158774704,0.001775430280400763,-0.009902985319405663,-17.12328858342235,-3.294620471970934,0,0.012882232666015625,2019-08-07 14:04:33:358
0.26626983284950256,-0.12967808544635773,9.764754295349121,-0.017041733222687875,-0.008613434345764809,-0.001911551101617438,-20.34801660217078,-6.810411427820407,0,0.016121387481689453,2019-08-07 14:04:33:361
0.12497959285974503,-0.02909860387444496,9.829413414001465,-0.0034562954555630953,-0.0011547622531178697,-0.012034034340119461,-23.52625558854643,-10.270118548040802,0,0.019688844680786133,2019-08-07 14:04:33:364
0.42432329058647156,-0.03628285229206085,9.724043846130371,-0.009583061650189587,-0.001687524508296319,-0.006440030660745744,-26.605453988264426,-13.658711660606302,0,0.02290177345275879,2019-08-07 14:04:33:368
0.02200535498559475,-0.012335355393588543,9.82222843170166,-0.0026571518127210965,-0.0024866678910639927,-0.004042600252368397,-29.670321414277094,-16.983610806478378,0,0.026169300079345703,2019-08-07 14:04:33:371
0.3237438201904297,-0.053046099841594696,9.870123863220215,-0.009849443297927462,-0.0046177169117777896,-0.007239174043513418,-32.63842967653966,-20.235834095074875,0,0.029687881469726562,2019-08-07 14:04:33:374
0.3692440688610077,-0.08417784422636032,9.745596885681152,-0.007185631501886564,-0.003019430146242442,-0.00617364953315652,-35.541722632412636,-23.419928939464054,0,0.03288722038269043,2019-08-07 14:04:33:378
0.21598008275032043,0.006822641938924789,9.779123306274414,-0.010648586160546484,-0.007015147580229461,-0.008837460809048764,-38.40439851769873,-19.350530656671936,0,0.03589630126953125,2019-08-07 14:04:33:381
0.22795382142066956,-0.0267038531601429,9.795886039733887,-0.009849443297927462,-0.008080672090586358,-0.0051081250227996205,-41.20795943307353,-22.558336264956836,0,0.03962111473083496,2019-08-07 14:04:33:384
0.35248079895973206,-0.019519604742527008,9.759964942932129,-0.004788200833434893,-0.0038185737890844406,-0.006706411788334968,-43.941781179654086,-25.70405976370899,0,0.04266357421875,2019-08-07 14:04:33:387
0.192032590508461,-0.06980934739112854,9.831808090209961,-0.009050299395011138,-0.008347053218175584,-0.005640887277978069,-46.63896938402903,-28.780110464307732,0,0.046071529388427734,2019-08-07 14:04:33:391
0.28782257437705994,-0.014730105176568031,9.74080753326416,-0.010115823905368035,-0.007015147580229461,-0.006440030660745744,-49.27091421646257,-31.800719144567847,0,0.04969167709350586,2019-08-07 14:04:33:394
0.22316433489322662,0.016401641070842743,9.788702011108398,-0.005587344736351217,-0.0038185737890844406,-0.008038317426281092,-51.85870367471104,-27.565641515772597,0,0.052825927734375,2019-08-07 14:04:33:398
0.29261207580566406,-0.005151106510311365,9.7982816696167,-0.009583061650189587,-0.007814290962997135,-0.0077719362986918665,-54.385958540322314,-30.612058360796333,0,0.055925607681274414,2019-08-07 14:04:33:401
0.17526933550834656,0.014006891287863255,9.807860374450684,-0.006120106991529666,-0.0038185737890844406,-0.008038317426281092,-56.87690677908236,-26.400080299955157,0,0.059922218322753906,2019-08-07 14:04:33:405
0.38600730895996094,-0.05783560127019882,9.74080753326416,-0.006120106991529666,-0.0038185737890844406,-0.005640887277978069,-59.29330702280434,-29.464192808700883,0,0.06307125091552734,2019-08-07 14:04:33:408
0.18963783979415894,-0.04825660213828087,9.841386795043945,-0.0077183937570650145,-0.005949623069872562,-0.0035098379971899483,-61.68430586451419,-32.467919332729295,0,0.06623411178588867,2019-08-07 14:04:33:411
0.29979631304740906,-0.005151106510311365,9.843781471252441,-0.008783917747273263,-0.006216004197461787,-0.004841743895210396,-64.01453275411754,-35.416267748099386,0,0.06966781616210938,2019-08-07 14:04:33:414
0.2638750672340393,0.004427892155945301,9.750386238098145,-0.006120106991529666,-0.0054168602945454634,-0.0013787888464389891,-66.30228049346444,-31.10738129367437,0,0.07281494140625,2019-08-07 14:04:33:418
0.25429606437683105,-0.04346710070967674,9.688122749328613,-0.011181348415724934,-0.004884098039367014,0.00048587920923203625,-68.54531196906431,-34.07814287519596,0,0.07592010498046875,2019-08-07 14:04:33:421
0.15611134469509125,-0.031493354588747025,9.788702011108398,0.0010721841035652101,-0.007814290962997135,-0.0178944201873797,-70.75437995151171,-36.9931336639987,0,0.07991337776184082,2019-08-07 14:04:33:425
-0.8281307816505432,-0.2039153277873993,10.023387908935547,-0.00425543883833077,-0.0008883811255286454,-0.01602975177410648,-65.83359637464648,-39.82921062685235,0,0.08305692672729492,2019-08-07 14:04:33:428
0.8338255286216736,0.04274388775229454,9.568385124206543,-0.0005261027594980092,0.016692774855806128,-0.0008460265262419585,-68.02027245574871,-35.43765225599198,0,0.08621048927307129,2019-08-07 14:04:33:431
0.0675055980682373,0.124165378510952,9.805465698242188,0.025579250312479963,0.028679925077172586,-0.016828894636725503,-70.25754372916228,-31.148372940567118,0,0.08966660499572754,2019-08-07 14:04:33:434
-0.11449537426233292,-0.4577587842941284,10.037755966186523,-0.04288070519958591,-0.0046177169117777896,-0.0008460265262419585,-65.26464769750694,-34.065611364873085,0,0.09281158447265625,2019-08-07 14:04:33:438
0.6111137866973877,0.23192910850048065,9.601911544799805,0.01971886446521972,0.007635815477475192,-0.01656251402928493,-67.48785363007237,-29.81541371986472,0,0.09591937065124512,2019-08-07 14:04:33:441
0.13695333898067474,0.11937587708234787,9.951544761657715,-0.009316680002451712,-0.01154362674924628,0.0076781701417804596,-69.71968069518408,-25.63071471326992,0,0.10000276565551758,2019-08-07 14:04:33:445
0.37163880467414856,-0.08178309351205826,9.970703125,-0.01144773006346281,-0.017936774851684968,0.01646874787237352,-71.87893004985634,-28.706362344685182,0,0.10364174842834473,2019-08-07 14:04:33:448
0.3165595531463623,-0.2542050778865814,9.630648612976074,0.01332571636278103,-0.01580572479067387,-0.02535309175987799,-74.00156079897855,-31.703797677963102,0,0.10605072975158691,2019-08-07 14:04:33:451
0.0076368567533791065,-0.3667583167552948,10.375415802001953,-0.04687642055297833,-0.033120498604122126,0.011141125320589031,-76.11390935919354,-34.6196405004996,0,0.1096947193145752,2019-08-07 14:04:33:454
0.5464555621147156,0.3995615839958191,9.170856475830078,0.011461048989805107,-0.008879815473354034,-0.008038317426281092,-78.12182349697113,-30.379217101093946,0,0.11291909217834473,2019-08-07 14:04:33:458
0.22076958417892456,-0.1512308418750763,9.886886596679688,-0.0335573652138144,-0.02086696777531509,0.012739412086124375,-80.1300621857749,-33.34808943535809,0,0.11611223220825195,2019-08-07 14:04:33:461
-0.1216796264052391,-0.27096831798553467,9.79349136352539,-0.0037226765831523197,0.00577114758435062,-0.006440030660745744,-74.94290764224525,-36.24864982369968,0,0.11984610557556152,2019-08-07 14:04:33:465
0.8577730059623718,-0.005151106510311365,9.891676902770996,-0.010115823905368035,-0.0008883811255286454,-0.0037762191247791726,-76.94476667155186,-39.121248774659065,0,0.12307024002075195,2019-08-07 14:04:33:468
-0.8688415288925171,-0.11052009463310242,10.095230102539062,-0.002390770685131872,-0.0019539056358855436,-0.005907268405567294,-71.90389780235908,-41.92584615796161,0,0.1262953281402588,2019-08-07 14:04:33:471
1.4492762088775635,0.11937587708234787,9.367226600646973,-0.026897835463637835,-0.0312558322714435,0.011673887575767478,-73.88397436141794,-37.49681444434549,0,0.1296837329864502,2019-08-07 14:04:33:474
0.8074832558631897,0.1505076289176941,9.3408842086792,0.030107728961348126,0.0169591554632467,-0.018160800794820277,-75.91052964752615,-33.170753505342425,0,0.13288569450378418,2019-08-07 14:04:33:478
-0.239022359251976,-0.2422313243150711,10.0617036819458,-0.040216894963990966,-0.024862683128707506,0.008477313524548133,-70.81534078297773,-36.07297044959396,0,0.13589072227478027,2019-08-07 14:04:33:481
0.02200535498559475,-0.12728333473205566,9.817439079284668,0.01332571636278103,0.00923410224301054,-0.01656251402928493,-72.99839451931429,-38.93943888241802,0,0.13961124420166016,2019-08-07 14:04:33:484
1.066116213798523,-0.021914353594183922,9.441463470458984,-0.019439163891139546,-0.01047810223888938,0.005547121121066663,-75.00778532923948,-41.75466584513242,0,0.14265704154968262,2019-08-07 14:04:33:487
-0.48568159341812134,0.04274388775229454,10.032966613769531,0.004268757764673068,0.0007099057700438648,-0.00617364953315652,-69.96319438305514,-37.325271632225736,0,0.14606618881225586,2019-08-07 14:04:33:491
0.8601677417755127,-0.10812534391880035,9.532464027404785,-0.017041733222687875,-0.011277246141805704,-0.0016451699740282137,-72.05852048589333,-40.162312930497535,0,0.14967775344848633,2019-08-07 14:04:33:494
0.6063242554664612,-0.12967808544635773,9.704886436462402,-0.0034562954555630953,0.00044352460994534954,-0.008304698553870315,-74.14592861252672,-42.943147567663274,0,0.15281128883361816,2019-08-07 14:04:33:498
0.17047983407974243,-0.06262510269880295,9.70249080657959,-0.016508970967509425,-0.011810008396984154,-0.0013787888464389891,-76.24081493343773,-45.67400508669671,0,0.15592169761657715,2019-08-07 14:04:33:501
0.1728745847940445,0.17206037044525146,9.927597999572754,0.007198950428228864,-0.0011547622531178697,-0.0013787888464389891,-78.29578671423162,-41.18200118343986,0,0.15992379188537598,2019-08-07 14:04:33:505
0.764377772808075,0.09542837738990784,9.436674118041992,0.005334282535104291,-8.92376858697129e-05,-0.005374506150388846,-80.23723737235477,-36.77089210470716,0,0.16307306289672852,2019-08-07 14:04:33:508
-0.1743641197681427,-0.16320458054542542,10.095230102539062,-0.008783917747273263,-0.009146196080794608,-0.0011124077188497644,-75.0507794933075,-39.615506634784495,0,0.1660003662109375,2019-08-07 14:04:33:511
0.5464555621147156,-0.27096831798553467,9.668964385986328,-0.011980492318641258,-0.011277246141805704,-0.005640887277978069,-77.08272627868074,-42.388601648986736,0,0.16970109939575195,2019-08-07 14:04:33:515
0.35966506600379944,0.04034913703799248,9.805465698242188,0.0024040898715484956,-0.0038185737890844406,-0.008038317426281092,-79.09838662074283,-37.94596788789582,0,0.17283391952514648,2019-08-07 14:04:33:518
0.10582159459590912,-0.06262510269880295,9.71207046508789,-0.010648586160546484,-0.009678958335973056,-4.688308251936486e-05,-81.10202590282503,-40.777560742460594,0,0.1763441562652588,2019-08-07 14:04:33:521
0.13216383755207062,0.037954386323690414,9.824623107910156,-0.005320963088613342,0.0015090491528115383,-0.0032434568696007235,-83.06485365098482,-36.365440135581,0,0.17967867851257324,2019-08-07 14:04:33:524
0.6254822611808777,-0.053046099841594696,9.601911544799805,-0.01331239743643873,-0.0022202867634747683,-0.002177932229206663,-84.92862406495192,-39.22945489758388,0,0.1828169822692871,2019-08-07 14:04:33:528
-0.05462663620710373,0.023585889488458633,9.846176147460938,-0.004788200833434893,0.001242668025222314,-0.00244431348683305,-79.63665437568878,-34.84666553696834,0,0.18633270263671875,2019-08-07 14:04:33:531
0.3692440688610077,0.03555963933467865,9.71207046508789,-0.007185631501886564,-0.0019539056358855436,0.0034160718402785413,-81.60000934056377,-30.552580920584283,0,0.18967103958129883,2019-08-07 14:04:33:534
0.37163880467414856,-0.053046099841594696,9.750386238098145,0.0024040898715484956,0.001242668025222314,-0.002977075742011499,-83.52457194180953,-33.53571794580753,0,0.19280338287353516,2019-08-07 14:04:33:538
0.23513807356357574,-0.14883609116077423,9.956335067749023,-0.008517537139832687,-0.008879815473354034,-0.00244431348683305,-85.42526387824067,-36.4461878077298,0,0.19633054733276367,2019-08-07 14:04:33:541
0.26866456866264343,-0.10812534391880035,9.755175590515137,-0.011181348415724934,-0.012076389004424728,-0.0027106946144222744,-87.28292948465638,-39.30245442855127,0,0.19968962669372559,2019-08-07 14:04:33:544
0.3764283061027527,-0.05544085055589676,9.827017784118652,-0.005587344736351217,-0.012342770652162603,-0.005374506150388846,-89.09122469921786,-42.108956920657796,0,0.20282483100891113,2019-08-07 14:04:33:548
0.13695333898067474,-0.05783560127019882,9.98267650604248,-0.009849443297927462,-0.009945339983710931,0.001285022689527582,-90.89169660831286,-44.858174358569066,0,0.2063770294189453,2019-08-07 14:04:33:551
0.21358533203601837,-0.009940605610609055,9.726438522338867,-0.005587344736351217,-0.0038185737890844406,-0.0035098379971899483,-92.6479948999354,-47.55880323810998,0,0.20968079566955566,2019-08-07 14:04:33:554
0.28063830733299255,0.016401641070842743,9.736018180847168,-0.0026571518127210965,-0.0038185737890844406,-0.004042600252368397,-94.36127989353946,-43.009047202542256,0,0.21310186386108398,2019-08-07 14:04:33:558
0.18245358765125275,-0.04107235372066498,9.69051742553711,-0.005054581961024118,-0.0003556188378409054,-0.004575362767621172,-96.05241166759454,-45.74301710130611,0,0.2165982723236084,2019-08-07 14:04:33:561
0.29979631304740906,0.02837538905441761,9.69051742553711,-0.0031899140678995457,-0.0006219999979394207,-0.0077719362986918665,-97.6958164892809,-41.230963599692046,0,0.21966099739074707,2019-08-07 14:04:33:564
0.39798104763031006,0.03555963933467865,9.71207046508789,-0.006386488119118891,-0.0008883811255286454,-0.007239174043513418,-99.29481314461383,-36.809418740557476,0,0.22278761863708496,2019-08-07 14:04:33:568
0.23274332284927368,-0.08178309351205826,9.85096549987793,-0.007452012629475789,-0.005949623069872562,-0.0077719362986918665,-100.88068967283155,-39.6622663195704,0,0.22625494003295898,2019-08-07 14:04:33:571
0.3237438201904297,-0.0267038531601429,9.83899211883545,-0.009849443297927462,-0.0056832419422833385,-0.00857107968145954,-102.42429153741509,-42.464017434668214,0,0.22967863082885742,2019-08-07 14:04:33:574
0.26148033142089844,-0.0075458562932908535,9.783912658691406,-0.0077183937570650145,-0.006748766452640236,-0.008304698553870315,-103.94400026455997,-45.212495161079026,0,0.23281240463256836,2019-08-07 14:04:33:578
0.14892709255218506,-0.06741459667682648,9.843781471252441,-0.005320963088613342,-0.0054168602945454634,-0.007505555171102641,-105.44671853731789,-47.89935009334332,0,0.23631858825683594,2019-08-07 14:04:33:581
0.2590855658054352,-0.0722040981054306,9.829413414001465,-0.0037226765831523197,-0.005949623069872562,-0.008837460809048764,-106.9064660003543,-50.53224432667012,0,0.23967385292053223,2019-08-07 14:04:33:584
0.22316433489322662,-0.02909860387444496,9.877307891845703,-0.004788200833434893,-0.0035521926614952163,-0.009103842456786639,-108.34182748789034,-53.117383539655734,0,0.2427983283996582,2019-08-07 14:04:33:588
0.2758488357067108,-0.07699359953403473,9.805465698242188,-0.007452012629475789,-0.008613434345764809,-0.009103842456786639,-109.74105809404927,-55.644563725029464,0,0.2463221549987793,2019-08-07 14:04:33:591
0.21598008275032043,-0.04346710070967674,9.755175590515137,-0.008783917747273263,-0.007281528707818685,-0.009370223064227214,-111.11949404257692,-58.12490611857426,0,0.24968862533569336,2019-08-07 14:04:33:594
0.3500860631465912,0.030770137906074524,9.870123863220215,-0.006120106991529666,-0.0046177169117777896,-0.004042600252368397,-112.45566559991302,-53.364905773676206,0,0.25281572341918945,2019-08-07 14:04:33:598
0.199216827750206,-0.038677603006362915,9.771939277648926,-0.008783917747273263,-0.004884098039367014,-0.008304698553870315,-113.78223080448505,-55.89133951894692,0,0.2563285827636719,2019-08-07 14:04:33:601
0.28782257437705994,-0.03388810157775879,9.779123306274414,-0.007452012629475789,-0.005949623069872562,-0.00963660471196509,-115.07174517168968,-58.36813421081581,0,0.2596924304962158,2019-08-07 14:04:33:604
0.26626983284950256,0.02837538905441761,9.882097244262695,-0.010115823905368035,-0.0035521926614952163,-0.00963660471196509,-116.3388190374278,-53.60228948548152,0,0.26281285285949707,2019-08-07 14:04:33:608
0.2566908299922943,-0.03388810157775879,9.862939834594727,-0.005587344736351217,-0.0054168602945454634,-0.012566796595297908,-117.58115807607285,-56.12520489578156,0,0.2663240432739258,2019-08-07 14:04:33:611
0.199216827750206,-0.05544085055589676,9.78151798248291,-0.004788200833434893,-0.0054168602945454634,-0.010169366967143538,-118.80518197456666,-58.595306324906566,0,0.2696700096130371,2019-08-07 14:04:33:614
0.24232232570648193,-0.03628285229206085,9.795886039733887,-0.008251156012243464,-0.004884098039367014,-0.010702129222321988,-119.99988023883233,-61.017707750461334,0,0.2727956771850586,2019-08-07 14:04:33:618
0.19442732632160187,-0.0267038531601429,9.82222843170166,-0.005853725863940442,-0.007281528707818685,-0.013365940498214234,-121.1757752408232,-63.393090687488325,0,0.2762868404388428,2019-08-07 14:04:33:621
0.20400632917881012,-0.02909860387444496,9.829413414001465,-0.0037226765831523197,0.00044352460994534954,-0.011234891477500435,-122.32856454181346,-65.72112729331032,0,0.2796800136566162,2019-08-07 14:04:33:624
0.30698058009147644,0.037954386323690414,9.747991561889648,-0.005054581961024118,-0.003019430146242442,-0.013099558850476358,-123.4453871107397,-60.81027707407701,0,0.28281354904174805,2019-08-07 14:04:33:628
0.20879583060741425,-0.031493354588747025,9.771939277648926,-0.0029235329403103213,-0.005150479166956239,-0.010702129222321988,-124.55098088625142,-63.18980085156359,0,0.2863321304321289,2019-08-07 14:04:33:631
0.22795382142066956,0.009217391721904278,9.724043846130371,-0.008517537139832687,-0.004084954916673665,-0.010702129222321988,-125.63233513203639,-58.325489324777045,0,0.28968119621276855,2019-08-07 14:04:33:634
0.25429606437683105,-0.017124855890870094,9.855754852294922,-0.008251156012243464,-0.0064823853250510115,-0.01602975177410648,-126.68899140538305,-60.755541324251794,0,0.2928047180175781,2019-08-07 14:04:33:638
0.23992757499217987,-0.031493354588747025,9.853360176086426,-0.008783917747273263,-0.007015147580229461,-0.012833178243035783,-127.72592443015355,-63.135027688468746,0,0.29633307456970215,2019-08-07 14:04:33:641
0.25429606437683105,-0.10333584249019623,9.764754295349121,-0.005853725863940442,-0.0056832419422833385,-0.013099558850476358,-128.74049877900723,-65.4590970499151,0,0.29969143867492676,2019-08-07 14:04:33:644
0.22795382142066956,0.004427892155945301,9.803071022033691,-0.0077183937570650145,-0.0054168602945454634,-0.012833178243035783,-129.7380950640978,-60.54907590801652,0,0.3028221130371094,2019-08-07 14:04:33:648
0.26148033142089844,-0.04825660213828087,9.81025505065918,-0.006120106991529666,-0.007281528707818685,-0.014697845616011706,-130.71135150914975,-62.93124240019102,0,0.30635857582092285,2019-08-07 14:04:33:651
0.22076958417892456,-0.045861851423978806,9.774333953857422,-0.008517537139832687,-0.003019430146242442,-0.013632321105654805,-131.670642368846,-65.26553676193275,0,0.3099217414855957,2019-08-07 14:04:33:655
0.25429606437683105,-0.07459884881973267,9.82222843170166,-0.004788200833434893,-0.0038185737890844406,-0.016296132381547052,-132.6068992978238,-67.55068387574708,0,0.31304311752319336,2019-08-07 14:04:33:658
0.25429606437683105,-0.045861851423978806,9.800676345825195,-0.008251156012243464,-0.0035521926614952163,-0.01602975177410648,-133.52433530409093,-69.79268233927567,0,0.31655192375183105,2019-08-07 14:04:33:661
0.2375328242778778,-0.0027563569601625204,9.836597442626953,-0.007185631501886564,-0.0054168602945454634,-0.015230607871190155,-134.4252357129852,-71.99525156864719,0,0.31966495513916016,2019-08-07 14:04:33:664
0.2183748334646225,-0.038677603006362915,9.867729187011719,-0.007185631501886564,-0.005150479166956239,-0.013898702753392682,-135.31047157986677,-74.14959351867617,0,0.32279157638549805,2019-08-07 14:04:33:668
0.2758488357067108,-0.02909860387444496,9.829413414001465,-0.005320963088613342,-0.0056832419422833385,-0.013365940498214234,-136.17099706760806,-76.26216542098953,0,0.32628560066223145,2019-08-07 14:04:33:671
-0.2007063627243042,-0.045861851423978806,9.836597442626953,0.001338565231154435,-0.011010864494067829,-0.029082428586424434,-129.868856746,-78.33183457288432,0,0.3296797275543213,2019-08-07 14:04:33:674
0.21598008275032043,-0.06501984596252441,10.10241413116455,-0.030360791682743703,0.012430675774081235,0.00714540788660201,-130.8491705644508,-80.35248413371255,0,0.3328113555908203,2019-08-07 14:04:33:678
0.20879583060741425,0.3516665995121002,9.084646224975586,0.06633556439407727,0.017225537110984575,-0.051991204518800446,-131.80924853934798,-75.20284006596367,0,0.336320161819458,2019-08-07 14:04:33:681
-1.364554762840271,-0.8145765066146851,11.153709411621094,-0.08603445098993219,-0.03978002835429869,0.011407505928029603,-125.7050692870226,-77.19903680925718,0,0.3396749496459961,2019-08-07 14:04:33:684
1.9880948066711426,0.3325085937976837,8.876302719116211,-0.044478993005418556,-0.03898088445138236,-0.0027106946144222744,-126.53164288104486,-72.09016610601202,0,0.34279656410217285,2019-08-07 14:04:33:688
-0.2198643684387207,0.09542837738990784,10.052124977111816,-0.021570212911853345,-0.01687124930103077,-0.001911551101617438,-120.42276206202924,-67.05501179970196,0,0.34628844261169434,2019-08-07 14:04:33:691
0.13216383755207062,-0.39070579409599304,9.83899211883545,-0.026897835463637835,-0.020600585087279914,-0.0011124077188497644,-121.59498596353573,-69.26330107508439,0,0.3496851921081543,2019-08-07 14:04:33:694
-0.28931209444999695,0.10740213096141815,9.829413414001465,0.030107728961348126,0.014028962539616583,-0.0389385318676717,-115.59952874604974,-64.29640187015005,0,0.35314345359802246,2019-08-07 14:04:33:698
1.6743826866149902,-0.12249384075403214,9.417515754699707,-0.040749656178872114,-0.012609151259603176,-0.0013787888464389891,-116.68407494385428,-66.58964698423829,0,0.3557319641113281,2019-08-07 14:04:33:701
-0.239022359251976,0.08824413269758224,9.86054515838623,0.007998093810996537,-0.0027530490186532175,-0.016296132381547052,-110.77757684682766,-61.669818431287425,0,0.3595387935638428,2019-08-07 14:04:33:704
1.0996427536010742,-0.09615159779787064,9.348068237304688,-0.018906402676258396,-0.012076389004424728,-0.010702129222321988,-112.02553889421793,-64.02102666095959,0,0.36293864250183105,2019-08-07 14:04:33:708
0.1201900914311409,-0.07699359953403473,9.762359619140625,-0.0039890577107415445,-0.007814290962997135,-0.02082461311100982,-113.36937600097484,-66.33078013872952,0,0.36645936965942383,2019-08-07 14:04:33:711
-0.2917068600654602,-0.1320728361606598,10.13115119934082,-0.019172783283698973,-0.0027530490186532175,-0.013898702753392682,-107.53447535142176,-68.58575567434802,0,0.36968374252319336,2019-08-07 14:04:33:714
0.5656135082244873,0.06429663300514221,9.862939834594727,-0.019439163891139546,-0.012875532907341052,-0.004841743895210396,-108.91587847451387,-63.61809250160495,0,0.3728153705596924,2019-08-07 14:04:33:718
0.053137101233005524,0.05471763759851456,9.843781471252441,0.005334282535104291,0.002308192665616375,-0.018160800794820277,-110.33183132540964,-58.75315422589136,0,0.37633419036865234,2019-08-07 14:04:33:721
0.2566908299922943,-0.2039153277873993,9.829413414001465,-0.03595479276137417,-0.017670392163649795,-0.005374506150388846,-111.69196509590928,-61.14758434987001,0,0.379671573638916,2019-08-07 14:04:33:724
0.38600730895996094,0.03555963933467865,9.618675231933594,0.004535139152336618,0.002840954920794824,-0.023222042739164193,-113.01266240684988,-56.3296651470753,0,0.3827979564666748,2019-08-07 14:04:33:728
0.659008800983429,-0.04107235372066498,9.568385124206543,-0.026897835463637835,-0.015006581928054848,-0.004042600252368397,-114.27064448192283,-58.79283707602925,0,0.38631772994995117,2019-08-07 14:04:33:731
-0.4234180748462677,-0.0267038531601429,10.01141357421875,0.003203233254316169,-0.0022202867634747683,-0.019226325305177174,-108.43324693261194,-61.21453062065031,0,0.3896915912628174,2019-08-07 14:04:33:734
0.25429606437683105,0.06669138371944427,9.714465141296387,-0.006652869246708115,-0.0056832419422833385,-0.014431465008571131,-109.83358808900563,-56.396931415928364,0,0.3928380012512207,2019-08-07 14:04:33:738
0.244717076420784,0.025980640202760696,9.86054515838623,0.001871327486332884,0.0036400983035624977,-0.014697845616011706,-111.20920324519352,-51.67238228809735,0,0.3963615894317627,2019-08-07 14:04:33:741
0.07708460092544556,-0.12728333473205566,9.755175590515137,-0.018373639380782646,-0.011277246141805704,-0.012300415987857336,-112.57386277810994,-54.22055967914682,0,0.39968061447143555,2019-08-07 14:04:33:744
0.37882307171821594,-0.0027563569601625204,9.76954460144043,-0.01144773006346281,-0.0056832419422833385,-0.012300415987857336,-113.87697465018151,-56.73381251163316,0,0.40281176567077637,2019-08-07 14:04:33:748
0.3021910786628723,0.02119114063680172,9.613885879516602,-0.004521819705845669,-0.006748766452640236,-0.013632321105654805,-115.16206717595902,-52.000750522770474,0,0.4064021110534668,2019-08-07 14:04:33:751
0.06511084735393524,-0.05783560127019882,9.925203323364258,-0.015443446457152525,-0.0064823853250510115,-0.01150127208494101,-116.4501178399078,-54.55122143613922,0,0.40967345237731934,2019-08-07 14:04:33:754
0.39798104763031006,-0.053046099841594696,9.673754692077637,-0.0039890577107415445,-0.007015147580229461,-0.014964227263749581,-117.67276577303375,-57.05321231699827,0,0.41280364990234375,2019-08-07 14:04:33:758
0.244717076420784,-0.0722040981054306,9.877307891845703,-0.01331239743643873,-0.0064823853250510115,-0.013099558850476358,-118.88965191173355,-59.50115615342149,0,0.4163024425506592,2019-08-07 14:04:33:761
0.12976908683776855,-0.038677603006362915,9.829413414001465,-0.009583061650189587,-0.005150479166956239,-0.010968509829762562,-120.09575469449686,-61.90480703609254,0,0.4196791648864746,2019-08-07 14:04:33:764
0.26626983284950256,0.009217391721904278,9.7982816696167,-0.002390770685131872,-0.0038185737890844406,-0.011767653732678886,-121.26203495907609,-57.06736822484586,0,0.42281270027160645,2019-08-07 14:04:33:768
0.29261207580566406,-0.06262510269880295,9.7982816696167,-0.009050299395011138,-0.0014211433807070943,-0.013365940498214234,-122.40230232536392,-59.516907894854796,0,0.4263331890106201,2019-08-07 14:04:33:771
0.09624259918928146,-0.13446758687496185,9.889281272888184,-0.01038220555310591,-0.0035521926614952163,-0.012566796595297908,-123.54243843343176,-61.909042382872656,0,0.4296729564666748,2019-08-07 14:04:33:774
0.3620598018169403,-0.053046099841594696,9.736018180847168,-0.014910684201974079,-0.0046177169117777896,-0.009902985319405663,-124.62818523799214,-64.26200223232489,0,0.4327974319458008,2019-08-07 14:04:33:778
0.26626983284950256,0.04274388775229454,9.82222843170166,-0.005054581961024118,-0.0038185737890844406,-0.010435747574584113,-125.70380989137217,-59.38074986600095,0,0.43631744384765625,2019-08-07 14:04:33:781
0.15371659398078918,-0.012335355393588543,9.889281272888184,-0.009583061650189587,-0.00435133604426289,-0.012300415987857336,-126.77110001668768,-61.78989239245879,0,0.43968701362609863,2019-08-07 14:04:33:784
0.2710593342781067,-0.045861851423978806,9.654596328735352,-0.007452012629475789,-0.005949623069872562,-0.01150127208494101,-127.80246784458807,-64.1473407222324,0,0.44281888008117676,2019-08-07 14:04:33:788
0.3357175588607788,0.011612141504883766,9.7982816696167,-0.008517537139832687,-0.003019430146242442,-0.01150127208494101,-128.80657535023528,-59.26407041750666,0,0.4463348388671875,2019-08-07 14:04:33:791
0.1201900914311409,-0.08178309351205826,9.86054515838623,-0.0077183937570650145,-0.0056832419422833385,-0.012300415987857336,-129.81540931448288,-61.667835040141014,0,0.4496805667877197,2019-08-07 14:04:33:794
0.192032590508461,-0.021914353594183922,9.745596885681152,-0.006386488119118891,-0.0038185737890844406,-0.013632321105654805,-130.7958531468968,-64.03077910012395,0,0.45281076431274414,2019-08-07 14:04:33:798
0.20879583060741425,-0.0003616072062868625,9.786307334899902,-0.007185631501886564,0.00044352460994534954,-0.015230607871190155,-131.75557882948092,-66.34869989096823,0,0.4563333988189697,2019-08-07 14:04:33:801
0.23034857213497162,-0.04107235372066498,9.788702011108398,-0.011181348415724934,-0.005949623069872562,-0.011234891477500435,-132.69239080694788,-68.61482112079018,0,0.4596729278564453,2019-08-07 14:04:33:804
0.29500681161880493,-0.06262510269880295,9.81025505065918,-0.007185631501886564,-0.0038185737890844406,-0.011767653732678886,-133.6034182785105,-70.83393769895822,0,0.4628255367279053,2019-08-07 14:04:33:808
0.2375328242778778,-0.06501984596252441,9.78151798248291,-0.005853725863940442,-0.0027530490186532175,-0.013365940498214234,-134.50298441959023,-73.00848579439126,0,0.4663429260253906,2019-08-07 14:04:33:811
0.21358533203601837,-0.08657259494066238,9.786307334899902,-0.01038220555310591,-0.004084954916673665,-0.007505555171102641,-135.38715413288725,-75.13623478453027,0,0.4696784019470215,2019-08-07 14:04:33:814
0.28782257437705994,-0.06262510269880295,9.771939277648926,-0.006120106991529666,-0.004084954916673665,-0.007505555171102641,-136.24495203433563,-77.22509220193287,0,0.47280430793762207,2019-08-07 14:04:33:818
0.2111905813217163,-0.031493354588747025,9.815044403076172,-0.009583061650189587,-0.0024866678910639927,-0.009902985319405663,-137.09491091198078,-79.2750282692178,0,0.47630786895751953,2019-08-07 14:04:33:821
0.192032590508461,-0.06980934739112854,9.8797025680542,-0.01038220555310591,-0.0019539056358855436,-0.010702129222321988,-137.93037264037557,-81.2794669666957,0,0.4796767234802246,2019-08-07 14:04:33:824
0.2590855658054352,-0.0027563569601625204,9.721649169921875,-0.008517537139832687,-0.0046177169117777896,-0.0077719362986918665,-138.74042129448287,-83.25205488662951,0,0.48280858993530273,2019-08-07 14:04:33:828
0.2758488357067108,0.009217391721904278,9.726438522338867,-0.008517537139832687,-0.0054168602945454634,-0.010169366967143538,-139.53205390755684,-77.98641933396425,0,0.48632216453552246,2019-08-07 14:04:33:831
0.23034857213497162,-0.06262510269880295,9.774333953857422,-0.009050299395011138,-0.0064823853250510115,-0.006440030660745744,-140.3131923532836,-80.017645696799,0,0.48967409133911133,2019-08-07 14:04:33:834
0.27345407009124756,-0.005151106510311365,9.733622550964355,-0.011181348415724934,-0.0011547622531178697,-0.008038317426281092,-141.07454099315854,-82.01472171884453,0,0.49280333518981934,2019-08-07 14:04:33:838
0.23274332284927368,-0.012335355393588543,9.776728630065918,-0.007185631501886564,-0.0054168602945454634,-0.008837460809048764,-141.8247068668568,-83.97156346230372,0,0.49631786346435547,2019-08-07 14:04:33:841
0.16808508336544037,-0.06501984596252441,9.786307334899902,-0.009849443297927462,-0.004084954916673665,-0.011234891477500435,-142.56776089216865,-85.88265734084808,0,0.49968385696411133,2019-08-07 14:04:33:844
0.29979631304740906,-0.06501984596252441,9.776728630065918,-0.010914967808284359,-0.003019430146242442,-0.00857107968145954,-143.28074694952141,-87.75546369685205,0,0.5028162002563477,2019-08-07 14:04:33:848
0.26148033142089844,-0.019519604742527008,9.776728630065918,-0.01277963518126028,-0.003285811533905992,-0.010169366967143538,-143.9838414178338,-89.5955377824097,0,0.5063402652740479,2019-08-07 14:04:33:851
0.146532341837883,0.004427892155945301,9.915623664855957,-0.007452012629475789,-0.004884098039367014,-0.006706411788334968,-144.6863116110626,-84.20273510105613,0,0.5096948146820068,2019-08-07 14:04:33:854
0.24711182713508606,-0.07459884881973267,9.683333396911621,-0.007984774884654239,-0.0046177169117777896,-0.008304698553870315,-145.362539135574,-86.10845263882979,0,0.5128173828125,2019-08-07 14:04:33:858
0.20640107989311218,-0.08178309351205826,9.700096130371094,-0.006919250374297341,-0.0064823853250510115,-0.009370223064227214,-146.0296324067113,-87.97525983828436,0,0.516324520111084,2019-08-07 14:04:33:861
0.18005883693695068,-0.05783560127019882,9.726438522338867,-0.010115823905368035,-0.0035521926614952163,-0.007505555171102641,-146.68716160044596,-89.80704128071908,0,0.5196688175201416,2019-08-07 14:04:33:864
0.20161157846450806,-0.05783560127019882,9.764754295349121,-0.008517537139832687,-0.003285811533905992,-0.00617364953315652,-147.32918346087442,-91.60261327586035,0,0.5228054523468018,2019-08-07 14:04:33:868
0.22076958417892456,-0.0027563569601625204,9.779123306274414,-0.006919250374297341,-0.007015147580229461,-0.008038317426281092,-147.9553522410523,-93.36887470466384,0,0.5263144969940186,2019-08-07 14:04:33:871
0.2375328242778778,0.009217391721904278,9.791096687316895,-0.005587344736351217,-0.003019430146242442,-0.008038317426281092,-148.56788012934527,-87.90152027203634,0,0.529679536819458,2019-08-07 14:04:33:874
0.2255590856075287,-0.07699359953403473,9.7982816696167,-0.006386488119118891,-0.0054168602945454634,-0.005907268405567294,-149.16919597597877,-89.73336327977987,0,0.5328092575073242,2019-08-07 14:04:33:878
0.2638750672340393,-0.0722040981054306,9.747991561889648,-0.005587344736351217,-0.004884098039367014,-0.012034034340119461,-149.75383511421535,-91.5291044076725,0,0.5363278388977051,2019-08-07 14:04:33:881
0.24711182713508606,-0.014730105176568031,9.704886436462402,-0.005320963088613342,-0.004084954916673665,-0.0051081250227996205,-150.32881863832634,-93.29578258435096,0,0.5396764278411865,2019-08-07 14:04:33:884
0.28782257437705994,-0.014730105176568031,9.800676345825195,-0.009583061650189587,-0.005150479166956239,-0.009370223064227214,-150.8876937994617,-95.02646021044706,0,0.54280686378479,2019-08-07 14:04:33:888
0.3093753159046173,-0.08896734565496445,9.719254493713379,-0.008783917747273263,-0.006216004197461787,-0.006972792915924193,-151.43224939182647,-96.71370801619865,0,0.5463223457336426,2019-08-07 14:04:33:891
0.27345407009124756,-0.03628285229206085,9.7982816696167,-0.008517537139832687,-0.0064823853250510115,-0.007505555171102641,-151.97040845756703,-98.37358280873092,0,0.5496840476989746,2019-08-07 14:04:33:894
0.2255590856075287,-0.031493354588747025,9.791096687316895,-0.010648586160546484,-0.0019539056358855436,-0.007239174043513418,-152.5042620836085,-100.00054927713676,0,0.5528216361999512,2019-08-07 14:04:33:898
0.20879583060741425,-0.005151106510311365,9.707281112670898,-0.005587344736351217,-0.006748766452640236,-0.005374506150388846,-153.02817446089466,-101.59880554506019,0,0.5564064979553223,2019-08-07 14:04:33:901
-0.07378463447093964,-0.03628285229206085,9.776728630065918,0.0021377086139221083,-0.008080672090586358,-0.02775052138803236,-146.37477328546106,-103.16296983321821,0,0.5596809387207031,2019-08-07 14:04:33:904
0.0076368567533791065,-0.1512308418750763,10.13115119934082,-0.026897835463637835,0.010832389008545886,0.005547121121066663,-147.0483138713706,-104.67788878322095,0,0.5628044605255127,2019-08-07 14:04:33:908
2.2946228981018066,0.5911415815353394,8.864328384399414,0.06313898878241198,0.015627249305151927,-0.04772910647737286,-147.4201578054816,-99.07304394869331,0,0.5663042068481445,2019-08-07 14:04:33:911
-1.6327667236328125,-0.8528925180435181,11.160893440246582,-0.0703179639420193,-0.02672735154198073,0.014604079459100298,-141.03314740291782,-100.59085478310438,0,0.5696802139282227,2019-08-07 14:04:33:914
2.1150166988372803,0.2486923635005951,8.909829139709473,-0.0639248168798779,-0.05070165614590284,0.011141125320589031,-141.5364899243812,-94.99976777546145,0,0.5728135108947754,2019-08-07 14:04:33:918
-0.13844287395477295,0.19121836125850677,9.951544761657715,-0.011714110670903381,-0.014740200280316973,0.00048587920923203625,-135.118784591393,-89.5194709447324,0,0.5763368606567383,2019-08-07 14:04:33:921
0.15611134469509125,-0.39070579409599304,9.92999267578125,-0.040216894963990966,-0.024329921913826363,0.010874743672851154,-135.99383399552391,-91.27647792148495,0,0.5796756744384766,2019-08-07 14:04:33:924
-0.34199661016464233,0.06429663300514221,9.95872974395752,0.038099161748727566,0.010566008401105312,-0.03760662258868502,-129.71514801962252,-85.86503122903815,0,0.5828003883361816,2019-08-07 14:04:33:928
0.8194569945335388,-0.06262510269880295,9.58035945892334,-0.02316850071768599,-0.007547909835407911,-0.005374506150388846,-130.62157117605454,-87.73564844647632,0,0.5863299369812012,2019-08-07 14:04:33:931
-1.1131060123443604,0.13374437391757965,10.25088882446289,0.007998093810996537,-0.0027530490186532175,-0.012034034340119461,-124.53256648233112,-82.39739147038358,0,0.5896832942962646,2019-08-07 14:04:33:934
0.9487735033035278,-0.10573059320449829,9.451042175292969,-0.01331239743643873,-0.011010864494067829,-0.006440030660745744,-125.52532504265864,-84.3342817828464,0,0.5928175449371338,2019-08-07 14:04:33:938
0.26866456866264343,-0.13925708830356598,9.762359619140625,-0.00425543883833077,-0.003285811533905992,-0.014964227263749581,-126.58264081581592,-86.23040986800238,0,0.5963382720947266,2019-08-07 14:04:33:941
-0.2198643684387207,-0.12009909003973007,9.76954460144043,-0.012513254573819707,-0.006216004197461787,-0.009370223064227214,-120.4756057306628,-88.08936647164317,0,0.5996813774108887,2019-08-07 14:04:33:944
0.45066556334495544,0.05711238458752632,9.86054515838623,-0.01970554449858012,-0.014473819672876401,-0.001911551101617438,-121.61088640273245,-82.73030774066238,0,0.6032137870788574,2019-08-07 14:04:33:948
0.10582159459590912,0.06908613443374634,9.846176147460938,0.013592098010518902,0.006037528711939843,-0.018693564090296027,-122.76724130971499,-77.4857406495073,0,0.6058328151702881,2019-08-07 14:04:33:951
-0.004336891695857048,-0.23265232145786285,10.116783142089844,-0.037286702040360845,-0.015272962535495423,0.0034160718402785413,-116.709077482025,-79.50159678179793,0,0.6096928119659424,2019-08-07 14:04:33:954
0.3237438201904297,0.0020331426057964563,9.656991004943848,-0.0039890577107415445,-0.004084954916673665,-0.012034034340119461,-117.93577796968117,-74.31110658707118,0,0.6128158569335938,2019-08-07 14:04:33:958
0.6063242554664612,-0.053046099841594696,9.736018180847168,-0.022902118029650816,-0.011010864494067829,-0.00031326423855421875,-119.10362896597714,-76.41414424358446,0,0.6163127422332764,2019-08-07 14:04:33:961
-0.3563650846481323,-0.02909860387444496,10.092835426330566,-0.0031899140678995457,-0.004884098039367014,-0.010702129222321988,-113.16107690874178,-78.48195443407089,0,0.6196801662445068,2019-08-07 14:04:33:964
0.3045858144760132,-0.017124855890870094,9.750386238098145,-0.0013252461747749735,-0.0064823853250510115,-0.009103842456786639,-114.46093099581523,-80.51006978525874,0,0.6228108406066895,2019-08-07 14:04:33:968
0.3021910786628723,-0.031493354588747025,9.819833755493164,0.0021377086139221083,-0.0006219999979394207,-0.007505555171102641,-115.73633684773858,-82.49661525880128,0,0.6263260841369629,2019-08-07 14:04:33:971
0.11779534071683884,-0.12728333473205566,9.834202766418457,-0.01384515969161718,-0.008613434345764809,-0.009902985319405663,-117.0062668202787,-84.42925148747116,0,0.629671573638916,2019-08-07 14:04:33:974
0.3572703003883362,-0.06501984596252441,9.882097244262695,-0.01331239743643873,-0.0056832419422833385,-0.006440030660745744,-118.22373216874318,-86.33078751406617,0,0.6328012943267822,2019-08-07 14:04:33:978
0.31895431876182556,-0.03628285229206085,9.671359062194824,-0.0029235329403103213,-0.004884098039367014,-0.011234891477500435,-119.42051456058194,-88.19929504018157,0,0.6363208293914795,2019-08-07 14:04:33:981
0.08426884561777115,-0.06501984596252441,9.910834312438965,-0.01331239743643873,-0.008347053218175584,-0.002177932229206663,-120.6207827523798,-90.02527419745844,0,0.6396884918212891,2019-08-07 14:04:33:984
0.4530602991580963,-0.0027563569601625204,9.673754692077637,-0.01038220555310591,-0.007281528707818685,-0.008038317426281092,-121.7534589048148,-91.82261770594116,0,0.6428182125091553,2019-08-07 14:04:33:988
0.2830330729484558,-0.019519604742527008,9.836597442626953,-0.008783917747273263,-0.0038185737890844406,-0.006440030660745744,-122.884673751616,-93.58215905362869,0,0.6463305950164795,2019-08-07 14:04:33:991
0.15132184326648712,-0.0722040981054306,9.800676345825195,-0.01277963518126028,-0.009412577728532483,-0.008837460809048764,-124.00751008980988,-95.29965876115608,0,0.6496961116790771,2019-08-07 14:04:33:994
0.21358533203601837,-0.009940605610609055,9.759964942932129,-0.0026571518127210965,0.00044352460994534954,-0.007239174043513418,-125.10236440406727,-96.99203400148491,0,0.6528091430664062,2019-08-07 14:04:33:998
0.2566908299922943,-0.11530959606170654,9.803071022033691,-0.0077183937570650145,0.00044352460994534954,-0.0077719362986918665,-126.17040593319253,-98.63719298374292,0,0.6563210487365723,2019-08-07 14:04:34:001
0.053137101233005524,-0.10573059320449829,9.932387351989746,-0.007452012629475789,-0.0038185737890844406,-0.006972792915924193,-127.2401482560939,-100.2508479321505,0,0.659674882888794,2019-08-07 14:04:34:004
0.37882307171821594,-0.0267038531601429,9.767149925231934,-0.01038220555310591,-0.004884098039367014,-0.004841743895210396,-128.25006665663483,-101.84087821892263,0,0.6627964973449707,2019-08-07 14:04:34:008
0.23274332284927368,0.004427892155945301,9.714465141296387,-0.00425543883833077,-0.007281528707818685,-0.005640887277978069,-129.25618953378878,-96.20374917958753,0,0.6662859916687012,2019-08-07 14:04:34:011
0.2255590856075287,-0.019519604742527008,9.86054515838623,-0.009583061650189587,-0.009412577728532483,-0.008038317426281092,-130.24306589271964,-97.87558162617111,0,0.6696760654449463,2019-08-07 14:04:34:014
0.20879583060741425,-0.06262510269880295,9.73122787475586,-0.009849443297927462,-0.0022202867634747683,-0.008038317426281092,-131.21323071026123,-99.5089629907061,0,0.6728088855743408,2019-08-07 14:04:34:018
0.2902173101902008,-0.08178309351205826,9.774333953857422,-0.009316680002451712,-0.0056832419422833385,-0.005907268405567294,-132.15382679081324,-101.10735163977421,0,0.6763343811035156,2019-08-07 14:04:34:021
0.15371659398078918,-0.04346710070967674,9.704886436462402,-0.008783917747273263,-0.006216004197461787,-0.00617364953315652,-133.09143658684144,-102.67842604585185,0,0.6796720027923584,2019-08-07 14:04:34:024
0.25429606437683105,0.006822641938924789,9.73122787475586,-0.007984774884654239,-0.0035521926614952163,-0.008038317426281092,-133.99904621697684,-97.02425956104294,0,0.6827976703643799,2019-08-07 14:04:34:028
0.2902173101902008,-0.06501984596252441,9.728833198547363,-0.006652869246708115,-0.0024866678910639927,-0.009370223064227214,-134.88440537415144,-98.67481407464392,0,0.6862831115722656,2019-08-07 14:04:34:031
0.2375328242778778,-0.06980934739112854,9.889281272888184,-0.0037226765831523197,-0.005949623069872562,-0.005640887277978069,-135.7580611767519,-100.29251714419924,0,0.6896877288818359,2019-08-07 14:04:34:034
0.19682207703590393,-0.13446758687496185,9.747991561889648,-0.009050299395011138,-0.0019539056358855436,-0.010702129222321988,-136.61942232078025,-101.86926931059,0,0.6928191184997559,2019-08-07 14:04:34:038
0.2974015772342682,-0.02909860387444496,9.846176147460938,-0.004521819705845669,-8.92376858697129e-05,-0.007505555171102641,-137.45241768523667,-103.42775850412262,0,0.6957292556762695,2019-08-07 14:04:34:041
0.19442732632160187,-0.05783560127019882,9.834202766418457,-0.009583061650189587,-0.0056832419422833385,-0.00857107968145954,-138.27967863446557,-104.95071343108819,0,0.6989829540252686,2019-08-07 14:04:34:044
0.2854278087615967,-0.038677603006362915,9.836597442626953,-0.0077183937570650145,-0.0046177169117777896,-0.008304698553870315,-139.07988958844666,-106.44559909108398,0,0.7026617527008057,2019-08-07 14:04:34:047
0.3045858144760132,-0.0027563569601625204,9.714465141296387,-0.0077183937570650145,-0.0054168602945454634,-0.007239174043513418,-139.86124352187417,-107.9147501651996,0,0.7063808441162109,2019-08-07 14:04:34:051
0.23274332284927368,-0.04107235372066498,9.762359619140625,-0.007984774884654239,-0.007281528707818685,-0.006706411788334968,-140.63535974910465,-109.3501598003819,0,0.7096691131591797,2019-08-07 14:04:34:054
0.2638750672340393,-0.024309104308485985,9.834202766418457,-0.005587344736351217,-0.006216004197461787,-0.00963660471196509,-141.39081684893918,-110.75933937797423,0,0.7128076553344727,2019-08-07 14:04:34:058
0.28782257437705994,0.009217391721904278,9.791096687316895,-0.01038220555310591,-0.0054168602945454634,-0.005374506150388846,-142.12841656044338,-104.94349122701938,0,0.7157926559448242,2019-08-07 14:04:34:061
0.2255590856075287,-0.08417784422636032,9.831808090209961,-0.007452012629475789,-0.004084954916673665,-0.0077719362986918665,-142.8586725086239,-106.43318514535245,0,0.719677209854126,2019-08-07 14:04:34:064
0.20161157846450806,-0.06262510269880295,9.786307334899902,-0.006652869246708115,-0.0022202867634747683,-0.004308981379957623,-143.5775040760677,-107.89601735363772,0,0.7228124141693115,2019-08-07 14:04:34:068
0.21358533203601837,0.009217391721904278,9.786307334899902,-0.009050299395011138,-0.004084954916673665,-0.007239174043513418,-144.28022184048547,-102.1375664802994,0,0.725980281829834,2019-08-07 14:04:34:071
0.20640107989311218,-0.0267038531601429,9.673754692077637,-0.007185631501886564,-0.0024866678910639927,-0.007239174043513418,-144.96962026545788,-103.69005864114034,0,0.7299292087554932,2019-08-07 14:04:34:075
0.28063830733299255,-0.0267038531601429,9.767149925231934,-0.0077183937570650145,-0.0027530490186532175,-0.005907268405567294,-145.63682574685924,-105.21176273577998,0,0.7330713272094727,2019-08-07 14:04:34:078
0.17047983407974243,-0.06262510269880295,9.870123863220215,-0.008251156012243464,-0.0024866678910639927,-0.009370223064227214,-146.3038584047378,-106.69879623319726,0,0.7362239360809326,2019-08-07 14:04:34:081
0.20879583060741425,-0.014730105176568031,9.738412857055664,-0.008517537139832687,-0.004884098039367014,-0.008038317426281092,-146.95226865106898,-108.16143479085389,0,0.7396786212921143,2019-08-07 14:04:34:084
0.24232232570648193,0.004427892155945301,9.683333396911621,-0.010115823905368035,-0.00435133604426289,-0.005907268405567294,-147.58371216311807,-102.39677513137079,0,0.7431204319000244,2019-08-07 14:04:34:088
0.27345407009124756,-0.0267038531601429,9.762359619140625,-0.0077183937570650145,-0.003019430146242442,-0.0051081250227996205,-148.19937065503188,-103.94422928537644,0,0.746525764465332,2019-08-07 14:04:34:091
0.23274332284927368,-0.08178309351205826,9.791096687316895,-0.007185631501886564,-0.007547909835407911,-0.006706411788334968,-148.80670113418543,-105.45439503013401,0,0.7499418258666992,2019-08-07 14:04:34:095
0.2830330729484558,0.004427892155945301,9.884491920471191,-0.006386488119118891,-0.004884098039367014,-0.0077719362986918665,-149.39675126021302,-99.74449636577154,0,0.7536342144012451,2019-08-07 14:04:34:098
0.27345407009124756,-0.009940605610609055,9.853360176086426,-0.007984774884654239,-0.0054168602945454634,-0.00617364953315652,-149.9762938078502,-101.34737620364804,0,0.7560300827026367,2019-08-07 14:04:34:101
0.25429606437683105,0.0020331426057964563,9.776728630065918,-0.007452012629475789,-0.003285811533905992,-0.00857107968145954,-150.54629562903034,-95.71913983415867,0,0.7596797943115234,2019-08-07 14:04:34:104
0.29261207580566406,-0.012335355393588543,9.692912101745605,-0.009316680002451712,-0.007547909835407911,-0.004575362767621172,-151.0994662691336,-97.40166846048061,0,0.76279616355896,2019-08-07 14:04:34:108
0.26626983284950256,0.023585889488458633,9.714465141296387,-0.008251156012243464,-0.0046177169117777896,-0.00963660471196509,-151.64527254937826,-91.8549821791568,0,0.7658936977386475,2019-08-07 14:04:34:111
0.244717076420784,-0.017124855890870094,9.78151798248291,-0.008251156012243464,-0.003285811533905992,-0.007505555171102641,-152.18299692436383,-93.61410026145535,0,0.7697272300720215,2019-08-07 14:04:34:115
0.18963783979415894,-0.053046099841594696,9.81025505065918,-0.006120106991529666,-0.007547909835407911,-0.0077719362986918665,-152.7158552498734,-95.33454103301327,0,0.7728731632232666,2019-08-07 14:04:34:118
0.24711182713508606,-0.019519604742527008,9.800676345825195,-0.005320963088613342,-0.0006219999979394207,-0.008837460809048764,-153.23254499982698,-97.02465744670724,0,0.7759206295013428,2019-08-07 14:04:34:121
0.2183748334646225,-0.05544085055589676,9.800676345825195,-0.011181348415724934,-0.005150479166956239,-0.009370223064227214,-153.74120683985257,-98.67516677266143,0,0.7799270153045654,2019-08-07 14:04:34:125
0.23513807356357574,-0.06501984596252441,9.791096687316895,-0.006386488119118891,0.00017714346610147965,-0.011234891477500435,-154.23889959573805,-100.29292401155999,0,0.7830777168273926,2019-08-07 14:04:34:128
0.2111905813217163,-0.07459884881973267,9.829413414001465,-0.00425543883833077,-0.0056832419422833385,-0.010169366967143538,-154.7285015898693,-101.8776178181049,0,0.7862212657928467,2019-08-07 14:04:34:131
-0.08096887916326523,-0.06741459667682648,9.764754295349121,-0.00025972161565413924,-0.011277246141805704,-0.022689279443688443,-148.04100470782078,-103.43209840486062,0,0.7900564670562744,2019-08-07 14:04:34:135
-0.7371302843093872,-0.2542050778865814,10.025782585144043,-0.019439163891139546,0.00870133998783209,0.004481596610709765,-141.5656279477425,-104.93140756136165,0,0.7928051948547363,2019-08-07 14:04:34:138
2.455070972442627,0.4306933283805847,9.364831924438477,0.02850944115551548,-0.008347053218175584,-0.022689279443688443,-142.0391201382945,-99.29020895095114,0,0.7957820892333984,2019-08-07 14:04:34:141
-1.6375561952590942,-0.8600767254829407,11.239920616149902,-0.0743136792954117,-0.032054974093765225,0.01753427342302772,-135.75740520542774,-100.80132065562199,0,0.7995133399963379,2019-08-07 14:04:34:144
2.0264108180999756,0.21756061911582947,8.914618492126465,-0.06525672199767538,-0.049902512242986516,0.00714540788660201,-136.37650098548917,-95.20066606183154,0,0.8029489517211914,2019-08-07 14:04:34:148
-0.7155775427818298,0.4594303369522095,9.968308448791504,0.001338565231154435,-0.009146196080794608,-0.0051081250227996205,-130.12953419903602,-89.74965729358364,0,0.8059782981872559,2019-08-07 14:04:34:151
0.24950657784938812,-0.4338113069534302,9.867729187011719,-0.03941775106107464,-0.018735918754601295,0.0076781701417804596,-131.09404748527174,-91.49605597281308,0,0.8097116947174072,2019-08-07 14:04:34:155
-0.4425760805606842,0.059507135301828384,9.975492477416992,0.039963832242595386,0.010832389008545886,-0.039204910394517664,-124.92489344117378,-86.08005451050494,0,0.812868595123291,2019-08-07 14:04:34:158
0.8410097360610962,-0.0722040981054306,9.59233283996582,-0.02476678644292404,-0.007281528707818685,-0.004042600252368397,-125.92492449802711,-87.9455459036633,0,0.8159477710723877,2019-08-07 14:04:34:161
-1.0556319952011108,0.23192910850048065,10.265257835388184,0.011727429597245681,0.00017714346610147965,-0.013898702753392682,-119.92389111906827,-82.6149829662255,0,0.8196866512298584,2019-08-07 14:04:34:164
1.039773941040039,-0.10812534391880035,9.400753021240234,-0.01730811487042575,-0.013141913514781627,-0.007239174043513418,-120.99687457972172,-84.54646499179746,0,0.8228135108947754,2019-08-07 14:04:34:168
0.29500681161880493,-0.038677603006362915,9.692912101745605,-0.00425543883833077,-0.0038185737890844406,-0.017095276284463376,-122.14141839251062,-86.45023528830976,0,0.825859785079956,2019-08-07 14:04:34:171
-0.22225911915302277,-0.2039153277873993,9.932387351989746,-0.02023830779405587,-0.0027530490186532175,-0.011767653732678886,-116.12363214898514,-88.2933265773821,0,0.8297152519226074,2019-08-07 14:04:34:175
0.5009552836418152,0.13853387534618378,9.841386795043945,-0.02023830779405587,-0.013674675769960076,-0.0037762191247791726,-117.3404570441406,-82.94000465245327,0,0.8328700065612793,2019-08-07 14:04:34:178
0.0483475998044014,0.0978231281042099,9.841386795043945,0.01279295410760258,0.006836672094707517,-0.015763370126368605,-118.58925592201784,-77.69491018159513,0,0.8360936641693115,2019-08-07 14:04:34:181
0.13455858826637268,-0.23265232145786285,9.918018341064453,-0.031159933505065428,-0.019268679969482443,-0.0008460265262419585,-119.79798040529123,-79.70775758868004,0,0.8397395610809326,2019-08-07 14:04:34:185
0.26148033142089844,-0.05783560127019882,9.680938720703125,-0.00025972161565413924,0.00044352460994534954,-0.013365940498214234,-120.97115555358462,-81.70671082927323,0,0.8428795337677002,2019-08-07 14:04:34:188
0.620692789554596,-0.06262510269880295,9.764754295349121,-0.024500405835483463,-0.013141913514781627,-0.0037762191247791726,-122.07671599247733,-83.66098692149208,0,0.8459620475769043,2019-08-07 14:04:34:191
-0.38031259179115295,0.0020331426057964563,10.111993789672852,-0.004788200833434893,-0.006216004197461787,-0.014697845616011706,-116.07696091245194,-78.38699742418346,0,0.849682092666626,2019-08-07 14:04:34:194
0.2638750672340393,0.037954386323690414,9.747991561889648,-0.0031899140678995457,-0.0035521926614952163,-0.01150127208494101,-117.32378502594207,-73.22315818507366,0,0.8528139591217041,2019-08-07 14:04:34:198
0.30698058009147644,0.0020331426057964563,9.882097244262695,0.0010721841035652101,0.001775430280400763,-0.013632321105654805,-118.54202651435591,-68.15911366012547,0,0.8558516502380371,2019-08-07 14:04:34:201
0.146532341837883,-0.16559933125972748,9.736018180847168,-0.01384515969161718,-0.008347053218175584,-0.015763370126368605,-119.75213720926035,-70.3734511351837,0,0.8596994876861572,2019-08-07 14:04:34:205
0.33332282304763794,-0.10573059320449829,9.903650283813477,-0.01730811487042575,-0.006216004197461787,-0.013632321105654805,-120.91744733135398,-72.55070239276266,0,0.8628342151641846,2019-08-07 14:04:34:208
0.39319154620170593,0.02837538905441761,9.611491203308105,0.003203233254316169,-0.0027530490186532175,-0.01656251402928493,-122.05176767862078,-67.50362886006386,0,0.865933895111084,2019-08-07 14:04:34:211
0.06990034878253937,-0.05065134912729263,9.95872974395752,-0.01277963518126028,-0.008879815473354034,-0.004308981379957623,-123.2008053321527,-69.7450167367362,0,0.8697123527526855,2019-08-07 14:04:34:215
0.33332282304763794,-0.05544085055589676,9.817439079284668,-0.005587344736351217,-0.009412577728532483,-0.012833178243035783,-124.29623296580478,-71.94265696288392,0,0.8728625774383545,2019-08-07 14:04:34:218
0.24711182713508606,-0.05544085055589676,9.774333953857422,-0.012513254573819707,-0.005150479166956239,-0.013898702753392682,-125.38045107651111,-74.09513531940368,0,0.8759493827819824,2019-08-07 14:04:34:221
0.19442732632160187,-0.03628285229206085,9.779123306274414,-0.010914967808284359,-0.007015147580229461,-0.011234891477500435,-126.4485805322997,-76.2066758179976,0,0.8797106742858887,2019-08-07 14:04:34:225
0.17766408622264862,-0.0075458562932908535,9.673754692077637,-0.0031899140678995457,-0.0022202867634747683,-0.010968509829762562,-127.49806822820156,-78.28093345704248,0,0.8837025165557861,2019-08-07 14:04:34:229
0.46263930201530457,-0.0003616072062868625,9.786307334899902,-0.006919250374297341,-8.92376858697129e-05,-0.012833178243035783,-128.49396338532222,-80.31437292392275,0,0.8860177993774414,2019-08-07 14:04:34:231
0.0675055980682373,-0.09615159779787064,9.783912658691406,-0.009849443297927462,-0.0022202867634747683,-0.014431465008571131,-129.51572409657228,-82.29481153495381,0,0.8896572589874268,2019-08-07 14:04:34:234
0.43150755763053894,-0.06980934739112854,9.755175590515137,-0.014111541339355053,-0.0024866678910639927,-0.009902985319405663,-130.47431738600037,-84.23823430470658,0,0.8927881717681885,2019-08-07 14:04:34:238
0.30698058009147644,-0.038677603006362915,9.786307334899902,-0.00425543883833077,-0.004084954916673665,-0.012833178243035783,-131.42819568741467,-86.14820983284551,0,0.8958470821380615,2019-08-07 14:04:34:241
0.21358533203601837,-0.07699359953403473,9.78151798248291,-0.012246872926081832,-0.009412577728532483,-0.010702129222321988,-132.37257443068174,-88.01357222704507,0,0.8997061252593994,2019-08-07 14:04:34:245
0.24711182713508606,-0.05783560127019882,9.870123863220215,-0.008517537139832687,-0.006216004197461787,-0.007505555171102641,-133.29534753582348,-89.84509004844706,0,0.902834415435791,2019-08-07 14:04:34:248
0.26148033142089844,-0.07459884881973267,9.776728630065918,-0.007452012629475789,-0.005949623069872562,-0.011234891477500435,-134.19778409745484,-91.63817214306411,0,0.9058759212493896,2019-08-07 14:04:34:251
0.17526933550834656,-0.1248885914683342,9.73122787475586,-0.011980492318641258,-0.0046177169117777896,-0.010702129222321988,-135.09219286627143,-93.38811204283887,0,0.9097275733947754,2019-08-07 14:04:34:255
0.18963783979415894,-0.012335355393588543,9.747991561889648,-0.007185631501886564,-0.0064823853250510115,-0.009103842456786639,-135.96691683462174,-95.11763351372912,0,0.9128658771514893,2019-08-07 14:04:34:258
0.2638750672340393,-0.04346710070967674,9.762359619140625,-0.006652869246708115,-0.0024866678910639927,-0.009370223064227214,-136.8161811852596,-96.80902574338698,0,0.915952205657959,2019-08-07 14:04:34:261
0.12497959285974503,-0.08896734565496445,9.812649726867676,-0.005587344736351217,-0.006748766452640236,-0.010702129222321988,-137.66384205881337,-98.46127929879408,0,0.9197027683258057,2019-08-07 14:04:34:265
0.24711182713508606,-0.09375684708356857,9.831808090209961,-0.009316680002451712,-0.0035521926614952163,-0.006440030660745744,-138.48114617190643,-100.07949050392612,0,0.9228301048278809,2019-08-07 14:04:34:268
0.2566908299922943,-0.012335355393588543,9.78151798248291,-0.009050299395011138,0.001242668025222314,-0.011767653732678886,-139.28167134091316,-101.67490574225954,0,0.925879955291748,2019-08-07 14:04:34:271
0.22316433489322662,-0.08178309351205826,9.709675788879395,-0.005853725863940442,-0.005150479166956239,-0.010702129222321988,-140.06856748235845,-103.23046296667215,0,0.9298138618469238,2019-08-07 14:04:34:275
0.2974015772342682,-0.06262510269880295,9.79349136352539,-0.008251156012243464,-0.0064823853250510115,-0.010968509829762562,-140.831312195752,-104.75713074060762,0,0.9328258037567139,2019-08-07 14:04:34:278
0.25429606437683105,-0.017124855890870094,9.704886436462402,-0.009050299395011138,-0.005150479166956239,-0.009370223064227214,-141.58378830111724,-106.25842290268784,0,0.9358625411987305,2019-08-07 14:04:34:281
0.24711182713508606,-0.019519604742527008,9.774333953857422,-0.006120106991529666,-0.005949623069872562,-0.011767653732678886,-142.32185475057918,-107.72963571147339,0,0.9397337436676025,2019-08-07 14:04:34:285
0.22076958417892456,-0.038677603006362915,9.865334510803223,-0.011181348415724934,-0.00435133604426289,-0.011767653732678886,-143.04901144213449,-109.16857991857768,0,0.9428722858428955,2019-08-07 14:04:34:288
0.22795382142066956,0.004427892155945301,9.736018180847168,-0.008783917747273263,-0.0046177169117777896,-0.006972792915924193,-143.76041166074947,-103.38421795173727,0,0.945936918258667,2019-08-07 14:04:34:291
0.14174284040927887,-0.04107235372066498,9.73122787475586,-0.008517537139832687,-0.007281528707818685,-0.010968509829762562,-144.46697894779686,-104.90990209077317,0,0.9496901035308838,2019-08-07 14:04:34:294
0.18963783979415894,-0.031493354588747025,9.81025505065918,-0.008517537139832687,-0.0056832419422833385,-0.013632321105654805,-145.15449028625673,-106.40652572169489,0,0.9528257846832275,2019-08-07 14:04:34:298
0.24950657784938812,-0.06501984596252441,9.805465698242188,-0.006652869246708115,-0.007015147580229461,-0.009902985319405663,-145.82103380039212,-107.86964510047622,0,0.9559087753295898,2019-08-07 14:04:34:301
0.18724308907985687,-0.04346710070967674,9.743202209472656,-0.0077183937570650145,-0.0008883811255286454,-0.010169366967143538,-146.48240506118853,-109.3054998715477,0,0.959693193435669,2019-08-07 14:04:34:304
0.2782435715198517,-0.038677603006362915,9.78151798248291,-0.007452012629475789,-0.005949623069872562,-0.006706411788334968,-147.11912453596324,-110.71355030392613,0,0.962820291519165,2019-08-07 14:04:34:308
0.17047983407974243,-0.02909860387444496,9.7982816696167,-0.002390770685131872,-0.0046177169117777896,-0.011234891477500435,-147.75601659915435,-112.09546733443173,0,0.9658660888671875,2019-08-07 14:04:34:311
0.22316433489322662,-0.024309104308485985,9.755175590515137,-0.011714110670903381,-0.004084954916673665,-0.012034034340119461,-148.3738042633034,-113.44817313476003,0,0.9697115421295166,2019-08-07 14:04:34:315
0.2566908299922943,0.04274388775229454,9.788702011108398,-0.005587344736351217,-0.003285811533905992,-0.012300415987857336,-148.97570769720852,-107.58323090245018,0,0.9728434085845947,2019-08-07 14:04:34:318
0.2519013285636902,-0.08178309351205826,9.743202209472656,-0.006120106991529666,-0.0054168602945454634,-0.008038317426281092,-149.56562940804392,-109.02088111256813,0,0.9759476184844971,2019-08-07 14:04:34:321
0.23034857213497162,-0.07938835024833679,9.74080753326416,-0.006652869246708115,-0.0014211433807070943,-0.008837460809048764,-150.14692337733416,-110.42971942423249,0,0.9797086715698242,2019-08-07 14:04:34:325
0.24950657784938812,-0.031493354588747025,9.786307334899902,-0.006919250374297341,-0.004884098039367014,-0.010702129222321988,-150.71391694646238,-111.81622096647995,0,0.9828395843505859,2019-08-07 14:04:34:328
0.2590855658054352,-0.031493354588747025,9.827017784118652,-0.0077183937570650145,-0.007814290962997135,-0.009103842456786639,-151.26808669000803,-113.17489340686029,0,0.985910177230835,2019-08-07 14:04:34:331
0.27345407009124756,-0.009940605610609055,9.764754295349121,-0.005853725863940442,-0.005150479166956239,-0.011234891477500435,-151.80955217350302,-114.50898933378267,0,0.9896817207336426,2019-08-07 14:04:34:334
0.26626983284950256,-0.031493354588747025,9.704886436462402,-0.006120106991529666,-0.006216004197461787,-0.010968509829762562,-152.3408363738925,-115.8140152752025,0,0.992811918258667,2019-08-07 14:04:34:338
0.26866456866264343,-0.06023034825921059,9.743202209472656,-0.0039890577107415445,-0.00435133604426289,-0.009103842456786639,-152.86168500692253,-117.08996872652892,0,0.9958591461181641,2019-08-07 14:04:34:341
0.24950657784938812,-0.019519604742527008,9.788702011108398,-0.009316680002451712,-0.007281528707818685,-0.010435747574584113,-153.37367579991061,-118.34387124498852,0,0.9997072219848633,2019-08-07 14:04:34:345
0.2638750672340393,-0.012335355393588543,9.757570266723633,-0.009583061650189587,-0.0056832419422833385,-0.007239174043513418,-153.87421832384004,-119.57385495189988,0,1.0028483867645264,2019-08-07 14:04:34:348
0.23992757499217987,0.0020331426057964563,9.865334510803223,-0.005320963088613342,-0.006216004197461787,-0.00857107968145954,-154.36780491189012,-113.58170188014161,0,1.0059013366699219,2019-08-07 14:04:34:351
0.19442732632160187,-0.06501984596252441,9.81025505065918,-0.008517537139832687,-0.0011547622531178697,-0.010169366967143538,-154.85749409797936,-114.90065098901914,0,1.0097112655639648,2019-08-07 14:04:34:355
0.24711182713508606,-0.045861851423978806,9.819833755493164,-0.006120106991529666,-0.005949623069872562,-0.00963660471196509,-155.33046119920192,-116.19620340667467,0,1.012862205505371,2019-08-07 14:04:34:358
0.28063830733299255,0.011612141504883766,9.85096549987793,-0.006919250374297341,-0.0014211433807070943,-0.009103842456786639,-155.790970526511,-110.27243742926335,0,1.0159320831298828,2019-08-07 14:04:34:361
-0.08096887916326523,-0.06980934739112854,9.76954460144043,0.0008058029759759856,-0.011277246141805704,-0.026951379565710636,-149.08226036900237,-111.65897116896635,0,1.0197029113769531,2019-08-07 14:04:34:365
-0.7059985399246216,-0.20870482921600342,10.073677062988281,-0.025832310953280934,0.011365151263724336,0.008210932396958909,-142.5827939638961,-112.99750807545934,0,1.0228371620178223,2019-08-07 14:04:34:368
2.2946228981018066,0.5552203059196472,8.792486190795898,0.05408203148467564,0.0020418114079899874,-0.03973767160939882,-143.03900172527437,-107.22027788521726,0,1.0262799263000488,2019-08-07 14:04:34:371
-1.6950302124023438,-0.8624715209007263,11.139341354370117,-0.05273680640023857,-0.013674675769960076,0.004481596610709765,-136.74866297678676,-108.57729555030471,0,1.0296671390533447,2019-08-07 14:04:34:374
1.861173152923584,-0.1895468384027481,9.561201095581055,-0.08044044783070713,-0.06188966246435297,0.015669603969457196,-137.3825101464712,-109.9689046259981,0,1.0327956676483154,2019-08-07 14:04:34:378
-0.7706567645072937,0.4450618326663971,10.01141357421875,0.01279295410760258,-0.00435133604426289,-0.009902985319405663,-131.1221488602588,-104.22263299879015,0,1.0358552932739258,2019-08-07 14:04:34:381
0.3476913273334503,-0.4433903098106384,9.913228988647461,-0.04900746957369212,-0.0301903077610866,0.011141125320589031,-132.053004291476,-105.67636606039656,0,1.039705514907837,2019-08-07 14:04:34:385
-0.3898915946483612,0.09542837738990784,9.951544761657715,0.03836554443676274,0.016160011560330378,-0.03627471747088755,-125.85965650561324,-99.9805680141235,0,1.042834758758545,2019-08-07 14:04:34:388
1.7414356470108032,-0.18715208768844604,9.348068237304688,-0.03329098252577922,-0.011010864494067829,-0.004042600252368397,-126.72951497774615,-101.55228267317058,0,1.045902967453003,2019-08-07 14:04:34:391
-1.0723952054977417,0.19121836125850677,10.236520767211914,0.015989527638673274,0.001242668025222314,-0.012833178243035783,-120.71480038455695,-95.94603665416649,0,1.0496859550476074,2019-08-07 14:04:34:394
0.9032732248306274,-0.031493354588747025,9.400753021240234,-0.01144773006346281,-0.012609151259603176,-0.009370223064227214,-121.78852217494968,-97.62126726066856,0,1.0528125762939453,2019-08-07 14:04:34:398
0.32613855600357056,-0.07699359953403473,9.771939277648926,-0.0018580084299534227,-0.0046177169117777896,-0.020558230422974645,-122.91373051081567,-99.2594953187495,0,1.055861234664917,2019-08-07 14:04:34:401
-0.21028536558151245,-0.21828383207321167,9.827017784118652,-0.018906402676258396,-0.004884098039367014,-0.010169366967143538,-116.87891592936752,-100.84476287499903,0,1.0597167015075684,2019-08-07 14:04:34:405
0.5751925110816956,0.02837538905441761,9.85096549987793,-0.019971927186615297,-0.011010864494067829,-0.0016451699740282137,-118.07255350560254,-95.22763030589519,0,1.0628716945648193,2019-08-07 14:04:34:408
-0.021100139245390892,0.09303363412618637,9.834202766418457,0.018653339954862822,0.008434958860242866,-0.01602975177410648,-112.11502341054137,-89.73715179482542,0,1.0659592151641846,2019-08-07 14:04:34:411
0.05792659893631935,-0.1967310756444931,9.870123863220215,-0.030094408994708527,-0.017404011556209218,-4.688308251936486e-05,-113.46234961053399,-91.51326314117313,0,1.0696923732757568,2019-08-07 14:04:34:414
0.24950657784938812,-0.04825660213828087,9.736018180847168,-0.0039890577107415445,-0.0024866678910639927,-0.014431465008571131,-114.76330448352797,-93.2766155782353,0,1.072829246520996,2019-08-07 14:04:34:418
0.7092984914779663,-0.10094109177589417,9.628253936767578,-0.021836593519293915,-0.014740200280316973,-0.004042600252368397,-115.98124184314293,-94.99532068170743,0,1.0758872032165527,2019-08-07 14:04:34:421
-0.2988910973072052,-0.10333584249019623,9.968308448791504,-0.005587344736351217,-0.0022202867634747683,-0.013099558850476358,-110.09549182494256,-96.68234236741198,0,1.07969069480896,2019-08-07 14:04:34:424
0.25429606437683105,0.02119114063680172,9.64980697631836,-0.0034562954555630953,-0.007015147580229461,-0.011234891477500435,-111.4621581201784,-91.15060439459128,0,1.0828213691711426,2019-08-07 14:04:34:428
0.31177008152008057,0.02119114063680172,9.939571380615234,-0.0015916273023641983,0.002308192665616375,-0.00857107968145954,-112.79737862363108,-85.7297628066955,0,1.0858714580535889,2019-08-07 14:04:34:431
0.0675055980682373,-0.15362559258937836,9.7982816696167,-0.010914967808284359,-0.008879815473354034,-0.012566796595297908,-114.13162756564397,-87.59485614934998,0,1.0896997451782227,2019-08-07 14:04:34:435
0.31416481733322144,-0.1703888326883316,9.867729187011719,-0.018640019988223223,-0.004884098039367014,-0.008304698553870315,-115.41166589747661,-89.41989872399883,0,1.0928292274475098,2019-08-07 14:04:34:438
0.37163880467414856,0.08824413269758224,9.709675788879395,0.0016049463587436595,0.0007099057700438648,-0.009902985319405663,-116.65971641909886,-84.04219173652973,0,1.0959017276763916,2019-08-07 14:04:34:441
0.024400103837251663,-0.03628285229206085,9.94196605682373,-0.009583061650189587,-0.007547909835407911,-0.001911551101617438,-117.92210654667248,-85.9551304916316,0,1.099684476852417,2019-08-07 14:04:34:444
0.34529656171798706,-0.08896734565496445,9.685728073120117,-0.008517537139832687,-0.0046177169117777896,-0.0077719362986918665,-119.12201785645823,-87.82400486390077,0,1.102815866470337,2019-08-07 14:04:34:448
0.2902173101902008,-0.09615159779787064,9.774333953857422,-0.013578779084176606,-0.0056832419422833385,-0.007505555171102641,-120.30458868533147,-89.65392414726983,0,1.1058697700500488,2019-08-07 14:04:34:451
0.13455858826637268,-0.0267038531601429,9.800676345825195,-0.013046016828998155,-0.008347053218175584,-0.009902985319405663,-121.48089533728304,-91.45480117031276,0,1.1098589897155762,2019-08-07 14:04:34:455
0.09624259918928146,0.09542837738990784,9.76954460144043,-0.001058865047185749,-0.005949623069872562,-0.008837460809048764,-122.63897201776756,-86.03671702853117,0,1.112903356552124,2019-08-07 14:04:34:458
0.35248079895973206,-0.053046099841594696,9.75278091430664,-0.005054581961024118,-0.0022202867634747683,-0.007505555171102641,-123.74441842755436,-87.9088918145282,0,1.1159272193908691,2019-08-07 14:04:34:461
0.09863734245300293,-0.13925708830356598,9.874913215637207,-0.009050299395011138,-0.0038185737890844406,-0.011234891477500435,-124.8573758877319,-89.73287633936461,0,1.1192309856414795,2019-08-07 14:04:34:464
0.39079681038856506,-0.08657259494066238,9.728833198547363,-0.01384515969161718,-0.010211721631448806,-0.006972792915924193,-125.91220293247821,-91.52528338945984,0,1.1227538585662842,2019-08-07 14:04:34:468
0.2255590856075287,0.02837538905441761,9.726438522338867,-0.0039890577107415445,-0.004084954916673665,-0.0051081250227996205,-126.96657047081757,-86.09732094004765,0,1.1263246536254883,2019-08-07 14:04:34:471
0.192032590508461,-0.08896734565496445,9.90125560760498,-0.008517537139832687,-0.006216004197461787,-0.0032434568696007235,-128.0036638387501,-87.963223932223,0,1.130201816558838,2019-08-07 14:04:34:475
0.2519013285636902,-0.04346710070967674,9.843781471252441,-0.005853725863940442,-0.004884098039367014,-0.012034034340119461,-129.01340617149742,-89.79786043765202,0,1.1333630084991455,2019-08-07 14:04:34:478
0.2974015772342682,-0.05544085055589676,9.827017784118652,-0.0077183937570650145,-0.004884098039367014,-0.006972792915924193,-129.99777673542818,-91.59434438188632,0,1.1358873844146729,2019-08-07 14:04:34:481
0.15850608050823212,-0.07938835024833679,9.747991561889648,-0.010648586160546484,-0.0054168602945454634,-0.008304698553870315,-130.9780126564995,-93.35081119464577,0,1.1397576332092285,2019-08-07 14:04:34:485
0.21358533203601837,0.009217391721904278,9.877307891845703,-0.008517537139832687,-0.0054168602945454634,-0.0077719362986918665,-131.93272393978285,-87.8833654577319,0,1.1428916454315186,2019-08-07 14:04:34:488
0.2519013285636902,0.0020331426057964563,9.736018180847168,-0.0031899140678995457,-0.0027530490186532175,-0.007239174043513418,-132.86394689981876,-82.5253804165976,0,1.1460015773773193,2019-08-07 14:04:34:491
0.146532341837883,-0.10812534391880035,9.815044403076172,-0.006919250374297341,-0.003019430146242442,-0.006440030660745744,-133.78892557245996,-84.46079243439375,0,1.149752140045166,2019-08-07 14:04:34:495
0.21358533203601837,-0.08657259494066238,9.757570266723633,-0.006652869246708115,-0.007547909835407911,-0.0032434568696007235,-134.68673753867387,-86.3602372816267,0,1.1528911590576172,2019-08-07 14:04:34:498
0.28782257437705994,-0.03628285229206085,9.803071022033691,-0.005853725863940442,-0.0035521926614952163,-0.006440030660745744,-135.55874370963437,-88.22776278626212,0,1.1560204029083252,2019-08-07 14:04:34:501
0.21598008275032043,-0.019519604742527008,9.776728630065918,-0.005587344736351217,-0.006216004197461787,-0.0077719362986918665,-136.42094820395596,-90.05974211366394,0,1.159773826599121,2019-08-07 14:04:34:505
0.2183748334646225,-0.014730105176568031,9.807860374450684,-0.008517537139832687,-0.003019430146242442,-0.006706411788334968,-137.26648724454319,-91.85532533887624,0,1.162912130355835,2019-08-07 14:04:34:508
0.1728745847940445,-0.05544085055589676,9.771939277648926,-0.008783917747273263,-0.007814290962997135,-0.006440030660745744,-138.0995398169202,-93.61020287864352,0,1.1659832000732422,2019-08-07 14:04:34:511
0.20161157846450806,-0.021914353594183922,9.79349136352539,-0.0077183937570650145,-0.0054168602945454634,-0.0077719362986918665,-138.91280709602427,-95.33378877041989,0,1.169780969619751,2019-08-07 14:04:34:515
0.23274332284927368,0.009217391721904278,9.807860374450684,-0.008783917747273263,-0.005949623069872562,-0.006972792915924193,-139.7063121098862,-89.82663818053898,0,1.1729271411895752,2019-08-07 14:04:34:518
0.26148033142089844,-0.02909860387444496,9.688122749328613,-0.006386488119118891,-0.005949623069872562,-0.004575362767621172,-140.48024267274172,-91.62556584953046,0,1.1759884357452393,2019-08-07 14:04:34:521
0.19682207703590393,-0.06980934739112854,9.841386795043945,-0.005054581961024118,-0.0046177169117777896,-0.006706411788334968,-141.2468601159512,-93.38398141792597,0,1.1793172359466553,2019-08-07 14:04:34:524
0.2902173101902008,-0.08417784422636032,9.803071022033691,-0.010648586160546484,-0.00435133604426289,-0.007239174043513418,-141.98710591015313,-95.10425387507365,0,1.1830105781555176,2019-08-07 14:04:34:528
0.24711182713508606,-0.04107235372066498,9.776728630065918,-0.009050299395011138,-0.0035521926614952163,-0.005907268405567294,-142.7176762598829,-96.7954946600791,0,1.1866710186004639,2019-08-07 14:04:34:531
0.18963783979415894,-0.019519604742527008,9.827017784118652,-0.008517537139832687,-0.0038185737890844406,-0.0077719362986918665,-143.44040748444132,-98.45551396361778,0,1.1904234886169434,2019-08-07 14:04:34:535
0.2590855658054352,0.009217391721904278,9.771939277648926,-0.005587344736351217,-0.004884098039367014,-0.005907268405567294,-144.14026822967784,-92.88639056373357,0,1.1939105987548828,2019-08-07 14:04:34:539
0.22316433489322662,-0.014730105176568031,9.848570823669434,-0.008517537139832687,-0.0046177169117777896,-0.006972792915924193,-144.83072863149226,-94.6255235330332,0,1.1968908309936523,2019-08-07 14:04:34:542
0.19682207703590393,-0.07938835024833679,9.630648612976074,-0.007452012629475789,-0.008080672090586358,-0.004575362767621172,-145.50919667935986,-96.32218245966472,0,1.200200080871582,2019-08-07 14:04:34:545
0.2902173101902008,-0.031493354588747025,9.652201652526855,-0.010914967808284359,-0.003019430146242442,-0.006972792915924193,-146.16395696023199,-97.98978983928258,0,1.2038061618804932,2019-08-07 14:04:34:549
0.2375328242778778,0.009217391721904278,9.714465141296387,-0.005587344736351217,-0.005949623069872562,-0.00963660471196509,-146.8118987539396,-92.4303625820445,0,1.20609712600708,2019-08-07 14:04:34:551
0.20400632917881012,-0.07699359953403473,9.738412857055664,-0.007185631501886564,-0.003285811533905992,-0.010169366967143538,-147.4509921711472,-94.17123758159559,0,1.2097110748291016,2019-08-07 14:04:34:555
0.2758488357067108,-0.03628285229206085,9.73122787475586,-0.007452012629475789,-0.004884098039367014,-0.010435747574584113,-148.06863194349933,-95.88221886806551,0,1.2128691673278809,2019-08-07 14:04:34:558
0.2111905813217163,-0.045861851423978806,9.774333953857422,-0.007452012629475789,-0.006748766452640236,-0.007239174043513418,-148.68113021934107,-97.55768114285642,0,1.216493844985962,2019-08-07 14:04:34:561
0.17766408622264862,0.04274388775229454,9.721649169921875,-0.005054581961024118,-0.004884098039367014,-0.006440030660745744,-149.2856558548526,-92.01062159956888,0,1.2198207378387451,2019-08-07 14:04:34:565
0.24232232570648193,-0.03388810157775879,9.867729187011719,-0.007452012629475789,-0.0038185737890844406,-0.00857107968145954,-149.87099507426723,-93.76488723478816,0,1.2236125469207764,2019-08-07 14:04:34:568
0.2758488357067108,-0.031493354588747025,9.7982816696167,-0.005853725863940442,-0.0064823853250510115,-0.007505555171102641,-150.44032821777037,-95.48500803788598,0,1.2263455390930176,2019-08-07 14:04:34:571
0.19682207703590393,-0.06501984596252441,9.824623107910156,-0.005853725863940442,-0.0038185737890844406,-0.009370223064227214,-151.00768681301798,-97.16637348675152,0,1.2304551601409912,2019-08-07 14:04:34:575
0.20400632917881012,0.009217391721904278,9.733622550964355,-0.009316680002451712,-0.007814290962997135,-0.007505555171102641,-151.56206051763476,-91.62239175697675,0,1.2337801456451416,2019-08-07 14:04:34:579
0.25429606437683105,-0.06023034825921059,9.707281112670898,-0.008517537139832687,-0.0046177169117777896,-0.00857107968145954,-152.10021685387,-93.38174494036494,0,1.2360572814941406,2019-08-07 14:04:34:581
0.14413759112358093,0.009217391721904278,9.762359619140625,-0.008251156012243464,-0.006216004197461787,-0.007505555171102641,-152.64003394457293,-87.9135184140225,0,1.2396695613861084,2019-08-07 14:04:34:584
0.29261207580566406,-0.021914353594183922,9.82222843170166,-0.006652869246708115,-0.004884098039367014,-0.009103842456786639,-153.1522454834094,-89.7515197750368,0,1.2428059577941895,2019-08-07 14:04:34:588
0.2830330729484558,-0.08657259494066238,9.846176147460938,-0.008783917747273263,-0.003019430146242442,-0.009902985319405663,-153.65576940787747,-91.54495861433946,0,1.2457571029663086,2019-08-07 14:04:34:591
-0.06181088462471962,-0.03628285229206085,9.719254493713379,0.00027304068828824584,-0.008879815473354034,-0.024021186642080517,-146.98799172556,-93.30984160911504,0,1.2496676445007324,2019-08-07 14:04:34:594
-0.05941613391041756,-0.09136209636926651,10.01141357421875,-0.027430598759113585,0.010033246145926863,0.01300579269356495,-140.4572553105155,-95.02711095249168,0,1.253612995147705,2019-08-07 14:04:34:598
1.956963062286377,0.4306933283805847,9.01519775390625,0.049819933443248046,0.009500483890748413,-0.03787300527672019,-141.00447562358738,-89.58815984536322,0,1.256075143814087,2019-08-07 14:04:34:601
-1.3238439559936523,-0.6828652620315552,10.914234161376953,-0.07591196710124436,-0.03764897933358489,0.011407505928029603,-134.7137551880819,-91.30674959986129,0,1.2603085041046143,2019-08-07 14:04:34:605
1.7270671129226685,0.17206037044525146,9.108592987060547,-0.026098691560721508,-0.02752649544489705,-0.005640887277978069,-135.39961642773153,-85.89738744650111,0,1.2636322975158691,2019-08-07 14:04:34:608
-0.5766820907592773,0.35645610094070435,9.965913772583008,0.017055053189327474,0.004172860558740947,-0.014697845616011706,-129.15842203316768,-80.62270934212891,0,1.2660346031188965,2019-08-07 14:04:34:611
0.3093753159046173,-0.3332318067550659,9.903650283813477,-0.043413466414467056,-0.02672735154198073,0.011407505928029603,-130.13394046381683,-82.56273336292115,0,1.2697181701660156,2019-08-07 14:04:34:615
-0.7179722785949707,0.006822641938924789,10.028177261352539,0.031173253471705027,0.01456172479479503,-0.03334452662785203,-124.01573380115084,-77.3177590328651,0,1.2728607654571533,2019-08-07 14:04:34:618
1.4660394191741943,-0.1775730848312378,9.474989891052246,-0.027963359973994732,-0.006216004197461787,-0.001911551101617438,-124.95844459440295,-79.34513917470338,0,1.2759122848510742,2019-08-07 14:04:34:621
-0.8113675117492676,0.12895487248897552,10.174257278442383,0.009063618321353436,-0.0014211433807070943,-0.013365940498214234,-118.95016313109949,-74.17469230441313,0,1.279709815979004,2019-08-07 14:04:34:625
0.8649572730064392,-0.053046099841594696,9.429490089416504,-0.011714110670903381,-0.010744483886627255,-0.011234891477500435,-120.06445024973655,-76.28269230206664,0,1.282841444015503,2019-08-07 14:04:34:628
0.38361257314682007,-0.014730105176568031,9.963519096374512,0.0005394218158774704,0.002308192665616375,-0.013365940498214234,-121.21944464959292,-78.35543344967569,0,1.2857837677001953,2019-08-07 14:04:34:631
0.03637385368347168,-0.24702082574367523,9.695306777954102,-0.014111541339355053,-0.007015147580229461,-0.012300415987857336,-122.38928362357977,-80.35617189922138,0,1.2895233631134033,2019-08-07 14:04:34:634
0.4219285547733307,0.016401641070842743,9.815044403076172,-0.01624259036006885,-0.01154362674924628,-0.005907268405567294,-123.49024652610846,-75.1481194381037,0,1.2926416397094727,2019-08-07 14:04:34:637
0.5704030394554138,0.08584938198328018,9.496542930603027,0.014657622520875803,0.00923410224301054,-0.020025469208093498,-124.55330090016994,-70.0580640866961,0,1.2957377433776855,2019-08-07 14:04:34:641
0.04595285281538963,-0.16559933125972748,9.870123863220215,-0.025832310953280934,-0.017670392163649795,-0.002177932229206663,-125.65315300214547,-72.2322011557975,0,1.2995140552520752,2019-08-07 14:04:34:644
0.31416481733322144,-0.0722040981054306,9.716859817504883,-0.0018580084299534227,-0.003285811533905992,-0.012566796595297908,-126.70242165132552,-74.37868510471188,0,1.3029370307922363,2019-08-07 14:04:34:648
0.5967452526092529,-0.11530959606170654,9.721649169921875,-0.018373639380782646,-0.008879815473354034,-0.007505555171102641,-127.69647398098424,-76.47411129092757,0,1.3062412738800049,2019-08-07 14:04:34:651
-0.1360481232404709,-0.11530959606170654,9.884491920471191,-0.004521819705845669,-0.00435133604426289,-0.012034034340119461,-121.55746499799542,-78.53037777140297,0,1.309722900390625,2019-08-07 14:04:34:655
0.2566908299922943,0.02119114063680172,9.659385681152344,-0.0037226765831523197,-0.003285811533905992,-0.017095276284463376,-122.69529157750739,-73.36162767564353,0,1.3128635883331299,2019-08-07 14:04:34:658
0.28782257437705994,-0.005151106510311365,9.896466255187988,-0.0015916273023641983,-0.0024866678910639927,-0.010702129222321988,-123.80765223387093,-75.49353252303845,0,1.3158416748046875,2019-08-07 14:04:34:661
0.07708460092544556,-0.12009909003973007,9.791096687316895,-0.011714110670903381,-0.008879815473354034,-0.013099558850476358,-124.92053939769434,-77.56704967096762,0,1.3197290897369385,2019-08-07 14:04:34:665
0.32134905457496643,-0.12728333473205566,9.891676902770996,-0.014910684201974079,-0.008080672090586358,-0.01150127208494101,-125.98347568599235,-79.59830913208661,0,1.3229002952575684,2019-08-07 14:04:34:668
0.3764283061027527,0.03555963933467865,9.645017623901367,-0.0005261027594980092,-0.00435133604426289,-0.013898702753392682,-127.01837131921967,-74.41047893955091,0,1.3259062767028809,2019-08-07 14:04:34:671
0.14413759112358093,-0.04825660213828087,9.831808090209961,-0.009316680002451712,-0.008879815473354034,-0.004575362767621172,-128.05930572091864,-76.51465167009525,0,1.329716682434082,2019-08-07 14:04:34:675
0.3548755645751953,-0.0722040981054306,9.736018180847168,-0.007452012629475789,-0.005150479166956239,-0.008304698553870315,-129.05546379802323,-78.57454970752924,0,1.3328492641448975,2019-08-07 14:04:34:678
0.38361257314682007,-0.04346710070967674,9.783912658691406,-0.005587344736351217,-0.0024866678910639927,-0.010968509829762562,-130.0290334686946,-80.59703660507802,0,1.3358173370361328,2019-08-07 14:04:34:681
0.16329558193683624,-0.0985463410615921,9.75278091430664,-0.013046016828998155,-0.0056832419422833385,-0.008304698553870315,-131.0080194523364,-82.5706514431132,0,1.3397297859191895,2019-08-07 14:04:34:685
0.17526933550834656,-0.05065134912729263,9.726438522338867,-0.0026571518127210965,-0.003019430146242442,-0.012300415987857336,-131.966657361429,-84.51278288882078,0,1.343001365661621,2019-08-07 14:04:34:688
0.4291127920150757,0.025980640202760696,9.834202766418457,-0.007185631501886564,-0.0038185737890844406,-0.010435747574584113,-132.87665088617828,-79.22423112416361,0,1.3462815284729004,2019-08-07 14:04:34:691
0.12497959285974503,-0.1775730848312378,9.800676345825195,-0.010914967808284359,-0.0027530490186532175,-0.012566796595297908,-133.8039796352592,-81.21690053963793,0,1.3496851921081543,2019-08-07 14:04:34:694
0.2758488357067108,-0.07459884881973267,9.807860374450684,-0.009583061650189587,-0.008879815473354034,-0.01150127208494101,-134.69411933328928,-83.1821632814724,0,1.352813959121704,2019-08-07 14:04:34:698
0.3692440688610077,0.03555963933467865,9.683333396911621,-0.0018580084299534227,-0.0006219999979394207,-0.011767653732678886,-135.55645862915046,-77.92241886055977,0,1.3557779788970947,2019-08-07 14:04:34:701
0.1273743361234665,-0.03628285229206085,9.829413414001465,-0.008517537139832687,-0.004084954916673665,-0.010169366967143538,-136.4295816977917,-79.95786559912666,0,1.3596985340118408,2019-08-07 14:04:34:704
0.27345407009124756,-0.04346710070967674,9.759964942932129,-0.008517537139832687,-0.0056832419422833385,-0.010169366967143538,-137.26784704993594,-81.95203837162512,0,1.362973928451538,2019-08-07 14:04:34:708
0.40995481610298157,-0.11052009463310242,9.733622550964355,-0.0077183937570650145,-0.003019430146242442,-0.0077719362986918665,-138.073700850852,-83.89856873339117,0,1.366246223449707,2019-08-07 14:04:34:711
0.18963783979415894,-0.06023034825921059,9.829413414001465,-0.011714110670903381,-0.004884098039367014,-0.010968509829762562,-138.88917157934245,-85.81129735648179,0,1.3697102069854736,2019-08-07 14:04:34:715
0.2974015772342682,-0.045861851423978806,9.721649169921875,-0.006120106991529666,-0.0046177169117777896,-0.0077719362986918665,-139.675535136565,-87.68859410348173,0,1.3728282451629639,2019-08-07 14:04:34:718
0.2782435715198517,-0.017124855890870094,9.762359619140625,-0.005587344736351217,-0.0008883811255286454,-0.009370223064227214,-140.4492246964097,-89.53188084637667,0,1.3757965564727783,2019-08-07 14:04:34:721
0.20879583060741425,-0.045861851423978806,9.8797025680542,-0.006652869246708115,-0.004084954916673665,-0.010968509829762562,-141.21513091709403,-91.3344657549065,0,1.379699945449829,2019-08-07 14:04:34:725
0.2710593342781067,-0.07699359953403473,9.805465698242188,-0.010914967808284359,-0.0019539056358855436,-0.009103842456786639,-141.95880061244702,-93.09677662534776,0,1.3829667568206787,2019-08-07 14:04:34:728
0.28063830733299255,0.009217391721904278,9.884491920471191,-0.0034562954555630953,0.00017714346610147965,-0.00963660471196509,-142.68713114770625,-87.63527766859143,0,1.386223316192627,2019-08-07 14:04:34:731
0.17047983407974243,0.014006891287863255,9.836597442626953,-0.008517537139832687,-0.0035521926614952163,-0.010169366967143538,-143.4128394874234,-82.28254705481156,0,1.3896875381469727,2019-08-07 14:04:34:734
0.21598008275032043,-0.04107235372066498,9.834202766418457,-0.008783917747273263,-0.007281528707818685,-0.0077719362986918665,-144.1181367761305,-84.2305622691536,0,1.3928260803222656,2019-08-07 14:04:34:738
0.2710593342781067,-0.012335355393588543,9.738412857055664,-0.005587344736351217,-0.003019430146242442,-0.011234891477500435,-144.80338498328902,-86.14357090131426,0,1.3957860469818115,2019-08-07 14:04:34:741
0.17526933550834656,-0.05783560127019882,9.83899211883545,-0.008783917747273263,-0.0064823853250510115,-0.010702129222321988,-145.48548422605379,-88.01203654091219,0,1.399693250656128,2019-08-07 14:04:34:744
0.23513807356357574,-0.009940605610609055,9.728833198547363,-0.0077183937570650145,-0.004884098039367014,-0.007239174043513418,-146.1471883100385,-89.84920936505148,0,1.4029595851898193,2019-08-07 14:04:34:748
0.24232232570648193,0.030770137906074524,9.817439079284668,-0.005853725863940442,-0.004084954916673665,-0.009902985319405663,-146.79522636509296,-84.45475708282284,0,1.4061834812164307,2019-08-07 14:04:34:751
0.16808508336544037,-0.045861851423978806,9.819833755493164,-0.01331239743643873,-0.0064823853250510115,-0.008304698553870315,-147.43842513839584,-86.3576731252526,0,1.4097113609313965,2019-08-07 14:04:34:755
0.29979631304740906,-0.06980934739112854,9.786307334899902,-0.007452012629475789,-0.006748766452640236,-0.012566796595297908,-148.0533725591408,-88.2210307071388,0,1.412853717803955,2019-08-07 14:04:34:758
0.2758488357067108,0.018796389922499657,9.788702011108398,-0.006386488119118891,-0.004884098039367014,-0.011767653732678886,-148.65920740593342,-82.85774613972032,0,1.4158217906951904,2019-08-07 14:04:34:761
0.20640107989311218,-0.02909860387444496,9.86054515838623,-0.009583061650189587,-0.006216004197461787,-0.010169366967143538,-149.26067646537462,-84.79510681138572,0,1.4197297096252441,2019-08-07 14:04:34:765
0.19682207703590393,0.030770137906074524,9.779123306274414,-0.008251156012243464,-0.004884098039367014,-0.011234891477500435,-149.85154045439742,-79.50135400165505,0,1.4228730201721191,2019-08-07 14:04:34:768
0.22076958417892456,-0.02909860387444496,9.69051742553711,-0.009050299395011138,-0.00435133604426289,-0.00857107968145954,-150.42755140561223,-81.5061046016526,0,1.4263784885406494,2019-08-07 14:04:34:771
0.22076958417892456,-0.0722040981054306,9.896466255187988,-0.006919250374297341,-0.0054168602945454634,-0.007239174043513418,-150.99243596466064,-83.46633753643309,0,1.4296848773956299,2019-08-07 14:04:34:774
0.23992757499217987,-0.05544085055589676,9.81025505065918,-0.007984774884654239,-0.006216004197461787,-0.010435747574584113,-151.5434736133837,-85.38912991487022,0,1.4328186511993408,2019-08-07 14:04:34:778
0.21598008275032043,0.04753338545560837,9.805465698242188,-0.0077183937570650145,-0.0011547622531178697,-0.010702129222321988,-152.08717582044073,-80.08561965767974,0,1.4357781410217285,2019-08-07 14:04:34:781
0.25429606437683105,-0.031493354588747025,9.795886039733887,-0.007452012629475789,-0.0027530490186532175,-0.008304698553870315,-152.61508567386062,-82.07858303100082,0,1.4396979808807373,2019-08-07 14:04:34:784
0.2519013285636902,-0.06023034825921059,9.7982816696167,-0.009050299395011138,-0.0046177169117777896,-0.012566796595297908,-153.1324830160874,-84.02830664707238,0,1.4429662227630615,2019-08-07 14:04:34:788
0.3476913273334503,0.02119114063680172,9.78151798248291,-0.008517537139832687,-0.0056832419422833385,-0.010968509829762562,-153.62815821928453,-78.7487845271433,0,1.4459741115570068,2019-08-07 14:04:34:791
0.23274332284927368,-0.05544085055589676,9.76954460144043,-0.008517537139832687,-0.0022202867634747683,-0.009902985319405663,-154.12783718830048,-80.76552798656206,0,1.4496917724609375,2019-08-07 14:04:34:794
0.26866456866264343,-0.05544085055589676,9.73122787475586,-0.006386488119118891,-0.00435133604426289,-0.010968509829762562,-154.61288685596966,-82.74256674177762,0,1.4528212547302246,2019-08-07 14:04:34:798
0.20400632917881012,-0.06262510269880295,9.771939277648926,-0.004788200833434893,-0.004884098039367014,-0.010435747574584113,-155.0958983782036,-84.67957642185871,0,1.4557793140411377,2019-08-07 14:04:34:801
0.25429606437683105,-0.04825660213828087,9.76954460144043,-0.005320963088613342,-0.008347053218175584,-0.008304698553870315,-155.56231960198642,-86.57915178015996,0,1.459705114364624,2019-08-07 14:04:34:805
0.26148033142089844,-0.04107235372066498,9.855754852294922,-0.007185631501886564,-0.004884098039367014,-0.010435747574584113,-156.01978227630096,-88.44147498766159,0,1.462972640991211,2019-08-07 14:04:34:808
0.23992757499217987,-0.038677603006362915,9.831808090209961,-0.004788200833434893,-0.006216004197461787,-0.010169366967143538,-156.47029046144362,-90.26726118279603,0,1.4662322998046875,2019-08-07 14:04:34:811
0.20640107989311218,-0.07699359953403473,9.855754852294922,-0.005587344736351217,-0.0038185737890844406,-0.008304698553870315,-156.91615006493745,-92.05188126105412,0,1.46968412399292,2019-08-07 14:04:34:814
0.20640107989311218,-0.009940605610609055,9.882097244262695,-0.005320963088613342,-0.0038185737890844406,-0.009902985319405663,-157.35322369283324,-93.80875337204685,0,1.4728221893310547,2019-08-07 14:04:34:818
0.2710593342781067,-0.04825660213828087,9.79349136352539,-0.010648586160546484,-0.0011547622531178697,-0.010435747574584113,-157.77425906700316,-95.52515985368352,0,1.4757859706878662,2019-08-07 14:04:34:821
0.06511084735393524,-0.07699359953403473,9.788702011108398,0.0016049463587436595,-0.008080672090586358,-0.022422898836247866,-158.20934987891013,-97.20600146454807,0,1.479757308959961,2019-08-07 14:04:34:825
-0.5383660793304443,-0.17517833411693573,10.028177261352539,-0.0157098281048904,0.00523838532917217,-0.0051081250227996205,-151.50756946352362,-98.8390267295441,0,1.482975959777832,2019-08-07 14:04:34:828
1.9593578577041626,0.4163248538970947,8.993645668029785,0.035168968825097444,-0.001687524508296319,-0.03014795309678133,-151.83130046164095,-93.32169512531954,0,1.4862377643585205,2019-08-07 14:04:34:831
-1.4004759788513184,-0.685259997844696,10.911839485168457,-0.031692696800541174,-0.0027530490186532175,-0.0037762191247791726,-145.34041490056794,-94.9772680555984,0,1.4896793365478516,2019-08-07 14:04:34:834
1.3558809757232666,-0.2302575707435608,9.599516868591309,-0.07777663759511218,-0.05309908369346262,0.010075600810232132,-145.86348514941423,-96.63657469681017,0,1.4928088188171387,2019-08-07 14:04:34:838
-0.05941613391041756,0.4594303369522095,9.685728073120117,0.06154070513776853,0.033474786414075926,-0.03547557356797122,-139.35879095335392,-91.16835359892212,0,1.4957594871520996,2019-08-07 14:04:34:841
0.26148033142089844,-0.37633731961250305,9.855754852294922,-0.04527813690833488,-0.022465253500553138,0.008210932396958909,-140.13624594994826,-92.89122587465505,0,1.4997029304504395,2019-08-07 14:04:34:845
-0.7467092871665955,-0.10573059320449829,10.09044075012207,0.027710299333193758,0.004972004201582946,-0.02934880919386501,-133.81907261899582,-94.62644521200066,0,1.5029489994049072,2019-08-07 14:04:34:848
1.432512879371643,-0.16320458054542542,9.494148254394531,-0.03329098252577922,-0.012076389004424728,-0.0016451699740282137,-134.56887795656178,-96.30813428582353,0,1.506204605102539,2019-08-07 14:04:34:851
-0.8879995346069336,0.10740213096141815,10.164677619934082,0.01279295410760258,-0.0014211433807070943,-0.015763370126368605,-128.377078027976,-90.7965774979319,0,1.5096826553344727,2019-08-07 14:04:34:854
0.4339022934436798,0.037954386323690414,9.54204273223877,-0.009583061650189587,-0.008347053218175584,-0.01150127208494101,-129.3559996364667,-85.38352215794595,0,1.512808084487915,2019-08-07 14:04:34:858
0.620692789554596,-0.05783560127019882,9.95872974395752,-0.0039890577107415445,0.004972004201582946,-0.009370223064227214,-130.2983780866609,-87.26853327709459,0,1.515770673751831,2019-08-07 14:04:34:861
-0.13844287395477295,-0.1703888326883316,9.750386238098145,-0.01277963518126028,-0.0019539056358855436,-0.011767653732678886,-124.10824908845383,-89.10032159493132,0,1.519697904586792,2019-08-07 14:04:34:864
0.40995481610298157,0.025980640202760696,9.827017784118652,-0.015177065849711954,-0.008080672090586358,-0.004575362767621172,-125.176824190943,-83.71855874782457,0,1.5229671001434326,2019-08-07 14:04:34:868
0.07708460092544556,0.025980640202760696,9.786307334899902,0.011993811244983556,0.008434958860242866,-0.013365940498214234,-126.26583779520934,-78.44947071732336,0,1.5262947082519531,2019-08-07 14:04:34:871
0.13695333898067474,-0.11770433932542801,9.94196605682373,-0.025299549738399783,-0.012342770652162603,0.001817784944706031,-127.32234512449415,-80.46201309010559,0,1.5297455787658691,2019-08-07 14:04:34:875
0.22795382142066956,-0.053046099841594696,9.7982816696167,-0.004788200833434893,-0.0035521926614952163,-0.013898702753392682,-128.34861981998407,-82.44572817811623,0,1.5328733921051025,2019-08-07 14:04:34:878
0.5632187724113464,-0.09615159779787064,9.695306777954102,-0.017840876085306896,-0.008613434345764809,-0.008837460809048764,-129.31370879930097,-84.38245666950817,0,1.5358610153198242,2019-08-07 14:04:34:881
-0.15999561548233032,-0.05544085055589676,9.932387351989746,-0.009849443297927462,0.00017714346610147965,-0.011234891477500435,-123.145930466112,-86.28627140802891,0,1.5397303104400635,2019-08-07 14:04:34:885
0.244717076420784,0.04753338545560837,9.692912101745605,-0.0015916273023641983,-0.00435133604426289,-0.00963660471196509,-124.25332243899236,-80.96588574662798,0,1.5428597927093506,2019-08-07 14:04:34:888
0.5296922922134399,-0.04825660213828087,9.716859817504883,-0.0039890577107415445,-0.001687524508296319,-0.006440030660745744,-125.30556888502424,-82.94021074003051,0,1.545835018157959,2019-08-07 14:04:34:891
0.05074235051870346,-0.1248885914683342,9.824623107910156,-0.012246872926081832,-0.008347053218175584,-0.010702129222321988,-126.39171401372653,-84.86416285474513,0,1.5497291088104248,2019-08-07 14:04:34:895
0.3285333216190338,-0.12728333473205566,9.891676902770996,-0.021037451696972194,-0.005150479166956239,-0.0037762191247791726,-127.42488913055101,-86.74827447886089,0,1.552997350692749,2019-08-07 14:04:34:898
0.33811232447624207,0.018796389922499657,9.506121635437012,0.00027304068828824584,-0.0008883811255286454,-0.011234891477500435,-128.43548719122657,-81.41562507166876,0,1.556276559829712,2019-08-07 14:04:34:901
0.03637385368347168,-0.0003616072062868625,9.877307891845703,-0.010648586160546484,-0.007281528707818685,-0.0032434568696007235,-129.46116301934035,-83.38523123454677,0,1.5596873760223389,2019-08-07 14:04:34:904
0.33811232447624207,-0.005151106510311365,9.786307334899902,-0.013046016828998155,-0.003019430146242442,-0.0051081250227996205,-130.4318344847023,-85.31463274781514,0,1.562814474105835,2019-08-07 14:04:34:908
0.3021910786628723,-0.07459884881973267,9.76954460144043,-0.006386488119118891,-0.0024866678910639927,-0.010968509829762562,-131.38735013293646,-87.19852808562783,0,1.5657763481140137,2019-08-07 14:04:34:911
0.13695333898067474,-0.04825660213828087,9.891676902770996,-0.007185631501886564,-0.0046177169117777896,-0.009370223064227214,-132.34270640877446,-89.04736104000347,0,1.5697572231292725,2019-08-07 14:04:34:915
0.11540059000253677,0.03555963933467865,9.817439079284668,-0.0039890577107415445,-0.0022202867634747683,-0.00963660471196509,-133.2819825682421,-83.6698448682514,0,1.572969675064087,2019-08-07 14:04:34:918
0.35248079895973206,0.023585889488458633,9.788702011108398,-0.005853725863940442,-0.0046177169117777896,-0.007239174043513418,-134.17425272297882,-78.398138116825,0,1.5762279033660889,2019-08-07 14:04:34:921
0.09145309776067734,-0.2039153277873993,9.95872974395752,-0.010914967808284359,-8.92376858697129e-05,-0.0032434568696007235,-135.08022747626475,-80.40459811968971,0,1.579681634902954,2019-08-07 14:04:34:924
0.28063830733299255,-0.14883609116077423,9.795886039733887,-0.010115823905368035,-0.008080672090586358,-0.004042600252368397,-135.9443840774189,-82.37732042587457,0,1.5828089714050293,2019-08-07 14:04:34:928
0.34050706028938293,-0.0267038531601429,9.73122787475586,-0.004788200833434893,-0.00435133604426289,-0.011234891477500435,-136.7846933194114,-84.32583443423238,0,1.585766077041626,2019-08-07 14:04:34:931
0.18005883693695068,-0.04346710070967674,9.846176147460938,-0.007185631501886564,-0.008879815473354034,-0.0035098379971899483,-137.62608952658772,-86.23267562524418,0,1.5896904468536377,2019-08-07 14:04:34:934
0.2974015772342682,-0.038677603006362915,9.836597442626953,-0.006386488119118891,-0.005150479166956239,-0.009902985319405663,-138.43798942092155,-88.10234704142647,0,1.5929512977600098,2019-08-07 14:04:34:938
0.2854278087615967,-0.038677603006362915,9.736018180847168,-0.006386488119118891,-0.005150479166956239,-0.004042600252368397,-139.23470383665216,-89.93458104763808,0,1.5962049961090088,2019-08-07 14:04:34:941
0.17526933550834656,-0.05783560127019882,9.795886039733887,-0.010648586160546484,-0.0056832419422833385,-0.006972792915924193,-140.0283991766136,-91.72704435473233,0,1.5996830463409424,2019-08-07 14:04:34:944
0.22316433489322662,0.03555963933467865,9.786307334899902,-0.004521819705845669,-0.0027530490186532175,-0.007239174043513418,-140.8012216504324,-86.2958740795491,0,1.6028070449829102,2019-08-07 14:04:34:948
0.26866456866264343,0.004427892155945301,9.79349136352539,-0.005320963088613342,-0.001687524508296319,-0.006972792915924193,-141.55348796992917,-80.96958784977704,0,1.6057753562927246,2019-08-07 14:04:34:951
0.16329558193683624,-0.019519604742527008,9.824623107910156,-0.008251156012243464,-0.0024866678910639927,-0.005374506150388846,-142.30282273325437,-82.94609138910951,0,1.6097209453582764,2019-08-07 14:04:34:955
0.23034857213497162,-0.06501984596252441,9.78151798248291,-0.008251156012243464,-0.0027530490186532175,-0.006706411788334968,-143.02928105081912,-84.87804011372694,0,1.612985372543335,2019-08-07 14:04:34:958
0.18963783979415894,-0.0267038531601429,9.805465698242188,-0.005054581961024118,-0.004884098039367014,-0.004308981379957623,-143.74563962033625,-86.7764307300402,0,1.6162545680999756,2019-08-07 14:04:34:961
0.18005883693695068,-0.005151106510311365,9.82222843170166,-0.007984774884654239,-0.0056832419422833385,-0.007239174043513418,-144.44861871366857,-88.63875034731821,0,1.619713544845581,2019-08-07 14:04:34:965
0.21358533203601837,-0.053046099841594696,9.82222843170166,-0.0077183937570650145,-0.003019430146242442,-0.006440030660745744,-145.1342035430814,-90.4584353288333,0,1.6228318214416504,2019-08-07 14:04:34:968
0.26866456866264343,-0.045861851423978806,9.73122787475586,-0.007185631501886564,-0.00435133604426289,-0.0051081250227996205,-145.79916648535385,-92.24267051884495,0,1.6257951259613037,2019-08-07 14:04:34:971
0.22076958417892456,-0.03628285229206085,9.764754295349121,-0.011714110670903381,-0.005949623069872562,-0.006440030660745744,-146.45597584034735,-93.9909919742389,0,1.6296982765197754,2019-08-07 14:04:34:974
0.27345407009124756,-0.017124855890870094,9.81025505065918,-0.008251156012243464,-0.00435133604426289,-0.008038317426281092,-147.09412347851915,-95.70765575932387,0,1.6329705715179443,2019-08-07 14:04:34:978
0.18963783979415894,0.014006891287863255,9.76954460144043,-0.007984774884654239,-0.007814290962997135,-0.00617364953315652,-147.72856680472034,-90.19368081457128,0,1.636237621307373,2019-08-07 14:04:34:981
0.2183748334646225,-0.04107235372066498,9.853360176086426,-0.009316680002451712,-0.0054168602945454634,-0.006440030660745744,-148.34755326358965,-91.98322463376303,0,1.6396899223327637,2019-08-07 14:04:34:984
0.23034857213497162,-0.009940605610609055,9.762359619140625,-0.009050299395011138,-0.006216004197461787,-0.0051081250227996205,-148.95247422763526,-93.74079983445955,0,1.6428256034851074,2019-08-07 14:04:34:988
0.26626983284950256,-0.009940605610609055,9.824623107910156,-0.012246872926081832,-0.0019539056358855436,-0.005374506150388846,-149.54205094683707,-95.46279074676526,0,1.6457829475402832,2019-08-07 14:04:34:991
0.20400632917881012,-0.045861851423978806,9.73122787475586,-0.006120106991529666,-0.0027530490186532175,-0.006440030660745744,-150.12658527543678,-97.1467892977014,0,1.6496973037719727,2019-08-07 14:04:34:994
0.2854278087615967,0.014006891287863255,9.795886039733887,-0.005587344736351217,-0.0035521926614952163,-0.005640887277978069,-150.6900234842478,-91.60446900419582,0,1.6529581546783447,2019-08-07 14:04:34:998
0.23034857213497162,-0.005151106510311365,9.719254493713379,-0.005587344736351217,-0.005150479166956239,-0.008304698553870315,-151.24812515234987,-93.37074770738883,0,1.656224012374878,2019-08-07 14:04:35:001
0.15611134469509125,0.014006891287863255,9.92999267578125,-0.009583061650189587,-0.005150479166956239,-0.007505555171102641,-151.80414312395,-87.90307764384602,0,1.6597020626068115,2019-08-07 14:04:35:005
0.24711182713508606,-0.019519604742527008,9.7982816696167,-0.0077183937570650145,-0.0024866678910639927,-0.005640887277978069,-152.3387285370131,-89.74137388716561,0,1.6628386974334717,2019-08-07 14:04:35:008
0.2974015772342682,-0.04107235372066498,9.762359619140625,-0.005853725863940442,-0.0064823853250510115,-0.004575362767621172,-152.85594918172458,-91.54072632885597,0,1.6658780574798584,2019-08-07 14:04:35:011
0.23034857213497162,-0.04346710070967674,9.836597442626953,-0.008517537139832687,-0.005150479166956239,-0.007239174043513418,-153.37088865510012,-93.30300923731018,0,1.6697230339050293,2019-08-07 14:04:35:015
0.244717076420784,-0.05783560127019882,9.764754295349121,-0.006919250374297341,-0.003285811533905992,-0.005907268405567294,-153.8741794816654,-95.0289420693633,0,1.6728630065917969,2019-08-07 14:04:35:018
0.2758488357067108,-0.09136209636926651,9.745596885681152,-0.0077183937570650145,-0.005949623069872562,-0.0077719362986918665,-154.36327718001624,-96.71633366855207,0,1.6758332252502441,2019-08-07 14:04:35:021
0.18005883693695068,-0.012335355393588543,9.86054515838623,-0.006919250374297341,-0.00435133604426289,-0.008304698553870315,-154.8541360416936,-98.37905824897969,0,1.6797332763671875,2019-08-07 14:04:35:025
0.21598008275032043,-0.012335355393588543,9.767149925231934,-0.007185631501886564,-0.008080672090586358,-0.006440030660745744,-155.330299286787,-100.00876835363925,0,1.6828598976135254,2019-08-07 14:04:35:028
0.21358533203601837,-0.05783560127019882,9.884491920471191,-0.008517537139832687,-0.0054168602945454634,-0.008038317426281092,-155.7980330198225,-101.60046818178917,0,1.6858289241790771,2019-08-07 14:04:35:031
0.22076958417892456,-0.02909860387444496,9.81025505065918,-0.007984774884654239,-0.006748766452640236,-0.006706411788334968,-156.25481632841385,-103.16331740874544,0,1.6897153854370117,2019-08-07 14:04:35:035
0.2566908299922943,-0.053046099841594696,9.83899211883545,-0.006386488119118891,-0.005949623069872562,-0.010169366967143538,-156.69873518471863,-104.6926969159165,0,1.6929950714111328,2019-08-07 14:04:35:038
0.26866456866264343,-0.06501984596252441,9.764754295349121,-0.007452012629475789,-0.0038185737890844406,-0.006972792915924193,-157.1325382756807,-106.18984334309422,0,1.696268081665039,2019-08-07 14:04:35:041
0.2710593342781067,-0.031493354588747025,9.803071022033691,-0.008783917747273263,-0.006216004197461787,-0.0037762191247791726,-157.55701154104278,-107.66067085670946,0,1.6997032165527344,2019-08-07 14:04:35:045
0.20161157846450806,-0.03628285229206085,9.855754852294922,-0.009316680002451712,-0.0024866678910639927,-0.00617364953315652,-157.98199581097688,-109.1015991531049,0,1.7028377056121826,2019-08-07 14:04:35:048
0.23513807356357574,-0.04346710070967674,9.78151798248291,-0.006386488119118891,-0.004084954916673665,-0.006972792915924193,-158.39394063304226,-110.5131087427311,0,1.7066476345062256,2019-08-07 14:04:35:051
0.23992757499217987,-0.009940605610609055,9.867729187011719,-0.002390770685131872,-0.007547909835407911,-0.019226325305177174,-158.7968842361385,-111.9012738117855,0,1.7097642421722412,2019-08-07 14:04:35:055
-0.5982348322868347,-0.12967808544635773,9.90125560760498,-0.009316680002451712,0.002308192665616375,-0.010702129222321988,-152.09050101301716,-113.24661757454406,0,1.7128674983978271,2019-08-07 14:04:35:058
1.9713315963745117,0.44027233123779297,9.046329498291016,0.030906872864264454,-0.0056832419422833385,-0.02961518980130558,-152.40186694473903,-107.44260773406884,0,1.7158617973327637,2019-08-07 14:04:35:061
-1.7692674398422241,-0.3883110582828522,10.490364074707031,-0.021570212911853345,-0.0019539056358855436,-0.00617364953315652,-145.94487129885675,-108.84669334640357,0,1.7197129726409912,2019-08-07 14:04:35:065
1.3989864587783813,-0.2637840807437897,9.654596328735352,-0.08150597026046943,-0.05496375418733043,0.018067034637908867,-146.4514410270471,-110.22417328767085,0,1.7228343486785889,2019-08-07 14:04:35:068
-0.021100139245390892,0.5240885615348816,9.573174476623535,0.07006489705943451,0.0358722181228249,-0.03627471747088755,-139.93091865705264,-104.49404251186382,0,1.7258036136627197,2019-08-07 14:04:35:071
0.4147443175315857,-0.31646856665611267,9.855754852294922,-0.05273680640023857,-0.03178859348632465,0.013272174341302826,-140.67715330509577,-105.95584293286169,0,1.7296993732452393,2019-08-07 14:04:35:075
-0.7059985399246216,-0.11291484534740448,10.042545318603516,0.02824306054807491,0.00870133998783209,-0.031479858214578806,-134.34563053481907,-107.42901581491755,0,1.732961654663086,2019-08-07 14:04:35:078
1.4277234077453613,-0.16080982983112335,9.38159465789795,-0.033823745821254976,-0.009678958335973056,-0.0037762191247791726,-135.08389174463608,-108.85462855190274,0,1.7362086772918701,2019-08-07 14:04:35:081
-0.8305255174636841,0.1624813675880432,10.13115119934082,0.01332571636278103,-0.0027530490186532175,-0.012833178243035783,-128.87540785288968,-103.09850514263145,0,1.7396738529205322,2019-08-07 14:04:35:084
0.38600730895996094,-0.024309104308485985,9.494148254394531,-0.01144773006346281,-0.012076389004424728,-0.008837460809048764,-129.84922239259578,-104.63159799624341,0,1.7427899837493896,2019-08-07 14:04:35:088
0.6182980537414551,-0.0985463410615921,9.925203323364258,-0.002390770685131872,0.00523838532917217,-0.010968509829762562,-130.781820072672,-106.12718907543432,0,1.7457671165466309,2019-08-07 14:04:35:091
-0.028284389525651932,-0.18475733697414398,9.86054515838623,-0.01331239743643873,-0.0006219999979394207,-0.013898702753392682,-124.56933420990023,-107.58025651397915,0,1.749673843383789,2019-08-07 14:04:35:094
0.45784980058670044,0.02119114063680172,9.882097244262695,-0.019971927186615297,-0.0054168602945454634,-0.005640887277978069,-125.62390218763426,-101.82745269343619,0,1.7529339790344238,2019-08-07 14:04:35:098
0.49616578221321106,0.1169811263680458,9.594727516174316,0.01119466734206723,0.007902196605064417,-0.015230607871190155,-126.65366460762327,-96.20692226803519,0,1.7561922073364258,2019-08-07 14:04:35:101
0.07708460092544556,-0.14883609116077423,9.913228988647461,-0.02210297620732909,-0.01394105741769795,-0.001911551101617438,-127.7089357725755,-97.86122813012993,0,1.7596991062164307,2019-08-07 14:04:35:104
0.29500681161880493,-0.06501984596252441,9.76954460144043,-0.005853725863940442,-0.008080672090586358,-0.010702129222321988,-128.71875236815032,-99.4953539886605,0,1.7628121376037598,2019-08-07 14:04:35:108
0.5368765592575073,0.025980640202760696,9.750386238098145,-0.0077183937570650145,-0.0019539056358855436,-0.010435747574584113,-129.6810195742838,-93.90721684993562,0,1.7657735347747803,2019-08-07 14:04:35:111
-0.13844287395477295,-0.021914353594183922,9.882097244262695,-0.008517537139832687,-0.0046177169117777896,-0.011234891477500435,-123.50243723480202,-95.62465996598483,0,1.7696864604949951,2019-08-07 14:04:35:114
0.2974015772342682,0.03555963933467865,9.671359062194824,-0.0029235329403103213,-0.005150479166956239,-0.011234891477500435,-124.59621851350376,-90.11584460378512,0,1.7729482650756836,2019-08-07 14:04:35:118
0.34050706028938293,-0.012335355393588543,9.867729187011719,-0.004521819705845669,-0.0006219999979394207,-0.008304698553870315,-125.66465347751539,-91.9112658559466,0,1.776214838027954,2019-08-07 14:04:35:121
0.04595285281538963,-0.10812534391880035,9.81025505065918,-0.005054581961024118,-0.006748766452640236,-0.00963660471196509,-126.74467688714563,-93.65942558921736,0,1.7796874046325684,2019-08-07 14:04:35:124
0.29261207580566406,-0.1512308418750763,9.78151798248291,-0.01624259036006885,-0.008080672090586358,-0.00857107968145954,-127.77409434816408,-95.36566856861464,0,1.78281569480896,2019-08-07 14:04:35:128
0.41713905334472656,0.0714808851480484,9.728833198547363,-0.002390770685131872,-0.004884098039367014,-0.014431465008571131,-128.7686303780591,-89.8663440782842,0,1.7860217094421387,2019-08-07 14:04:35:131
-0.006731641478836536,-0.05065134912729263,9.894071578979492,-0.013046016828998155,-0.006748766452640236,-0.005640887277978069,-122.59263930025,-91.66044819226948,0,1.7897112369537354,2019-08-07 14:04:35:135
0.33332282304763794,-0.045861851423978806,9.719254493713379,-0.009050299395011138,-0.007814290962997135,-0.00963660471196509,-123.70012813162663,-93.42024018950703,0,1.7928438186645508,2019-08-07 14:04:35:138
0.3620598018169403,-0.10094109177589417,9.69051742553711,-0.007185631501886564,-0.0019539056358855436,-0.00963660471196509,-124.7830048844069,-95.1386984112724,0,1.7958204746246338,2019-08-07 14:04:35:141
0.14892709255218506,-0.0075458562932908535,9.762359619140625,-0.016508970967509425,-0.007015147580229461,-0.010968509829762562,-125.86832419438811,-96.83141283898861,0,1.799731969833374,2019-08-07 14:04:35:145
0.14413759112358093,0.004427892155945301,9.841386795043945,-0.0037226765831523197,-0.004084954916673665,-0.008304698553870315,-126.93342551902786,-91.29461645741415,0,1.8030028343200684,2019-08-07 14:04:35:148
0.39798104763031006,-0.05544085055589676,9.762359619140625,-0.004788200833434893,-0.0038185737890844406,-0.008837460809048764,-127.94735284156712,-93.06132043506774,0,1.806335687637329,2019-08-07 14:04:35:151
0.16090083122253418,-0.16320458054542542,9.788702011108398,-0.010115823905368035,-0.005949623069872562,-0.009902985319405663,-128.96842068295453,-94.77903338065771,0,1.8097808361053467,2019-08-07 14:04:35:155
0.28782257437705994,-0.1248885914683342,9.812649726867676,-0.01384515969161718,-0.0027530490186532175,-0.009902985319405663,-129.95496649377768,-96.46643676711439,0,1.8129096031188965,2019-08-07 14:04:35:158
0.28063830733299255,0.0020331426057964563,9.79349136352539,-0.0034562954555630953,-0.0038185737890844406,-0.009902985319405663,-130.9223917714335,-90.93675986941803,0,1.8159294128417969,2019-08-07 14:04:35:161
0.18963783979415894,-0.03388810157775879,9.81025505065918,-0.007984774884654239,-0.0035521926614952163,-0.009103842456786639,-131.8810406692382,-92.71236956752064,0,1.819713830947876,2019-08-07 14:04:35:165
0.19682207703590393,-0.06980934739112854,9.889281272888184,-0.005853725863940442,-0.006748766452640236,-0.009370223064227214,-132.81942995071003,-94.44900425663954,0,1.8228442668914795,2019-08-07 14:04:35:168
0.32134905457496643,-0.07699359953403473,9.678544044494629,-0.009316680002451712,-0.003019430146242442,-0.009370223064227214,-133.72450663921896,-96.14936031388494,0,1.8258037567138672,2019-08-07 14:04:35:171
0.15371659398078918,-0.045861851423978806,9.776728630065918,-0.011714110670903381,-0.006748766452640236,-0.007505555171102641,-134.63051778588525,-97.81842309766732,0,1.8297181129455566,2019-08-07 14:04:35:175
0.244717076420784,0.018796389922499657,9.724043846130371,-0.005853725863940442,-0.0038185737890844406,-0.011234891477500435,-135.50837433959248,-92.2631952839851,0,1.832986831665039,2019-08-07 14:04:35:178
0.28063830733299255,0.059507135301828384,9.791096687316895,-0.006652869246708115,-0.0019539056358855436,-0.010702129222321988,-136.36501379523776,-86.8236798203456,0,1.8362419605255127,2019-08-07 14:04:35:181
0.24232232570648193,-0.045861851423978806,9.7982816696167,-0.004521819705845669,-0.0056832419422833385,-0.011767653732678886,-137.20828143788853,-88.68096899632948,0,1.8396830558776855,2019-08-07 14:04:35:184
0.29261207580566406,-0.0267038531601429,9.764754295349121,-0.007984774884654239,-0.006748766452640236,-0.00963660471196509,-138.02860097004452,-90.50281214174267,0,1.8428139686584473,2019-08-07 14:04:35:188
0.18963783979415894,-0.06262510269880295,9.721649169921875,-0.005853725863940442,-0.0035521926614952163,-0.0051081250227996205,-138.84508721493415,-92.28439951865543,0,1.8457794189453125,2019-08-07 14:04:35:191
0.18005883693695068,-0.005151106510311365,9.755175590515137,-0.007452012629475789,-0.003019430146242442,-0.00617364953315652,-139.64637026726726,-94.03646137607777,0,1.8497109413146973,2019-08-07 14:04:35:195
0.2375328242778778,-0.012335355393588543,9.836597442626953,-0.007984774884654239,-0.0056832419422833385,-0.00963660471196509,-140.4247349498027,-95.75283134040944,0,1.852975845336914,2019-08-07 14:04:35:198
0.3476913273334503,-0.03388810157775879,9.882097244262695,-0.006120106991529666,-0.0024866678910639927,-0.007505555171102641,-141.1754831262938,-97.43272306337529,0,1.85624098777771,2019-08-07 14:04:35:201
0.23034857213497162,-0.012335355393588543,9.827017784118652,-0.009316680002451712,-0.00435133604426289,-0.009103842456786639,-141.92427739381782,-99.08083092510536,0,1.859680414199829,2019-08-07 14:04:35:204
0.2782435715198517,-0.0075458562932908535,9.858149528503418,-0.009316680002451712,-0.00435133604426289,-0.006706411788334968,-142.6526933588317,-100.69670154280054,0,1.862807035446167,2019-08-07 14:04:35:208
0.199216827750206,0.030770137906074524,9.776728630065918,-0.007984774884654239,-0.008347053218175584,-0.009370223064227214,-143.3749041835999,-95.08504565532412,0,1.865769863128662,2019-08-07 14:04:35:211
0.18005883693695068,-0.0985463410615921,9.724043846130371,-0.0077183937570650145,-0.004084954916673665,-0.009370223064227214,-144.08529055503882,-96.7700330783475,0,1.869690179824829,2019-08-07 14:04:35:214
0.23992757499217987,-0.0027563569601625204,9.791096687316895,-0.010914967808284359,-0.0022202867634747683,-0.00963660471196509,-144.7751026928566,-98.43230709435078,0,1.8729579448699951,2019-08-07 14:04:35:218
0.244717076420784,0.006822641938924789,9.721649169921875,-0.007185631501886564,-0.004884098039367014,-0.011234891477500435,-145.4498682196371,-92.86315122326822,0,1.8762145042419434,2019-08-07 14:04:35:221
0.24950657784938812,-0.005151106510311365,9.867729187011719,-0.007452012629475789,-0.003285811533905992,-0.009370223064227214,-146.11126280518386,-94.60383938326395,0,1.8796813488006592,2019-08-07 14:04:35:224
0.2830330729484558,-0.021914353594183922,9.779123306274414,-0.011980492318641258,-0.009146196080794608,-0.00963660471196509,-146.75427547192547,-96.30709155345204,0,1.882807731628418,2019-08-07 14:04:35:228
0.23513807356357574,-0.014730105176568031,9.829413414001465,-0.005853725863940442,-0.0046177169117777896,-0.008038317426281092,-147.39101396077743,-97.97825793915047,0,1.885772705078125,2019-08-07 14:04:35:231
0.22076958417892456,-0.06262510269880295,9.800676345825195,-0.009849443297927462,-0.007814290962997135,-0.009103842456786639,-148.0156627801811,-99.60919960995146,0,1.8896982669830322,2019-08-07 14:04:35:234
0.24950657784938812,-0.0027563569601625204,9.815044403076172,-0.010648586160546484,-0.0014211433807070943,-0.009370223064227214,-148.62596506556235,-101.21474109977582,0,1.8929641246795654,2019-08-07 14:04:35:238
0.13455858826637268,-0.03628285229206085,9.786307334899902,-0.006652869246708115,-0.004884098039367014,-0.008038317426281092,-149.23679776692433,-102.78498137762087,0,1.8962204456329346,2019-08-07 14:04:35:241
0.2590855658054352,-0.04107235372066498,9.71207046508789,-0.007984774884654239,-0.0024866678910639927,-0.00857107968145954,-149.82101430371264,-104.32287655176853,0,1.89969801902771,2019-08-07 14:04:35:244
0.17047983407974243,-0.05065134912729263,9.78151798248291,-0.007984774884654239,-0.004884098039367014,-0.009902985319405663,-150.4037685210784,-105.82908640357942,0,1.902817964553833,2019-08-07 14:04:35:248
0.23274332284927368,-0.06023034825921059,9.75278091430664,-0.006386488119118891,-0.0056832419422833385,-0.010435747574584113,-150.9674057005231,-107.30436468213192,0,1.90578293800354,2019-08-07 14:04:35:251
0.21358533203601837,-0.06741459667682648,9.745596885681152,-0.005853725863940442,-0.003285811533905992,-0.012034034340119461,-151.52222151717962,-108.74905714260905,0,1.9097185134887695,2019-08-07 14:04:35:255
0.23513807356357574,-0.017124855890870094,9.755175590515137,-0.0077183937570650145,-0.00435133604426289,-0.013365940498214234,-152.06337047613232,-110.17066151182792,0,1.9129555225372314,2019-08-07 14:04:35:258
