ACCELEROMETER X (m/s²),ACCELEROMETER Y (m/s²),ACCELEROMETER Z (m/s²),GYROSCOPE X (rad/s),GYROSCOPE Y (rad/s),GYROSCOPE Z (rad/s),Pitch (Deg),Roll (Deg),Heading (Deg),Time since start in ms ,YYYY-MO-DD HH-MI-SS_SSS
0.037353307008743286,-0.11151391267776489,9.787018775939941,-0.001534355424951096,-0.005220537468530785,1.1454389502251989e-05,-3.595626499754794,-3.586943930064991,0,0.0,2019-08-06 15:40:33:614
0.008616309612989426,-0.12827716767787933,9.980993270874023,-0.003132642320523606,-0.0030894884478169893,0.002941646856986388,-7.122196531143468,-7.099942809318663,0,0.0030448436737060547,2019-08-06 15:40:33:617
0.03256380558013916,-0.05164517089724541,9.969019889831543,0.00033031263071992917,-0.003888631830584663,-0.0010540701868891429,-10.575178898461278,-10.552078066510738,0,0.006848812103271484,2019-08-06 15:40:33:621
0.022984808310866356,-0.06361892074346542,9.8229398727417,-0.00020244967322245603,-0.0028231073202277645,-0.0013204513144783674,-13.960497454562333,-13.933579403742279,0,0.009981155395507812,2019-08-06 15:40:33:624
0.006221559830009937,-0.09235591441392899,9.870835304260254,0.0005966937908184444,-0.003622250702995438,0.0018761223466294901,-17.279944980990805,-17.244288608901154,0,0.013030767440795898,2019-08-06 15:40:33:627
-0.02251543663442135,-0.09475066512823105,9.858860969543457,-0.0012679742973618717,-0.0014912016822816417,0.003208027984575613,-13.336641788079763,-20.488116906030054,0,0.016868114471435547,2019-08-06 15:40:33:631
0.06609030067920685,-0.10911916196346283,9.83491325378418,-0.004198166830880505,-0.004687775213352337,0.0016097412190402653,-16.66138293376681,-23.66490167501795,0,0.020004749298095703,2019-08-06 15:40:33:634
-0.07041043043136597,-0.06122417002916336,9.86365032196045,-0.0028662611929343817,-0.006818824754214785,0.0002778355485848519,-12.735170956150975,-26.78400163058168,0,0.02304530143737793,2019-08-06 15:40:33:637
0.056511301547288895,-0.05643467232584953,9.796597480773926,-0.0010015931047540657,-0.002023963937460091,0.0021425034742187147,-16.073422725060233,-29.84150533774345,0,0.0268704891204834,2019-08-06 15:40:33:641
0.01819530874490738,-0.1498299092054367,9.861255645751953,-0.001534355424951096,-0.0033558695754062136,0.0018761223466294901,-19.349252461416178,-32.826997172650145,0,0.02998805046081543,2019-08-06 15:40:33:644
-0.07280518114566803,-0.14504040777683258,9.854071617126465,-0.001534355424951096,-0.00255672619263854,0.0021425034742187147,-15.37029733627216,-35.753330057388304,0,0.03302741050720215,2019-08-06 15:40:33:647
0.02537955716252327,-0.13546140491962433,9.92591381072998,-0.00393178570329128,-0.002023963937460091,0.0013433600914510408,-18.659526582747176,-38.62178113876376,0,0.03685355186462402,2019-08-06 15:40:33:651
0.030169056728482246,-0.10911916196346283,9.775045394897461,0.0005966937908184444,-0.006286061978887684,0.0021425034742187147,-21.881693871354464,-41.43665909175373,0,0.03998565673828125,2019-08-06 15:40:33:654
0.03495855629444122,-0.00853967759758234,9.79420280456543,0.0011294561110154748,-0.004421394085763112,0.004007171627417612,-25.03921793289577,-44.20711886054286,0,0.0430145263671875,2019-08-06 15:40:33:657
-0.03927868604660034,-0.09235591441392899,9.854071617126465,-0.001534355424951096,-0.003622250702995438,0.0002778355485848519,-20.942218021791135,-46.911905110949746,0,0.046865224838256836,2019-08-06 15:40:33:661
0.04453755542635918,-0.1043296679854393,9.889992713928223,0.0013958372386046994,-0.005220537468530785,0.0016097412190402653,-24.117293920589688,-49.561824996343994,0,0.05000162124633789,2019-08-06 15:40:33:664
0.020590057596564293,-0.07559266686439514,9.878019332885742,-0.001534355424951096,-0.0028231073202277645,0.0021425034742187147,-27.23207771002104,-52.16155758613383,0,0.05304074287414551,2019-08-06 15:40:33:667
-0.008146938867866993,-0.1043296679854393,9.949861526489258,-0.0020671176801295454,-0.0028231073202277645,-0.0010540701868891429,-23.087771209630137,-54.70586964485347,0,0.05684614181518555,2019-08-06 15:40:33:671
-0.012936437502503395,-0.09954016655683517,9.827729225158691,-0.0028662611929343817,-0.003622250702995438,0.0013433600914510408,-19.02688680153222,-57.19964189136145,0,0.059979915618896484,2019-08-06 15:40:33:674
0.03256380558013916,-0.07319791615009308,9.889992713928223,-0.0004688308170663259,-0.0022903450650493154,0.0013433600914510408,-22.24218259062144,-59.647087508380196,0,0.06303930282592773,2019-08-06 15:40:33:677
0.11877479404211044,-0.08277691900730133,9.839703559875488,-0.0020671176801295454,-0.003888631830584663,0.0018761223466294901,-25.382670882330622,-62.044061302836845,0,0.06686997413635254,2019-08-06 15:40:33:681
0.006221559830009937,-0.0588294193148613,9.909151077270508,-0.0018007365525403206,-0.0022903450650493154,0.002941646856986388,-28.473895132149785,-64.39606025702682,0,0.07000255584716797,2019-08-06 15:40:33:684
0.02537955716252327,-0.06840842217206955,9.832518577575684,6.393147468507523e-05,-0.00255672619263854,0.0010769789638618162,-31.501006176739633,-66.70017796063613,0,0.07315969467163086,2019-08-06 15:40:33:687
0.008616309612989426,-0.0324871726334095,9.827729225158691,-0.004730929346133278,0.0009062286610771233,0.0037407904998283874,-34.470168850848395,-68.96140776983681,0,0.0768437385559082,2019-08-06 15:40:33:691
0.02537955716252327,-0.020513426512479782,9.921124458312988,0.0019285994937831485,-0.004421394085763112,0.0016097412190402653,-37.37705667468612,-71.18014936394188,0,0.07997512817382812,2019-08-06 15:40:33:694
0.022984808310866356,-0.10672441124916077,9.801386833190918,-0.001534355424951096,-0.0022903450650493154,0.00507269613777451,-40.226447097830025,-73.34381395052098,0,0.08293938636779785,2019-08-06 15:40:33:697
0.037353307008743286,-0.06601367145776749,9.820545196533203,-0.002599880065345157,-0.0030894884478169893,0.0016097412190402653,-43.01699420170956,-75.4687591619445,0,0.08619856834411621,2019-08-06 15:40:33:700
0.05172180384397507,-0.08038216829299927,9.897176742553711,-0.002333498937755932,-0.0030894884478169893,0.0042735527550068365,-45.749968097138385,-77.54955030611471,0,0.09022116661071777,2019-08-06 15:40:33:704
-0.02251543663442135,-0.05403992161154747,9.83491325378418,-0.00020244967322245603,-0.003888631830584663,0.005339077265363735,-41.23691713709693,-79.59222775737587,0,0.09331250190734863,2019-08-06 15:40:33:707
0.04693230614066124,-0.10193491727113724,9.803781509399414,-0.0004688308170663259,-0.004954156340941561,0.0026752657293971638,-44.005716822660396,-81.58837656895344,0,0.09682226181030273,2019-08-06 15:40:33:711
-0.027304936200380325,-0.013329177163541317,9.904361724853516,-0.0036654045757020556,-0.004687775213352337,0.0042735527550068365,-39.52793642750654,-83.55442166485881,0,0.09995722770690918,2019-08-06 15:40:33:714
0.015800558030605316,-0.10672441124916077,9.84449291229248,0.0016622183661939237,-0.005220537468530785,0.004007171627417612,-42.33466439686288,-85.47118912739127,0,0.10293912887573242,2019-08-06 15:40:33:717
0.056511301547288895,-0.08038216829299927,9.842098236083984,-0.0020671176801295454,-0.006286061978887684,0.002408884601807939,-45.08006995350853,-87.35197205408706,0,0.10668349266052246,2019-08-06 15:40:33:720
0.08764304965734482,-0.09954016655683517,9.8229398727417,-0.0007352119771648412,-0.003622250702995438,0.003474409372239163,-47.76754699258923,-89.19317934145604,0,0.11011362075805664,2019-08-06 15:40:33:724
0.015800558030605316,-0.04685567319393158,9.784624099731445,-0.004198166830880505,-0.0028231073202277645,0.0002778355485848519,-50.40987014798705,-91.00312132962914,0,0.1131129264831543,2019-08-06 15:40:33:727
0.0014320602640509605,-0.08038216829299927,9.839703559875488,-0.0010015931047540657,-0.00255672619263854,0.003208027984575613,-53.000971407217975,-92.77348852307384,0,0.1168365478515625,2019-08-06 15:40:33:731
0.02537955716252327,-0.09954016655683517,9.86365032196045,-0.001534355424951096,-0.0006920582344953867,0.0002778355485848519,-55.53788128937149,-94.50618405352846,0,0.11998152732849121,2019-08-06 15:40:33:734
-0.0033574390690773726,-0.11869816482067108,9.815755844116211,0.00033031263071992917,-0.003622250702995438,0.005871839520542184,-50.82690976414217,-96.20225917866661,0,0.12296032905578613,2019-08-06 15:40:33:737
-0.0033574390690773726,-0.0588294193148613,9.870835304260254,0.0016622183661939237,-0.004687775213352337,0.0037407904998283874,-46.20973885317686,-97.87174706553341,0,0.1268448829650879,2019-08-06 15:40:33:741
0.08524829894304276,-0.06601367145776749,9.837308883666992,0.0024613618789987605,-0.0030894884478169893,0.0008105978362725917,-48.87507209850827,-99.50705427794787,0,0.12996888160705566,2019-08-06 15:40:33:744
0.013405809178948402,-0.12348766624927521,9.866044998168945,0.0011294561110154748,-0.0006920582344953867,0.002408884601807939,-51.495897743098126,-101.10276026198552,0,0.1329505443572998,2019-08-06 15:40:33:747
-0.041673433035612106,-0.07319791615009308,9.87322998046875,-0.0012679742973618717,-0.004421394085763112,0.005605458392952959,-46.87000790451288,-102.67197776095819,0,0.13620758056640625,2019-08-06 15:40:33:750
-0.0033574390690773726,-0.07559266686439514,9.791808128356934,0.00033031263071992917,-0.0030894884478169893,-0.0005213078992014032,-42.33229941025878,-104.20976689806301,0,0.14024996757507324,2019-08-06 15:40:33:754
0.10680104792118073,-0.027697674930095673,9.854071617126465,-0.00020244967322245603,-0.005753299723709235,0.002941646856986388,-45.07225139013481,-105.72231606392262,0,0.14329218864440918,2019-08-06 15:40:33:757
0.04453755542635918,-0.0851716697216034,9.894782066345215,-0.003132642320523606,-0.003888631830584663,0.0005442166761740764,-47.76487757527347,-107.19738519934987,0,0.14682292938232422,2019-08-06 15:40:33:761
0.03495855629444122,-0.10193491727113724,9.842098236083984,-0.0020671176801295454,-0.004687775213352337,0.0013433600914510408,-50.40468438555602,-108.6412056552277,0,0.14995884895324707,2019-08-06 15:40:33:764
-0.012936437502503395,-0.06840842217206955,9.837308883666992,-0.0018007365525403206,-0.004421394085763112,0.003208027984575613,-45.797356620733545,-110.06011120699874,0,0.15294361114501953,2019-08-06 15:40:33:767
-0.000962689402513206,-0.0851716697216034,9.849282264709473,-0.0036654045757020556,-0.00015929593055300162,0.0008105978362725917,-41.28149251792561,-111.44833321873163,0,0.15618300437927246,2019-08-06 15:40:33:770
0.003826810047030449,-0.10911916196346283,9.787018775939941,0.0024613618789987605,-0.0028231073202277645,0.0005442166761740764,-44.05477287229095,-112.80715034120675,0,0.160231351852417,2019-08-06 15:40:33:774
-0.0033574390690773726,-0.11151391267776489,9.878019332885742,-0.001534355424951096,-0.003622250702995438,0.0021425034742187147,-39.57345139496791,-114.13781080947912,0,0.16325759887695312,2019-08-06 15:40:33:777
0.05172180384397507,-0.11390866339206696,9.827729225158691,-0.002333498937755932,-0.0054869185961200105,0.0026752657293971638,-42.37484645434204,-115.44130338924332,0,0.16684484481811523,2019-08-06 15:40:33:781
0.015800558030605316,-0.07080317288637161,9.928308486938477,-0.0028662611929343817,-0.0022903450650493154,0.0069373640308990825,-45.12512479291807,-116.72380353313288,0,0.16996335983276367,2019-08-06 15:40:33:784
0.02537955716252327,-0.07319791615009308,9.961835861206055,-0.00393178570329128,-0.004954156340941561,0.002941646856986388,-47.81887484674011,-117.98025046242367,0,0.17294001579284668,2019-08-06 15:40:33:787
0.015800558030605316,-0.12827716767787933,9.84449291229248,-0.0020671176801295454,-0.004155012958173888,0.003208027984575613,-50.459902545138696,-119.20533871125691,0,0.1761786937713623,2019-08-06 15:40:33:790
0.0014320602640509605,-0.11151391267776489,9.84449291229248,0.00033031263071992917,-0.003888631830584663,1.1454389502251989e-05,-53.04965198484828,-120.40832732845749,0,0.1802356243133545,2019-08-06 15:40:33:794
-0.000962689402513206,-0.07319791615009308,9.899572372436523,-0.0018007365525403206,-0.004421394085763112,0.002408884601807939,-48.38801257131949,-121.59137934213871,0,0.1832880973815918,2019-08-06 15:40:33:797
0.01819530874490738,-0.0588294193148613,9.84449291229248,0.0005966937908184444,-0.004421394085763112,0.002408884601807939,-51.01725485407618,-122.75282268742104,0,0.18683075904846191,2019-08-06 15:40:33:801
0.07327455282211304,-0.08277691900730133,9.916335105895996,-0.0020671176801295454,-0.003888631830584663,0.003208027984575613,-53.58775781086147,-123.88783696368557,0,0.18996620178222656,2019-08-06 15:40:33:804
0.006221559830009937,-0.07080317288637161,9.880414009094238,-0.00020244967322245603,-0.002023963937460091,0.002941646856986388,-56.11494247946616,-125.00183484950024,0,0.1929457187652588,2019-08-06 15:40:33:807
0.011011059395968914,-0.06840842217206955,9.779834747314453,-0.001534355424951096,-0.003622250702995438,0.0013433600914510408,-58.59069536997654,-126.09350402445833,0,0.1961812973022461,2019-08-06 15:40:33:810
0.027774307876825333,-0.09235591441392899,9.76546573638916,-0.0020671176801295454,-0.004155012958173888,0.002941646856986388,-61.01467850634974,-127.16032733205711,0,0.2002267837524414,2019-08-06 15:40:33:814
0.11638004332780838,-0.06601367145776749,9.861255645751953,-0.0012679742973618717,-0.004687775213352337,0.0016097412190402653,-63.38005590786294,-128.20923188841894,0,0.20328831672668457,2019-08-06 15:40:33:817
0.03974805399775505,-0.15461941063404083,9.861255645751953,-0.0010015931047540657,-0.004155012958173888,0.0013433600914510408,-65.7070083670413,-129.22688186481938,0,0.20683550834655762,2019-08-06 15:40:33:821
0.06369554996490479,-0.0779874175786972,9.8229398727417,0.00033031263071992917,-0.006552443626625559,0.002408884601807939,-67.98428496735926,-130.2333047466899,0,0.20996880531311035,2019-08-06 15:40:33:824
0.07087980210781097,-0.11390866339206696,9.818150520324707,-0.0020671176801295454,-0.004687775213352337,0.0002778355485848519,-70.21549428774757,-131.21497743236145,0,0.21313142776489258,2019-08-06 15:40:33:827
-0.015331187285482883,-0.04925042390823364,9.801386833190918,0.00033031263071992917,-0.007351587009393233,0.0016097412190402653,-65.21143236788737,-132.18498928064372,0,0.2168729305267334,2019-08-06 15:40:33:831
-0.008146938867866993,-0.1043296679854393,9.815755844116211,-0.002333498937755932,-0.004954156340941561,0.0026752657293971638,-60.30728247901672,-133.1286993645378,0,0.22000885009765625,2019-08-06 15:40:33:834
0.030169056728482246,-0.11151391267776489,9.899572372436523,-0.0036654045757020556,-0.003622250702995438,0.0013433600914510408,-62.69704034633682,-134.05260623338435,0,0.22298002243041992,2019-08-06 15:40:33:837
0.06369554996490479,-0.0851716697216034,9.887598037719727,0.0005966937908184444,-0.003888631830584663,0.006404601775720633,-65.0348738380288,-134.96181293367334,0,0.22684478759765625,2019-08-06 15:40:33:841
0.09243255108594894,-0.07319791615009308,9.784624099731445,-0.0007352119771648412,-0.006552443626625559,0.0010769789638618162,-67.32220199243179,-135.8538753559564,0,0.22996926307678223,2019-08-06 15:40:33:844
0.01819530874490738,-0.12348766624927521,9.866044998168945,-0.0010015931047540657,-0.0017575828098708665,0.004007171627417612,-69.57335320954004,-136.7222897606926,0,0.23292207717895508,2019-08-06 15:40:33:847
0.06369554996490479,-0.020513426512479782,9.96423053741455,0.000863074918407669,-0.006019680851298459,0.003474409372239163,-71.77329400952576,-137.58566653050545,0,0.23667073249816895,2019-08-06 15:40:33:850
-0.008146938867866993,-0.08996116369962692,9.83491325378418,-0.0020671176801295454,-0.0017575828098708665,0.003474409372239163,-66.73843834001421,-138.42307292287643,0,0.24010610580444336,2019-08-06 15:40:33:854
0.02537955716252327,-0.06601367145776749,9.818150520324707,-0.00020244967322245603,-0.005220537468530785,0.0018761223466294901,-68.99982942446238,-139.24687281246844,0,0.2431013584136963,2019-08-06 15:40:33:857
0.01819530874490738,-0.05164517089724541,9.808571815490723,6.393147468507523e-05,-0.00255672619263854,0.0037407904998283874,-71.217169850921,-140.0559152456612,0,0.24684381484985352,2019-08-06 15:40:33:861
0.030169056728482246,-0.08756642043590546,9.849282264709473,0.000863074918407669,-0.004155012958173888,0.005871839520542184,-73.38858593512717,-140.84476102687177,0,0.24997496604919434,2019-08-06 15:40:33:864
0.01819530874490738,-0.07080317288637161,9.861255645751953,0.002994124134177209,-0.003622250702995438,0.0026752657293971638,-75.518092350539,-141.62014050641048,0,0.2529618740081787,2019-08-06 15:40:33:867
0.08285354822874069,-0.08277691900730133,9.801386833190918,-0.0010015931047540657,-0.003888631830584663,0.005339077265363735,-77.59719225683895,-142.3778407874797,0,0.2568628787994385,2019-08-06 15:40:33:871
0.027774307876825333,-0.1498299092054367,9.86365032196045,-0.0010015931047540657,0.00010708522141819095,0.0013433600914510408,-79.6420410518772,-143.1126979425047,0,0.26007747650146484,2019-08-06 15:40:33:874
0.05890605226159096,-0.0851716697216034,9.818150520324707,-0.0007352119771648412,-0.003888631830584663,0.003474409372239163,-81.64166448726002,-143.84037859699689,0,0.2631032466888428,2019-08-06 15:40:33:877
-0.05843668058514595,-0.04925042390823364,9.777440071105957,-0.00020244967322245603,-0.003888631830584663,0.004539933882596061,-76.41486268962069,-144.5577563809729,0,0.2668459415435791,2019-08-06 15:40:33:881
0.037353307008743286,-0.06840842217206955,9.880414009094238,-0.002333498937755932,-0.0017575828098708665,0.003208027984575613,-78.48192415116631,-145.25825705666597,0,0.26997828483581543,2019-08-06 15:40:33:884
0.027774307876825333,-0.09475066512823105,9.875624656677246,0.0005966937908184444,-0.0030894884478169893,-0.0007876890592999184,-80.50854784193248,-145.94219735866872,0,0.2729473114013672,2019-08-06 15:40:33:887
0.015800558030605316,-0.0588294193148613,9.832518577575684,0.0013958372386046994,-0.002023963937460091,0.005605458392952959,-82.49609196887529,-146.61680314895887,0,0.27684950828552246,2019-08-06 15:40:33:891
0.03495855629444122,-0.12588241696357727,9.849282264709473,0.00033031263071992917,-0.0033558695754062136,0.0042735527550068365,-84.441513376634,-147.26988010761391,0,0.27997803688049316,2019-08-06 15:40:33:894
0.04453755542635918,-0.09714541584253311,9.875624656677246,-0.002599880065345157,-0.007085205881804008,0.002941646856986388,-86.34633026843571,-147.9127758061093,0,0.282956600189209,2019-08-06 15:40:33:897
0.03974805399775505,-0.09714541584253311,9.88520336151123,-0.0018007365525403206,-0.0012248205546924172,0.004007171627417612,-88.21452786352496,-148.54286511368983,0,0.28685545921325684,2019-08-06 15:40:33:901
0.006221559830009937,-0.10672441124916077,9.798992156982422,-0.0020671176801295454,-0.003888631830584663,0.003474409372239163,-90.04882638107142,-149.15916445702882,0,0.28998517990112305,2019-08-06 15:40:33:904
-0.000962689402513206,-0.1378561556339264,9.952256202697754,-0.0004688308170663259,-0.0012248205546924172,0.0026752657293971638,-84.64775455714702,-149.7600303418683,0,0.2929825782775879,2019-08-06 15:40:33:907
0.042142804712057114,-0.1043296679854393,9.870835304260254,-0.003132642320523606,-0.006286061978887684,-0.0015868324420675922,-86.54853624785845,-150.35203528851002,0,0.29686641693115234,2019-08-06 15:40:33:911
0.022984808310866356,-0.06840842217206955,9.868440628051758,-0.00020244967322245603,-0.002023963937460091,0.0013433600914510408,-88.41453954409543,-150.9370154676447,0,0.30000782012939453,2019-08-06 15:40:33:914
-0.08238417655229568,-0.12588241696357727,9.887598037719727,-0.0020671176801295454,-0.0006920582344953867,0.002941646856986388,-83.05568062077437,-151.50334112793885,0,0.30298686027526855,2019-08-06 15:40:33:917
-0.0033574390690773726,-0.12348766624927521,9.92591381072998,-0.0010015931047540657,-0.006019680851298459,0.006404601775720633,-77.79363347913687,-152.05879895849105,0,0.30689549446105957,2019-08-06 15:40:33:921
0.008616309612989426,-0.09714541584253311,9.796597480773926,-0.0018007365525403206,-0.0033558695754062136,0.003208027984575613,-79.83614277392228,-152.60593275914832,0,0.310133695602417,2019-08-06 15:40:33:924
-0.024910185486078262,-0.10911916196346283,9.837308883666992,0.0019285994937831485,-0.004687775213352337,0.0010769789638618162,-74.64148740126029,-153.14144690001086,0,0.31330299377441406,2019-08-06 15:40:33:927
0.008616309612989426,-0.06601367145776749,9.878019332885742,-0.0012679742973618717,-0.0028231073202277645,0.0026752657293971638,-76.74709596524642,-153.67070757338385,0,0.3168492317199707,2019-08-06 15:40:33:931
0.022984808310866356,-0.07319791615009308,9.830123901367188,-0.001534355424951096,-0.005220537468530785,0.0010769789638618162,-78.80853746840289,-154.18848531365512,0,0.32004642486572266,2019-08-06 15:40:33:934
0.037353307008743286,-0.10672441124916077,9.79420280456543,0.0005966937908184444,-0.004155012958173888,0.003208027984575613,-80.82730669074874,-154.69232846404438,0,0.32300281524658203,2019-08-06 15:40:33:937
0.013405809178948402,-0.09475066512823105,9.8229398727417,-0.0007352119771648412,-0.004421394085763112,0.0013433600914510408,-82.80838701577274,-155.18729426629082,0,0.3262641429901123,2019-08-06 15:40:33:940
0.042142804712057114,-0.06840842217206955,9.856466293334961,-0.001534355424951096,-0.004687775213352337,1.1454389502251989e-05,-84.74616637739068,-155.67521780881324,0,0.3306460380554199,2019-08-06 15:40:33:944
0.04693230614066124,-0.13306665420532227,9.973809242248535,-0.001534355424951096,-0.004155012958173888,-0.0031851193376401022,-86.64509415828837,-156.1461465469916,0,0.3338897228240967,2019-08-06 15:40:33:948
-0.03927868604660034,-0.10672441124916077,9.909151077270508,-0.0020671176801295454,-0.0012248205546924172,0.0016097412190402653,-81.3165268567449,-156.61053177552702,0,0.33690929412841797,2019-08-06 15:40:33:951
0.006221559830009937,-0.06840842217206955,9.84449291229248,-0.0012679742973618717,-0.0033558695754062136,0.004007171627417612,-83.28886881377132,-157.07013046063383,0,0.34011101722717285,2019-08-06 15:40:33:954
0.05890605226159096,-0.0588294193148613,9.87322998046875,-0.00020244967322245603,-0.005220537468530785,-0.0023859759548724283,-85.21531478528034,-157.5218635700293,0,0.34331750869750977,2019-08-06 15:40:33:957
0.020590057596564293,-0.09235591441392899,9.842098236083984,-0.0049973104737225035,-0.006019680851298459,0.0037407904998283874,-87.10741085662102,-157.9596771409994,0,0.34686875343322754,2019-08-06 15:40:33:961
0.03256380558013916,-0.08756642043590546,9.84449291229248,0.0005966937908184444,-0.004421394085763112,0.0018761223466294901,-88.9606771318718,-158.39039828323303,0,0.3500711917877197,2019-08-06 15:40:33:964
0.01819530874490738,-0.09235591441392899,9.854071617126465,-0.0033990234481128304,-0.00255672619263854,1.1454389502251989e-05,-90.77886970110517,-158.8112152439908,0,0.35340070724487305,2019-08-06 15:40:33:967
0.022984808310866356,-0.12109291553497314,9.820545196533203,-0.0007352119771648412,-0.006818824754214785,0.0021425034742187147,-92.55942717535592,-159.22073429582284,0,0.3564908504486084,2019-08-06 15:40:33:970
0.03974805399775505,-0.04925042390823364,9.818150520324707,-0.0010015931047540657,-0.002023963937460091,0.0018761223466294901,-94.30315928802264,-159.63035359642583,0,0.3603644371032715,2019-08-06 15:40:33:974
0.022984808310866356,-0.09235591441392899,9.839703559875488,-0.001534355424951096,-0.008150730392160906,0.0021425034742187147,-96.01307503489203,-160.02673816224691,0,0.36330175399780273,2019-08-06 15:40:33:977
-0.015331187285482883,-0.12588241696357727,9.899572372436523,-0.0010015931047540657,-0.004687775213352337,0.002941646856986388,-90.49366070816365,-160.41143462058787,0,0.3668253421783447,2019-08-06 15:40:33:981
0.008616309612989426,-0.0851716697216034,9.758281707763672,-0.0012679742973618717,-0.0012248205546924172,0.0016097412190402653,-92.28255369953517,-160.7929746660199,0,0.3700530529022217,2019-08-06 15:40:33:984
0.05890605226159096,-0.12588241696357727,9.839703559875488,0.0005966937908184444,-0.004155012958173888,0.002408884601807939,-94.02935125709271,-161.16255519786583,0,0.373016357421875,2019-08-06 15:40:33:987
0.09482730180025101,-0.1378561556339264,9.96423053741455,-0.0028662611929343817,-0.00255672619263854,-0.0015868324420675922,-95.73739002493636,-161.52292533043916,0,0.376284122467041,2019-08-06 15:40:33:990
-0.005752188619226217,-0.1761721521615982,9.92591381072998,0.00033031263071992917,0.0009062286610771233,0.0008105978362725917,-90.22351418765557,-161.8722062117154,0,0.3803696632385254,2019-08-06 15:40:33:994
0.020590057596564293,-0.09235591441392899,9.870835304260254,-0.0012679742973618717,-0.004687775213352337,0.004007171627417612,-92.01583267420132,-162.22381866108213,0,0.38348841667175293,2019-08-06 15:40:33:997
0.030169056728482246,-0.1378561556339264,9.892387390136719,0.00033031263071992917,-0.002023963937460091,0.003474409372239163,-93.7716409429107,-162.56343639847069,0,0.38683533668518066,2019-08-06 15:40:34:001
0.056511301547288895,-0.01811867579817772,9.825334548950195,0.000863074918407669,-0.0033558695754062136,0.0008105978362725917,-95.4890244313669,-162.91020700746506,0,0.3899819850921631,2019-08-06 15:40:34:004
0.030169056728482246,-0.09235591441392899,9.842098236083984,-0.001534355424951096,-0.005220537468530785,1.1454389502251989e-05,-97.17482652731215,-163.24098424277375,0,0.393068790435791,2019-08-06 15:40:34:007
0.003826810047030449,-0.05643467232584953,9.803781509399414,-0.0018007365525403206,-0.00255672619263854,0.005871839520542184,-98.83033376194543,-163.56918163637295,0,0.3968925476074219,2019-08-06 15:40:34:011
-0.010541687719523907,-0.07319791615009308,9.861255645751953,-0.004730929346133278,-0.00255672619263854,0.003474409372239163,-93.25448811917703,-163.8884337931757,0,0.40012431144714355,2019-08-06 15:40:34:014
-0.000962689402513206,-0.03967142477631569,9.830123901367188,-0.0007352119771648412,-0.004954156340941561,0.0037407904998283874,-87.78863937167289,-164.20591128172444,0,0.4032561779022217,2019-08-06 15:40:34:017
0.042142804712057114,-0.0851716697216034,9.9139404296875,0.0011294561110154748,-0.003622250702995438,1.1454389502251989e-05,-89.62726699250639,-164.51217577208604,0,0.40683794021606445,2019-08-06 15:40:34:021
0.01819530874490738,-0.06601367145776749,9.875624656677246,-0.0007352119771648412,-0.0022903450650493154,0.003474409372239163,-91.43220744767046,-164.81414315209753,0,0.4099709987640381,2019-08-06 15:40:34:024
0.015800558030605316,-0.06122417002916336,9.875624656677246,-0.0007352119771648412,-0.003622250702995438,0.0008105978362725917,-93.2011160302693,-165.110631654054,0,0.41298913955688477,2019-08-06 15:40:34:027
0.027774307876825333,-0.0779874175786972,9.810966491699219,0.0024613618789987605,-0.006286061978887684,0.0008105978362725917,-94.93248044744877,-165.39984646492456,0,0.4168684482574463,2019-08-06 15:40:34:031
-0.020120687782764435,-0.06840842217206955,9.945072174072266,-0.0033990234481128304,-0.0012248205546924172,0.0021425034742187147,-89.43593415285994,-165.68337046942125,0,0.4199957847595215,2019-08-06 15:40:34:034
0.07806405425071716,-0.09714541584253311,9.921124458312988,0.0016622183661939237,-0.004421394085763112,-0.0018532135696568165,-91.23746782253342,-165.95875777745167,0,0.4229412078857422,2019-08-06 15:40:34:037
0.08524829894304276,-0.09714541584253311,9.875624656677246,0.000863074918407669,-0.00015929593055300162,0.003208027984575613,-93.00279206972888,-166.22849970971313,0,0.42684054374694824,2019-08-06 15:40:34:041
-0.02251543663442135,-0.08277691900730133,9.875624656677246,-0.0018007365525403206,-0.003622250702995438,0.0008105978362725917,-87.5447129737367,-166.4940088538085,0,0.42996668815612793,2019-08-06 15:40:34:044
0.003826810047030449,-0.05643467232584953,9.949861526489258,-0.002599880065345157,-0.00042567707439687154,0.0002778355485848519,-89.39330746978092,-166.7571985441735,0,0.43291687965393066,2019-08-06 15:40:34:047
0.015800558030605316,-0.09475066512823105,9.904361724853516,-0.002599880065345157,-0.004954156340941561,0.0021425034742187147,-91.20259007617366,-167.01055550076464,0,0.43659496307373047,2019-08-06 15:40:34:050
0.037353307008743286,-0.0851716697216034,9.78222942352295,6.393147468507523e-05,-0.0030894884478169893,0.0008105978362725917,-92.97355874297467,-167.26037991017856,0,0.4400761127471924,2019-08-06 15:40:34:054
0.08285354822874069,-0.1306719183921814,9.813361167907715,-0.001534355424951096,-0.0022903450650493154,0.0013433600914510408,-94.70402154967013,-167.49965234732667,0,0.4431192874908447,2019-08-06 15:40:34:057
-0.000962689402513206,-0.12348766624927521,9.818150520324707,-0.0012679742973618717,-0.0014912016822816417,0.0016097412190402653,-89.209729958087,-167.73497223101987,0,0.44698309898376465,2019-08-06 15:40:34:061
-0.008146938867866993,-0.08996116369962692,9.846887588500977,-0.0007352119771648412,-0.004155012958173888,0.0016097412190402653,-83.82578914840006,-167.96968114003684,0,0.44995903968811035,2019-08-06 15:40:34:064
0.07806405425071716,-0.09954016655683517,9.825334548950195,-0.0018007365525403206,-0.004687775213352337,0.0021425034742187147,-85.73939583379814,-168.19838165878582,0,0.4528965950012207,2019-08-06 15:40:34:067
0.020590057596564293,-0.12588241696357727,9.791808128356934,0.0019285994937831485,-0.0017575828098708665,0.003208027984575613,-87.62183577191423,-168.42008088262443,0,0.4565701484680176,2019-08-06 15:40:34:070
0.03974805399775505,-0.13546140491962433,9.851676940917969,0.00033031263071992917,-0.004954156340941561,0.0008105978362725917,-89.46380509042355,-168.63598853523283,0,0.46005940437316895,2019-08-06 15:40:34:074
0.003826810047030449,-0.11151391267776489,9.878019332885742,-0.0012679742973618717,-0.006818824754214785,0.002941646856986388,-91.27291295689022,-168.85011500873603,0,0.463120698928833,2019-08-06 15:40:34:077
0.037353307008743286,-0.11630341410636902,9.751097679138184,0.00033031263071992917,-0.00255672619263854,0.003208027984575613,-93.04253233816894,-169.0595146055422,0,0.46683168411254883,2019-08-06 15:40:34:081
0.042142804712057114,-0.12588241696357727,9.854071617126465,-0.00020244967322245603,-0.0028231073202277645,0.002941646856986388,-94.77628507084495,-169.2636508637041,0,0.46996021270751953,2019-08-06 15:40:34:084
-0.012936437502503395,-0.06361892074346542,9.875624656677246,-0.0033990234481128304,-0.0028231073202277645,-0.0026523570824616527,-89.28179513221359,-169.47043570656854,0,0.47289562225341797,2019-08-06 15:40:34:087
0.013405809178948402,-0.07559266686439514,9.875624656677246,6.393147468507523e-05,-0.0028231073202277645,0.0002778355485848519,-91.09402136986076,-169.67226897501877,0,0.47656917572021484,2019-08-06 15:40:34:090
0.022984808310866356,-0.17138265073299408,9.846887588500977,6.393147468507523e-05,-0.00255672619263854,0.0016097412190402653,-92.86896562124288,-169.8588937459791,0,0.480055570602417,2019-08-06 15:40:34:094
-0.000962689402513206,-0.042066171765327454,9.779834747314453,-0.0018007365525403206,-0.004687775213352337,0.0037407904998283874,-87.41091252405371,-170.05648480075,0,0.483043909072876,2019-08-06 15:40:34:097
0.015800558030605316,-0.07080317288637161,9.798992156982422,0.00033031263071992917,-0.0054869185961200105,0.003474409372239163,-89.2596751473532,-170.24714588767947,0,0.4868459701538086,2019-08-06 15:40:34:101
0.015800558030605316,-0.06122417002916336,9.94267749786377,-0.0010015931047540657,-0.002023963937460091,0.0002778355485848519,-91.0723054605083,-170.43497109280725,0,0.4899709224700928,2019-08-06 15:40:34:104
-0.020120687782764435,-0.09475066512823105,9.808571815490723,-0.0028662611929343817,-0.005753299723709235,0.0002778355485848519,-85.65226019157976,-170.61472929409086,0,0.49291110038757324,2019-08-06 15:40:34:107
0.003826810047030449,-0.12827716767787933,9.892387390136719,6.393147468507523e-05,-0.003622250702995438,0.0005442166761740764,-87.53810183308788,-170.7875879774982,0,0.4962046146392822,2019-08-06 15:40:34:110
-0.010541687719523907,-0.08756642043590546,9.870835304260254,0.000863074918407669,-0.0014912016822816417,0.0005442166761740764,-82.18823376329294,-170.96186170467084,0,0.5001437664031982,2019-08-06 15:40:34:114
0.04453755542635918,-0.0851716697216034,9.868440628051758,0.004858792287376107,-0.0014912016822816417,0.003208027984575613,-84.13904356804194,-171.13356189705004,0,0.5031759738922119,2019-08-06 15:40:34:117
0.030169056728482246,-0.12348766624927521,9.798992156982422,-0.0010015931047540657,-0.004954156340941561,-0.0026523570824616527,-86.0517180865869,-171.296244980072,0,0.5068304538726807,2019-08-06 15:40:34:121
-0.000962689402513206,-0.06361892074346542,9.94267749786377,-0.0012679742973618717,-0.006818824754214785,0.0026752657293971638,-80.72959784230082,-171.46276540526395,0,0.5099563598632812,2019-08-06 15:40:34:124
-0.02969968505203724,-0.11630341410636902,9.818150520324707,0.0016622183661939237,-0.002023963937460091,0.0005442166761740764,-75.51813704972218,-171.62021178015686,0,0.5129058361053467,2019-08-06 15:40:34:127
-0.05364718288183212,-0.10911916196346283,9.849282264709473,-0.0028662611929343817,-0.002023963937460091,0.00507269613777451,-70.41359854068158,-171.77452163193226,0,0.5165777206420898,2019-08-06 15:40:34:130
0.037353307008743286,-0.09475066512823105,9.83491325378418,-0.0028662611929343817,-0.0028231073202277645,-0.0007876890592999184,-72.60042247036505,-171.92743132702472,0,0.52005934715271,2019-08-06 15:40:34:134
0.006221559830009937,-0.042066171765327454,9.796597480773926,-0.0010015931047540657,-0.0014912016822816417,0.004539933882596061,-74.74743590479702,-172.08379404867213,0,0.5230495929718018,2019-08-06 15:40:34:137
-0.024910185486078262,-0.08038216829299927,9.90196704864502,-0.002333498937755932,-0.002023963937460091,0.0010769789638618162,-69.6549397484226,-172.23232007995185,0,0.5268349647521973,2019-08-06 15:40:34:141
0.011011059395968914,-0.12588241696357727,9.875624656677246,0.0011294561110154748,-0.004155012958173888,0.0005442166761740764,-71.85983450459372,-172.37326584035335,0,0.5299587249755859,2019-08-06 15:40:34:144
-0.000962689402513206,-0.05164517089724541,9.976203918457031,-0.001534355424951096,-0.004687775213352337,0.0042735527550068365,-66.82197335653169,-172.5196146821634,0,0.5329031944274902,2019-08-06 15:40:34:147
-0.041673433035612106,-0.07080317288637161,9.892387390136719,-0.0028662611929343817,-0.004155012958173888,0.003208027984575613,-61.88950301245931,-172.66042879376076,0,0.5365817546844482,2019-08-06 15:40:34:150
0.0756693035364151,-0.11390866339206696,9.755887031555176,-0.004464548218544054,-0.007085205881804008,0.0021425034742187147,-64.24143961206302,-172.79296821515598,0,0.5400643348693848,2019-08-06 15:40:34:154
-0.008146938867866993,-0.09235591441392899,9.892387390136719,-0.0028662611929343817,-0.0030894884478169893,0.0026752657293971638,-59.35701513499523,-172.9259103896121,0,0.5431737899780273,2019-08-06 15:40:34:157
-0.03927868604660034,-0.1570141613483429,9.810966491699219,-0.002599880065345157,-0.003888631830584663,0.003474409372239163,-54.57366256523128,-173.04851972897887,0,0.546837568283081,2019-08-06 15:40:34:161
0.02537955716252327,-0.06601367145776749,9.830123901367188,0.0021949807514095357,-0.007085205881804008,0.00507269613777451,-57.07798510256876,-173.18024002291708,0,0.5499687194824219,2019-08-06 15:40:34:164
-0.048857681453228,-0.09475066512823105,9.95465087890625,-0.002333498937755932,-0.005753299723709235,1.1454389502251989e-05,-52.34109756620521,-173.30534234928973,0,0.5529155731201172,2019-08-06 15:40:34:167
0.03495855629444122,-0.06361892074346542,9.858860969543457,-0.001534355424951096,-0.004687775213352337,0.0010769789638618162,-54.88924475461956,-173.4315243513874,0,0.5565915107727051,2019-08-06 15:40:34:170
-0.017725937068462372,-0.10672441124916077,9.94267749786377,0.00033031263071992917,-0.0017575828098708665,0.004007171627417612,-50.193157051292445,-173.5506590926722,0,0.5600950717926025,2019-08-06 15:40:34:174
0.01819530874490738,-0.09954016655683517,9.899572372436523,0.0035268863893556587,-0.0022903450650493154,0.005605458392952959,-52.78680652076615,-173.6687111462116,0,0.5630593299865723,2019-08-06 15:40:34:177
0.06609030067920685,-0.08277691900730133,9.868440628051758,-0.0018007365525403206,-0.004421394085763112,0.0002778355485848519,-55.322459766043636,-173.78534378869335,0,0.566831111907959,2019-08-06 15:40:34:181
0.042142804712057114,-0.10193491727113724,9.86365032196045,-0.0012679742973618717,-0.004687775213352337,0.003474409372239163,-57.81029146340797,-173.8975723276366,0,0.5699584484100342,2019-08-06 15:40:34:184
0.049327053129673004,-0.06840842217206955,9.767860412597656,-0.0012679742973618717,-0.0033558695754062136,0.0016097412190402653,-60.247744592868656,-174.0113862524505,0,0.5729000568389893,2019-08-06 15:40:34:187
-0.024910185486078262,-0.08277691900730133,9.897176742553711,-0.0004688308170663259,-0.0054869185961200105,0.0018761223466294901,-55.444539125432435,-174.12147771143907,0,0.5765831470489502,2019-08-06 15:40:34:190
-0.012936437502503395,-0.06361892074346542,9.858860969543457,0.0005966937908184444,-0.0009584393620846114,0.004806315010185286,-50.736964833578085,-174.2317702080566,0,0.5800604820251465,2019-08-06 15:40:34:194
0.01819530874490738,-0.03488192334771156,9.820545196533203,0.000863074918407669,-0.006019680851298459,0.003474409372239163,-53.31906937167694,-174.34321271746293,0,0.5831167697906494,2019-08-06 15:40:34:197
-0.010541687719523907,-0.1498299092054367,9.889992713928223,-0.001534355424951096,-0.004687775213352337,0.003208027984575613,-48.652931669558896,-174.43866954936055,0,0.5868313312530518,2019-08-06 15:40:34:201
0.030169056728482246,-0.0851716697216034,9.940282821655273,-0.0012679742973618717,-0.0009584393620846114,0.0021425034742187147,-51.27622678015873,-174.5398550528633,0,0.5899600982666016,2019-08-06 15:40:34:204
0.04453755542635918,-0.05643467232584953,9.911545753479004,-0.00020244967322245603,-0.0030894884478169893,0.005605458392952959,-53.84504467221507,-174.64250005508833,0,0.5928909778594971,2019-08-06 15:40:34:207
0.05890605226159096,-0.11390866339206696,9.868440628051758,0.00033031263071992917,-0.0017575828098708665,0.0013433600914510408,-56.36094039963022,-174.7364919404413,0,0.5965726375579834,2019-08-06 15:40:34:210
0.07327455282211304,-0.0851716697216034,9.837308883666992,-0.0010015931047540657,-0.005220537468530785,0.0013433600914510408,-58.82416475275177,-174.8316450046889,0,0.6000573635101318,2019-08-06 15:40:34:214
0.08524829894304276,-0.06122417002916336,9.899572372436523,-0.001534355424951096,-0.004687775213352337,-0.00025492675535753324,-61.237027407001975,-174.9276678335627,0,0.6030452251434326,2019-08-06 15:40:34:217
-0.020120687782764435,-0.1306719183921814,9.866044998168945,-0.003132642320523606,-0.0054869185961200105,0.005605458392952959,-56.41345082945322,-175.01326846372532,0,0.6068525314331055,2019-08-06 15:40:34:221
-0.03209443390369415,-0.05164517089724541,9.760676383972168,6.393147468507523e-05,-0.006019680851298459,0.0010769789638618162,-51.687897588597785,-175.10695111763658,0,0.6099653244018555,2019-08-06 15:40:34:224
0.022984808310866356,-0.0851716697216034,9.87322998046875,-0.004464548218544054,-0.0033558695754062136,0.0042735527550068365,-54.25091811561539,-175.1941902546493,0,0.6129045486450195,2019-08-06 15:40:34:227
0.03495855629444122,-0.10672441124916077,9.739123344421387,-0.0012679742973618717,-0.0033558695754062136,0.0002778355485848519,-56.76109492545594,-175.27748833784258,0,0.616574764251709,2019-08-06 15:40:34:230
-0.056041933596134186,-0.07319791615009308,9.825334548950195,-0.002333498937755932,-0.003622250702995438,0.002941646856986388,-52.031699763685474,-175.36294482213,0,0.6200621128082275,2019-08-06 15:40:34:234
-0.03209443390369415,-0.0851716697216034,9.94267749786377,6.393147468507523e-05,0.0006398475334878987,0.007736507413666756,-47.39487633894522,-175.44588109590555,0,0.6231691837310791,2019-08-06 15:40:34:237
0.042142804712057114,-0.0851716697216034,9.842098236083984,-0.002333498937755932,-0.005220537468530785,0.0013433600914510408,-50.04099601609062,-175.52656616588047,0,0.626840353012085,2019-08-06 15:40:34:241
0.006221559830009937,-0.10911916196346283,9.86365032196045,-0.00020244967322245603,-0.0030894884478169893,0.003208027984575613,-52.6389108723915,-175.6033228298622,0,0.629967212677002,2019-08-06 15:40:34:244
0.03256380558013916,-0.11151391267776489,9.887598037719727,-0.005263691601311728,-0.004155012958173888,0.005339077265363735,-55.181672869025896,-175.67746425678706,0,0.6329069137573242,2019-08-06 15:40:34:247
0.03974805399775505,-0.09235591441392899,9.801386833190918,0.0011294561110154748,-0.0033558695754062136,0.0008105978362725917,-57.67277300403337,-175.75332607453737,0,0.6361937522888184,2019-08-06 15:40:34:250
0.07087980210781097,-0.11630341410636902,9.945072174072266,-0.005263691601311728,-0.0030894884478169893,0.0021425034742187147,-60.11045877465821,-175.82368048185356,0,0.6401817798614502,2019-08-06 15:40:34:254
0.037353307008743286,-0.08996116369962692,9.861255645751953,-0.002599880065345157,-0.004687775213352337,0.003208027984575613,-62.50310480416016,-175.89630730463253,0,0.6432371139526367,2019-08-06 15:40:34:257
0.006221559830009937,-0.12109291553497314,9.787018775939941,0.0005966937908184444,-0.00255672619263854,0.0002778355485848519,-64.8517992366182,-175.964323883124,0,0.6468245983123779,2019-08-06 15:40:34:261
0.06130080297589302,-0.07319791615009308,9.818150520324707,0.000863074918407669,-0.006019680851298459,1.1454389502251989e-05,-67.14655179123008,-176.03664587480796,0,0.6499514579772949,2019-08-06 15:40:34:264
0.020590057596564293,-0.09954016655683517,9.818150520324707,-0.0007352119771648412,-0.003622250702995438,0.0002778355485848519,-69.40061747786827,-176.10417381499227,0,0.6529021263122559,2019-08-06 15:40:34:267
-0.000962689402513206,-0.04446092247962952,9.897176742553711,-0.002599880065345157,-0.0009584393620846114,1.1454389502251989e-05,-64.412518970631,-176.1764065285703,0,0.6565742492675781,2019-08-06 15:40:34:270
-0.027304936200380325,-0.07080317288637161,9.88520336151123,-0.0020671176801295454,-0.0022903450650493154,0.002941646856986388,-59.52698593499534,-176.24426662602457,0,0.6600570678710938,2019-08-06 15:40:34:274
0.020590057596564293,-0.11630341410636902,9.79420280456543,0.0016622183661939237,-0.0006920582344953867,0.002408884601807939,-61.93392124826636,-176.3060529952749,0,0.6630408763885498,2019-08-06 15:40:34:277
0.013405809178948402,-0.037276674062013626,9.830123901367188,-0.00393178570329128,-0.004155012958173888,0.0018761223466294901,-64.29279555373267,-176.37474953635785,0,0.6668322086334229,2019-08-06 15:40:34:281
0.04453755542635918,-0.0779874175786972,9.801386833190918,-0.001534355424951096,-0.003622250702995438,0.003208027984575613,-66.60109690574117,-176.43786765864877,0,0.6699578762054443,2019-08-06 15:40:34:284
0.02537955716252327,-0.11151391267776489,9.957045555114746,0.0005966937908184444,-0.004155012958173888,0.0021425034742187147,-68.86546696740338,-176.49637584680855,0,0.672903299331665,2019-08-06 15:40:34:287
0.006221559830009937,-0.1043296679854393,9.87322998046875,-0.00020244967322245603,-0.003622250702995438,0.0021425034742187147,-71.0866871637137,-176.55429815095562,0,0.6765828132629395,2019-08-06 15:40:34:290
0.008616309612989426,-0.11151391267776489,9.854071617126465,-0.005796453856490177,-0.007085205881804008,-0.0007876890592999184,-73.26256424879581,-176.60911007902297,0,0.6800696849822998,2019-08-06 15:40:34:294
-0.005752188619226217,-0.07559266686439514,9.837308883666992,0.0037932675169448835,-0.003622250702995438,0.002408884601807939,-68.19734772756512,-176.66878779434924,0,0.6831932067871094,2019-08-06 15:40:34:297
-0.005752188619226217,-0.06122417002916336,9.832518577575684,-0.0020671176801295454,-0.0054869185961200105,0.002941646856986388,-63.23294583269142,-176.72785290679457,0,0.6868457794189453,2019-08-06 15:40:34:301
0.03495855629444122,-0.11869816482067108,9.875624656677246,-0.004464548218544054,-0.004421394085763112,0.0016097412190402653,-65.56345774172274,-176.7787430738425,0,0.6899585723876953,2019-08-06 15:40:34:304
-0.041673433035612106,-0.0779874175786972,9.921124458312988,-0.002599880065345157,-0.002023963937460091,-0.0015868324420675922,-60.656667648140214,-176.83373122445624,0,0.6929001808166504,2019-08-06 15:40:34:307
-0.012936437502503395,-0.05164517089724541,9.854071617126465,-0.002333498937755932,-0.0030894884478169893,1.1454389502251989e-05,-55.84439832580316,-176.89056727208663,0,0.6965913772583008,2019-08-06 15:40:34:310
0.05411655455827713,-0.09954016655683517,9.791808128356934,0.0024613618789987605,-0.00042567707439687154,0.003474409372239163,-58.32109428916297,-176.9415871702977,0,0.7000632286071777,2019-08-06 15:40:34:314
0.015800558030605316,-0.09714541584253311,9.937888145446777,0.00033031263071992917,-0.002023963937460091,0.0013433600914510408,-60.752511707339494,-176.99160945133204,0,0.7030441761016846,2019-08-06 15:40:34:317
0.02537955716252327,-0.08038216829299927,9.83491325378418,-0.002333498937755932,-0.004687775213352337,-0.0005213078992014032,-63.1335080011551,-177.04191575621678,0,0.7068295478820801,2019-08-06 15:40:34:321
0.056511301547288895,-0.037276674062013626,9.810966491699219,0.0013958372386046994,-0.0009584393620846114,0.003208027984575613,-65.46406931558204,-177.096968394688,0,0.7099533081054688,2019-08-06 15:40:34:324
0.030169056728482246,-0.09954016655683517,9.846887588500977,-0.002333498937755932,-0.006286061978887684,1.1454389502251989e-05,-67.7502360976767,-177.14305916992964,0,0.7129025459289551,2019-08-06 15:40:34:327
-0.02969968505203724,-0.09475066512823105,9.858860969543457,0.00033031263071992917,-0.0054869185961200105,-0.0013204513144783674,-62.79754950618538,-177.18925352350595,0,0.7165830135345459,2019-08-06 15:40:34:330
0.037353307008743286,-0.11869816482067108,9.73672866821289,0.0005966937908184444,-0.0017575828098708665,0.0018761223466294901,-65.13685897324514,-177.23161615951125,0,0.7200632095336914,2019-08-06 15:40:34:334
0.02537955716252327,-0.05643467232584953,9.851676940917969,0.00033031263071992917,-0.0009584393620846114,0.0005442166761740764,-67.43100562547528,-177.2804761640804,0,0.7231125831604004,2019-08-06 15:40:34:337
0.030169056728482246,-0.08277691900730133,9.849282264709473,0.0005966937908184444,-0.004421394085763112,0.005605458392952959,-69.67795320452869,-177.32536064945853,0,0.7268276214599609,2019-08-06 15:40:34:341
0.027774307876825333,-0.12109291553497314,9.894782066345215,-0.003132642320523606,-0.008417111519750132,0.0018761223466294901,-71.87969809823134,-177.36427971954475,0,0.7299580574035645,2019-08-06 15:40:34:344
0.06130080297589302,-0.16180366277694702,9.899572372436523,-0.0012679742973618717,-0.0009584393620846114,0.0008105978362725917,-74.03485028410459,-177.3980571686829,0,0.7328963279724121,2019-08-06 15:40:34:347
0.05411655455827713,-0.08277691900730133,9.849282264709473,-0.0028662611929343817,-0.0022903450650493154,0.0008105978362725917,-76.14738450357389,-177.43987407336436,0,0.7365715503692627,2019-08-06 15:40:34:350
0.008616309612989426,-0.09954016655683517,9.882808685302734,6.393147468507523e-05,-0.0022903450650493154,-0.0021195946972460415,-78.22298972718907,-177.47954776618374,0,0.7400553226470947,2019-08-06 15:40:34:354
0.020590057596564293,-0.09714541584253311,9.882808685302734,-0.00020244967322245603,-0.006019680851298459,0.0013433600914510408,-80.25512937732546,-177.5186590511088,0,0.7430527210235596,2019-08-06 15:40:34:357
-0.000962689402513206,-0.11869816482067108,9.827729225158691,-0.0010015931047540657,-0.0022903450650493154,0.0013433600914510408,-75.0496528443035,-177.55423368990515,0,0.746833324432373,2019-08-06 15:40:34:361
0.03256380558013916,-0.09235591441392899,9.808571815490723,-0.0010015931047540657,-0.004155012958173888,0.0026752657293971638,-77.14412698772988,-177.59218398273697,0,0.7499556541442871,2019-08-06 15:40:34:364
0.030169056728482246,-0.09475066512823105,9.842098236083984,-0.0049973104737225035,-0.0009584393620846114,0.005605458392952959,-79.19757419782219,-177.62848669080188,0,0.7528855800628662,2019-08-06 15:40:34:367
-0.012936437502503395,-0.12827716767787933,9.894782066345215,-0.0020671176801295454,-0.006286061978887684,0.0002778355485848519,-74.01397262096363,-177.66068440283985,0,0.756138801574707,2019-08-06 15:40:34:370
0.020590057596564293,-0.10911916196346283,9.86365032196045,-0.0004688308170663259,-0.004954156340941561,0.0010769789638618162,-76.1301937951244,-177.69468945731833,0,0.7601194381713867,2019-08-06 15:40:34:374
0.011011059395968914,-0.06601367145776749,9.878019332885742,-0.002599880065345157,-0.0014912016822816417,0.003474409372239163,-78.20605615961088,-177.73269072366034,0,0.7631816864013672,2019-08-06 15:40:34:377
0.042142804712057114,-0.07319791615009308,9.882808685302734,-0.0020671176801295454,-0.00255672619263854,0.0013433600914510408,-80.23652361231076,-177.76912529065828,0,0.766838550567627,2019-08-06 15:40:34:381
0.03256380558013916,-0.05403992161154747,9.894782066345215,-0.00020244967322245603,-0.007351587009393233,0.002941646856986388,-82.22673218232237,-177.807448961402,0,0.7699630260467529,2019-08-06 15:40:34:384
0.01819530874490738,-0.11869816482067108,9.854071617126465,-0.002599880065345157,-0.004954156340941561,0.0002778355485848519,-84.17926640350474,-177.83706959003004,0,0.7728936672210693,2019-08-06 15:40:34:387
-0.015331187285482883,-0.09954016655683517,9.825334548950195,-0.0007352119771648412,-0.004687775213352337,0.0010769789638618162,-78.89660184121963,-177.86858333718192,0,0.7761886119842529,2019-08-06 15:40:34:390
0.0014320602640509605,-0.0851716697216034,9.894782066345215,-0.002599880065345157,-0.003622250702995438,0.0013433600914510408,-80.917693515776,-177.90076647879394,0,0.7801733016967773,2019-08-06 15:40:34:394
-0.008146938867866993,-0.09235591441392899,9.897176742553711,-0.0010015931047540657,-0.0009584393620846114,0.002408884601807939,-75.70011855223909,-177.9318865379621,0,0.7832274436950684,2019-08-06 15:40:34:397
-0.000962689402513206,-0.08277691900730133,9.796597480773926,0.0019285994937831485,-0.003888631830584663,0.0016097412190402653,-70.58544203851369,-177.96395675218236,0,0.7868306636810303,2019-08-06 15:40:34:401
0.02537955716252327,-0.07559266686439514,9.897176742553711,-0.0049973104737225035,-0.0012248205546924172,0.0016097412190402653,-72.7705799402125,-177.99504925781264,0,0.7899534702301025,2019-08-06 15:40:34:404
0.008616309612989426,-0.00853967759758234,9.866044998168945,0.0005966937908184444,-0.004155012958173888,0.0005442166761740764,-74.91347728740038,-178.0342555430516,0,0.7929122447967529,2019-08-06 15:40:34:407
0.015800558030605316,-0.037276674062013626,9.861255645751953,-0.002333498937755932,-0.003888631830584663,0.004007171627417612,-77.01256887499902,-178.0687570250168,0,0.7965888977050781,2019-08-06 15:40:34:410
0.06609030067920685,-0.08996116369962692,9.84449291229248,-0.004198166830880505,-0.005220537468530785,0.002408884601807939,-79.06360527074133,-178.09609084470804,0,0.8000662326812744,2019-08-06 15:40:34:414
0.020590057596564293,-0.09475066512823105,9.90196704864502,-0.00020244967322245603,-0.0033558695754062136,0.005605458392952959,-81.07938748977732,-178.12317028526144,0,0.8030533790588379,2019-08-06 15:40:34:417
0.013405809178948402,-0.0324871726334095,9.909151077270508,-0.005263691601311728,-0.0022903450650493154,-0.0013204513144783674,-83.05576283970898,-178.15583164143763,0,0.8068373203277588,2019-08-06 15:40:34:421
0.03495855629444122,-0.0851716697216034,9.904361724853516,-0.0018007365525403206,-0.004155012958173888,0.0010769789638618162,-84.98987362186898,-178.18254496529414,0,0.8099634647369385,2019-08-06 15:40:34:424
-0.000962689402513206,-0.07559266686439514,9.892387390136719,-0.0018007365525403206,-0.005220537468530785,0.002941646856986388,-79.68932314820167,-178.20983952303845,0,0.8129127025604248,2019-08-06 15:40:34:427
-0.000962689402513206,-0.12588241696357727,9.813361167907715,-0.0010015931047540657,-0.002023963937460091,0.002941646856986388,-74.49523050641581,-178.23073698037544,0,0.8165960311889648,2019-08-06 15:40:34:430
0.06130080297589302,-0.09235591441392899,9.830123901367188,-0.0004688308170663259,-0.00255672619263854,0.002941646856986388,-76.5976811442064,-178.25526497541114,0,0.8200712203979492,2019-08-06 15:40:34:434
-0.008146938867866993,-0.12109291553497314,9.87322998046875,-0.002333498937755932,-0.00042567707439687154,0.0021425034742187147,-71.46659942380894,-178.27570222358267,0,0.8231527805328369,2019-08-06 15:40:34:437
0.022984808310866356,-0.09714541584253311,9.791808128356934,-0.0033990234481128304,-0.004687775213352337,0.0013433600914510408,-73.63360698940662,-178.29811606551627,0,0.8268401622772217,2019-08-06 15:40:34:441
-0.015331187285482883,-0.0851716697216034,9.808571815490723,-0.0010015931047540657,-0.0017575828098708665,0.0016097412190402653,-68.56241711727874,-178.3220275605772,0,0.8299696445465088,2019-08-06 15:40:34:444
0.020590057596564293,-0.08756642043590546,9.84449291229248,-0.0010015931047540657,-0.0009584393620846114,0.0018761223466294901,-70.78861365202157,-178.3452288577279,0,0.8329131603240967,2019-08-06 15:40:34:447
-0.000962689402513206,-0.09714541584253311,9.763071060180664,-0.0020671176801295454,-0.009216254902517805,-0.00025492675535753324,-65.77105235261793,-178.3664958564188,0,0.8365886211395264,2019-08-06 15:40:34:450
0.02537955716252327,-0.11151391267776489,9.911545753479004,-0.0020671176801295454,-0.003888631830584663,0.00853565079643443,-68.05193734316045,-178.38587003199078,0,0.8400681018829346,2019-08-06 15:40:34:454
0.030169056728482246,-0.0851716697216034,9.923519134521484,-0.00020244967322245603,-0.006286061978887684,1.1454389502251989e-05,-70.28636302049907,-178.4082838230121,0,0.843048095703125,2019-08-06 15:40:34:457
0.042142804712057114,-0.09475066512823105,9.789413452148438,-0.0028662611929343817,-0.0030894884478169893,0.005605458392952959,-72.47504532850203,-178.42841743014753,0,0.8468375205993652,2019-08-06 15:40:34:461
0.013405809178948402,-0.09235591441392899,9.899572372436523,-0.0010015931047540657,-0.0054869185961200105,-0.0023859759548724283,-74.62302973354956,-178.44898304859495,0,0.8499629497528076,2019-08-06 15:40:34:464
0.01819530874490738,-0.05643467232584953,9.851676940917969,-0.00020244967322245603,-0.003622250702995438,0.004007171627417612,-76.72785360628289,-178.47340567375028,0,0.8529086112976074,2019-08-06 15:40:34:467
0.06130080297589302,-0.10193491727113724,9.770255088806152,-0.0033990234481128304,-0.0028231073202277645,0.003208027984575613,-78.78552309845531,-178.491279550596,0,0.8565914630889893,2019-08-06 15:40:34:470
0.0014320602640509605,-0.07319791615009308,9.854071617126465,-0.002599880065345157,-0.00255672619263854,0.0021425034742187147,-80.80914751477324,-178.51243503242668,0,0.8600645065307617,2019-08-06 15:40:34:474
0.01819530874490738,-0.12588241696357727,9.849282264709473,-0.0007352119771648412,-0.004155012958173888,0.0010769789638618162,-82.7901510544293,-178.5274180720845,0,0.8630502223968506,2019-08-06 15:40:34:477
-0.010541687719523907,-0.13306665420532227,9.849282264709473,-0.0036654045757020556,-0.0028231073202277645,0.002941646856986388,-77.53497370444002,-178.5406089449779,0,0.8668403625488281,2019-08-06 15:40:34:481
0.05172180384397507,-0.09714541584253311,9.889992713928223,-0.0012679742973618717,-0.004421394085763112,0.0026752657293971638,-79.57750011096739,-178.5583171791206,0,0.8699877262115479,2019-08-06 15:40:34:484
-0.015331187285482883,-0.04925042390823364,9.878019332885742,-0.0020671176801295454,-0.0030894884478169893,0.003474409372239163,-74.38721767108817,-178.5810956374122,0,0.8729331493377686,2019-08-06 15:40:34:487
-0.010541687719523907,-0.07319791615009308,9.880414009094238,-0.001534355424951096,-0.0030894884478169893,0.0008105978362725917,-69.30001907795318,-178.60064834729812,0,0.8768348693847656,2019-08-06 15:40:34:491
0.022984808310866356,-0.0851716697216034,9.870835304260254,-0.0004688308170663259,-0.005753299723709235,0.002408884601807939,-71.51034040220708,-178.618665656186,0,0.8799612522125244,2019-08-06 15:40:34:494
0.06130080297589302,-0.14264565706253052,9.906756401062012,-0.0010015931047540657,-0.0012248205546924172,0.004806315010185286,-73.67284067658845,-178.6296281836737,0,0.8829033374786377,2019-08-06 15:40:34:497
0.030169056728482246,-0.07559266686439514,9.789413452148438,-0.00020244967322245603,-0.0030894884478169893,0.004806315010185286,-75.79521536744853,-178.64814543131556,0,0.88657546043396,2019-08-06 15:40:34:500
-0.05843668058514595,-0.13306665420532227,9.87322998046875,0.0011294561110154748,-0.004954156340941561,0.0026752657293971638,-70.68512600247868,-178.6599598858811,0,0.8900527954101562,2019-08-06 15:40:34:504
0.037353307008743286,-0.16419841349124908,9.777440071105957,0.0013958372386046994,-0.0009584393620846114,1.1454389502251989e-05,-72.86688508177369,-178.66775236462772,0,0.8930373191833496,2019-08-06 15:40:34:507
-0.012936437502503395,-0.11630341410636902,9.921124458312988,-0.0004688308170663259,-0.0030894884478169893,0.002408884601807939,-67.8103827557278,-178.68086461138205,0,0.8968350887298584,2019-08-06 15:40:34:511
-0.015331187285482883,-0.09235591441392899,9.90196704864502,-0.003132642320523606,-0.002023963937460091,-0.0018532135696568165,-62.85559428926749,-178.69601014000654,0,0.8999590873718262,2019-08-06 15:40:34:514
-0.015331187285482883,-0.10911916196346283,9.818150520324707,0.0019285994937831485,-0.008150730392160906,1.1454389502251989e-05,-57.99892277471347,-178.7096739220073,0,0.9029066562652588,2019-08-06 15:40:34:517
-0.000962689402513206,-0.07080317288637161,9.763071060180664,6.393147468507523e-05,-0.0014912016822816417,0.00507269613777451,-53.23874864496806,-178.72718348056688,0,0.9065930843353271,2019-08-06 15:40:34:520
-0.000962689402513206,-0.11630341410636902,9.897176742553711,-0.003132642320523606,-0.0022903450650493154,0.0008105978362725917,-48.573639013188675,-178.738564394423,0,0.9100620746612549,2019-08-06 15:40:34:524
0.027774307876825333,-0.1043296679854393,9.88520336151123,6.393147468507523e-05,-0.0017575828098708665,0.002941646856986388,-51.19865265448789,-178.75171011105863,0,0.9130403995513916,2019-08-06 15:40:34:527
0.01819530874490738,-0.06122417002916336,9.86365032196045,-0.0012679742973618717,-0.0033558695754062136,0.0018761223466294901,-53.77184716775069,-178.76929173635548,0,0.9168539047241211,2019-08-06 15:40:34:531
0.09722204506397247,-0.07559266686439514,9.949861526489258,-0.0012679742973618717,-0.004687775213352337,0.0010769789638618162,-56.28439571556674,-178.78497890755312,0,0.9199612140655518,2019-08-06 15:40:34:534
0.06848505139350891,-0.07080317288637161,9.767860412597656,-0.0007352119771648412,-0.0009584393620846114,0.003474409372239163,-58.75051565591308,-178.80085203767322,0,0.9228963851928711,2019-08-06 15:40:34:537
0.03256380558013916,-0.10193491727113724,9.820545196533203,-0.004198166830880505,-0.003622250702995438,0.0013433600914510408,-61.1709578412466,-178.81207440898223,0,0.9265730381011963,2019-08-06 15:40:34:540
-0.03209443390369415,-0.06601367145776749,9.846887588500977,-0.001534355424951096,-0.0030894884478169893,1.1454389502251989e-05,-56.350668932917344,-178.82785049710748,0,0.9300587177276611,2019-08-06 15:40:34:544
0.027774307876825333,-0.11630341410636902,9.854071617126465,-0.00393178570329128,-0.004954156340941561,0.003208027984575613,-58.81957335702641,-178.83709288974936,0,0.9331228733062744,2019-08-06 15:40:34:547
0.011011059395968914,-0.1043296679854393,9.892387390136719,-0.001534355424951096,-0.0030894884478169893,0.0037407904998283874,-61.24126238103494,-178.8479462881573,0,0.9368352890014648,2019-08-06 15:40:34:551
-0.015331187285482883,-0.1043296679854393,9.810966491699219,-0.00393178570329128,-0.004687775213352337,0.0018761223466294901,-56.41740595316004,-178.85811285845068,0,0.9399576187133789,2019-08-06 15:40:34:554
-0.008146938867866993,-0.05164517089724541,9.78222942352295,-0.0020671176801295454,-0.0014912016822816417,-0.0005213078992014032,-51.689766323354185,-178.8745599900283,0,0.9428939819335938,2019-08-06 15:40:34:557
0.042142804712057114,-0.09235591441392899,9.851676940917969,-0.001534355424951096,-0.003622250702995438,0.0018761223466294901,-54.25032156249556,-178.8860099048857,0,0.9465694427490234,2019-08-06 15:40:34:560
-0.008146938867866993,-0.09954016655683517,9.945072174072266,-0.002333498937755932,-0.003888631830584663,0.002941646856986388,-49.56549339765648,-178.8963642890712,0,0.9500522613525391,2019-08-06 15:40:34:564
0.042142804712057114,-0.11869816482067108,9.818150520324707,-0.002333498937755932,-0.003888631830584663,0.0016097412190402653,-52.168609132893735,-178.90419042389564,0,0.9530556201934814,2019-08-06 15:40:34:567
-0.008146938867866993,-0.11151391267776489,9.775045394897461,-0.00020244967322245603,-0.005753299723709235,0.002408884601807939,-47.52496907483391,-178.91299152157967,0,0.956841230392456,2019-08-06 15:40:34:571
-0.012936437502503395,-0.09235591441392899,9.894782066345215,0.00033031263071992917,-0.0030894884478169893,0.0010769789638618162,-42.97542526705569,-178.9240942666645,0,0.9599690437316895,2019-08-06 15:40:34:574
0.015800558030605316,-0.07080317288637161,9.779834747314453,0.002994124134177209,-0.0022903450650493154,0.002941646856986388,-45.71362715087259,-178.937889333261,0,0.9633767604827881,2019-08-06 15:40:34:577
0.04453755542635918,-0.10672441124916077,9.801386833190918,-0.0007352119771648412,-0.002023963937460091,0.002408884601807939,-48.39375135749142,-178.94651056732567,0,0.9668633937835693,2019-08-06 15:40:34:581
0.06609030067920685,-0.10672441124916077,9.882808685302734,-0.0028662611929343817,-0.004954156340941561,0.0010769789638618162,-51.017342438316405,-178.95470228622332,0,0.9699938297271729,2019-08-06 15:40:34:584
-0.0033574390690773726,-0.11869816482067108,9.878019332885742,-0.0007352119771648412,-0.003622250702995438,0.0010769789638618162,-46.39677495225031,-178.96171529365424,0,0.9729936122894287,2019-08-06 15:40:34:587
0.08524829894304276,-0.09475066512823105,9.772649765014648,-0.0020671176801295454,-0.0022903450650493154,0.0026752657293971638,-49.05834577353716,-178.97092171119567,0,0.9768655300140381,2019-08-06 15:40:34:591
-0.008146938867866993,-0.12348766624927521,9.856466293334961,0.0005966937908184444,-0.0033558695754062136,0.0018761223466294901,-44.47753637480539,-178.97725215972207,0,0.9799947738647461,2019-08-06 15:40:34:594
-0.005752188619226217,-0.12827716767787933,9.882808685302734,-0.005263691601311728,-0.005220537468530785,0.004539933882596061,-39.98777901295508,-178.98195333899088,0,0.9829750061035156,2019-08-06 15:40:34:597
0.03256380558013916,-0.11869816482067108,9.849282264709473,0.0005966937908184444,-0.004954156340941561,0.004806315010185286,-42.7831520325377,-178.9886354053238,0,0.9868674278259277,2019-08-06 15:40:34:601
0.006221559830009937,-0.06361892074346542,9.825334548950195,-0.0012679742973618717,-0.0012248205546924172,-0.00025492675535753324,-45.52654740007678,-179.00121942223058,0,0.9900078773498535,2019-08-06 15:40:34:604
0.049327053129673004,-0.06840842217206955,9.904361724853516,-0.0004688308170663259,-0.0022903450650493154,0.0005442166761740764,-48.20992070027603,-179.0132008594109,0,0.9930307865142822,2019-08-06 15:40:34:607
-0.012936437502503395,-0.14504040777683258,9.813361167907715,-0.0004688308170663259,-0.0033558695754062136,-0.00025492675535753324,-43.64651236884464,-179.01590090825647,0,0.9968545436859131,2019-08-06 15:40:34:611
0.02537955716252327,-0.07080317288637161,9.813361167907715,-0.0033990234481128304,-0.00015929593055300162,0.003208027984575613,-46.370590411292135,-179.02671522706748,0,0.9999985694885254,2019-08-06 15:40:34:614
0.011011059395968914,-0.08038216829299927,9.909151077270508,-0.0036654045757020556,-0.0033558695754062136,0.003474409372239163,-49.04134054616626,-179.03626875688084,0,1.002995491027832,2019-08-06 15:40:34:617
0.08045879751443863,-0.1306719183921814,9.842098236083984,0.0024613618789987605,-0.002023963937460091,0.0002778355485848519,-51.65070539564251,-179.04086611854186,0,1.006873607635498,2019-08-06 15:40:34:621
0.03495855629444122,-0.06840842217206955,9.868440628051758,6.393147468507523e-05,-0.0054869185961200105,-0.0005213078992014032,-54.212661539583365,-179.05211669783182,0,1.0100233554840088,2019-08-06 15:40:34:624
-0.012936437502503395,-0.10911916196346283,9.842098236083984,0.0021949807514095357,-0.007351587009393233,1.1454389502251989e-05,-49.52864206470825,-179.05875005260583,0,1.013105869293213,2019-08-06 15:40:34:627
0.022984808310866356,-0.11151391267776489,9.854071617126465,-0.001534355424951096,-0.004687775213352337,0.003474409372239163,-52.1344078252293,-179.06428425834946,0,1.0168614387512207,2019-08-06 15:40:34:631
0.06848505139350891,-0.11151391267776489,9.842098236083984,-0.0020671176801295454,-0.004687775213352337,0.004539933882596061,-54.68291864375185,-179.06965069620364,0,1.0200049877166748,2019-08-06 15:40:34:634
-0.041673433035612106,-0.08277691900730133,9.801386833190918,0.0016622183661939237,-0.0009584393620846114,0.004539933882596061,-49.993969803042475,-179.07886221250456,0,1.023026943206787,2019-08-06 15:40:34:637
0.003826810047030449,-0.07080317288637161,9.923519134521484,6.393147468507523e-05,-0.0014912016822816417,0.004007171627417612,-52.5933276623069,-179.08912288585316,0,1.0268588066101074,2019-08-06 15:40:34:641
0.056511301547288895,-0.09714541584253311,9.889992713928223,-0.00393178570329128,-0.0022903450650493154,0.0026752657293971638,-55.134508366524244,-179.09538955530638,0,1.0300085544586182,2019-08-06 15:40:34:644
-0.015331187285482883,-0.042066171765327454,9.825334548950195,-0.0004688308170663259,-0.004155012958173888,0.002408884601807939,-50.43290222225509,-179.10849623362537,0,1.0330262184143066,2019-08-06 15:40:34:647
0.037353307008743286,-0.10911916196346283,9.75349235534668,-0.0036654045757020556,-0.0022903450650493154,0.0037407904998283874,-53.01936261159923,-179.11271764621102,0,1.0368599891662598,2019-08-06 15:40:34:651
0.030169056728482246,-0.0779874175786972,9.868440628051758,-0.0004688308170663259,-0.003888631830584663,0.0002778355485848519,-55.554788280027125,-179.12132519201018,0,1.039992094039917,2019-08-06 15:40:34:654
-0.048857681453228,-0.0779874175786972,9.813361167907715,-0.0020671176801295454,-0.006019680851298459,0.0002778355485848519,-50.84838973028502,-179.12944610994214,0,1.0429739952087402,2019-08-06 15:40:34:657
0.030169056728482246,-0.07319791615009308,9.86365032196045,0.0011294561110154748,-0.004155012958173888,0.0037407904998283874,-53.426972322273876,-179.13861033315075,0,1.0470232963562012,2019-08-06 15:40:34:661
0.013405809178948402,-0.07319791615009308,9.813361167907715,0.0005966937908184444,-0.003888631830584663,-0.0005213078992014032,-55.95616729049474,-179.147398333326,0,1.0502300262451172,2019-08-06 15:40:34:664
-0.015331187285482883,-0.06601367145776749,9.904361724853516,-0.0033990234481128304,-0.0017575828098708665,0.002408884601807939,-51.238514348416224,-179.15622610536704,0,1.0533041954040527,2019-08-06 15:40:34:667
-0.034489184617996216,-0.06601367145776749,9.856466293334961,-0.0018007365525403206,-0.003888631830584663,0.004007171627417612,-46.616982843910584,-179.1650699325635,0,1.0568349361419678,2019-08-06 15:40:34:671
0.06369554996490479,-0.09235591441392899,9.832518577575684,-0.0028662611929343817,-0.004421394085763112,0.003208027984575613,-49.276440282718774,-179.1704999111147,0,1.0599756240844727,2019-08-06 15:40:34:674
0.03974805399775505,-0.07559266686439514,9.760676383972168,-0.0028662611929343817,-0.0030894884478169893,0.002408884601807939,-51.88571591950408,-179.17772453503525,0,1.063025712966919,2019-08-06 15:40:34:677
0.056511301547288895,-0.06840842217206955,9.846887588500977,6.393147468507523e-05,-0.003888631830584663,0.005605458392952959,-54.44046765931548,-179.1862249966766,0,1.0674114227294922,2019-08-06 15:40:34:681
0.037353307008743286,-0.04446092247962952,9.758281707763672,-0.0007352119771648412,-0.006818824754214785,0.002408884601807939,-56.94604953215699,-179.1971476844607,0,1.0706040859222412,2019-08-06 15:40:34:684
0.022984808310866356,-0.13306665420532227,9.763071060180664,-0.0007352119771648412,-0.004687775213352337,0.0037407904998283874,-59.403629556729534,-179.19746168026015,0,1.0736479759216309,2019-08-06 15:40:34:687
0.056511301547288895,-0.05643467232584953,9.813361167907715,-0.0010015931047540657,-0.004954156340941561,-0.00025492675535753324,-61.80791749903421,-179.20671219577562,0,1.0773890018463135,2019-08-06 15:40:34:691
0.02537955716252327,-0.14264565706253052,9.882808685302734,-0.003132642320523606,-0.004421394085763112,-0.0005213078992014032,-64.16802400983113,-179.20547786621245,0,1.080580711364746,2019-08-06 15:40:34:694
0.01819530874490738,-0.14264565706253052,9.83491325378418,0.0005966937908184444,-0.004155012958173888,0.002408884601807939,-66.48183635817637,-179.2048506576832,0,1.0836117267608643,2019-08-06 15:40:34:697
0.05172180384397507,-0.0588294193148613,9.916335105895996,-0.00020244967322245603,-0.0014912016822816417,0.0021425034742187147,-68.74590650418439,-179.21391255121185,0,1.0873892307281494,2019-08-06 15:40:34:701
-0.000962689402513206,-0.10911916196346283,9.868440628051758,-0.003132642320523606,-0.004421394085763112,0.0016097412190402653,-63.77030772568571,-179.21640252952892,0,1.0905811786651611,2019-08-06 15:40:34:704
0.06369554996490479,-0.09954016655683517,9.892387390136719,-0.002333498937755932,-0.0022903450650493154,0.0013433600914510408,-66.08712878198304,-179.22014237042896,0,1.093648910522461,2019-08-06 15:40:34:707
-0.024910185486078262,-0.0851716697216034,9.880414009094238,-0.0010015931047540657,-0.003888631830584663,-0.00025492675535753324,-61.167456689647324,-179.2256508500179,0,1.097397804260254,2019-08-06 15:40:34:711
0.008616309612989426,-0.15940891206264496,9.842098236083984,-0.0018007365525403206,-0.004155012958173888,0.004007171627417612,-63.542359388636726,-179.2222566126434,0,1.1005909442901611,2019-08-06 15:40:34:714
0.003826810047030449,-0.14504040777683258,9.866044998168945,6.393147468507523e-05,-0.006019680851298459,0.0018761223466294901,-65.87004266658077,-179.22097751241907,0,1.103623628616333,2019-08-06 15:40:34:717
0.056511301547288895,-0.10193491727113724,9.875624656677246,-0.0049973104737225035,-0.007085205881804008,0.003208027984575613,-68.14458691524972,-179.22367404144026,0,1.1073882579803467,2019-08-06 15:40:34:721
-0.012936437502503395,-0.08996116369962692,9.851676940917969,-0.0012679742973618717,-0.0009584393620846114,0.003474409372239163,-63.18302735268133,-179.22850858200172,0,1.1105945110321045,2019-08-06 15:40:34:724
0.020590057596564293,-0.09475066512823105,9.787018775939941,-0.0007352119771648412,-0.0017575828098708665,0.0008105978362725917,-65.51665406859509,-179.23271854351577,0,1.1136541366577148,2019-08-06 15:40:34:727
0.015800558030605316,-0.07080317288637161,9.837308883666992,-0.0028662611929343817,-0.0017575828098708665,0.0021425034742187147,-67.8041119454089,-179.23921575728275,0,1.1173880100250244,2019-08-06 15:40:34:731
0.008616309612989426,-0.08756642043590546,9.806177139282227,0.002994124134177209,-0.006552443626625559,0.0018761223466294901,-70.04584521162708,-179.24473712051656,0,1.120588779449463,2019-08-06 15:40:34:734
0.022984808310866356,-0.09954016655683517,9.918729782104492,-0.003132642320523606,-0.004155012958173888,0.0042735527550068365,-72.24156533066147,-179.2478093997404,0,1.1236214637756348,2019-08-06 15:40:34:737
-0.012936437502503395,-0.10672441124916077,9.90196704864502,-0.002599880065345157,-0.0028231073202277645,1.1454389502251989e-05,-67.197634007844,-179.24995301000246,0,1.1273882389068604,2019-08-06 15:40:34:741
0.003826810047030449,-0.0588294193148613,9.801386833190918,-0.0036654045757020556,-0.0022903450650493154,0.0013433600914510408,-69.45282232501145,-179.25741736458798,0,1.1305887699127197,2019-08-06 15:40:34:744
-0.020120687782764435,-0.10193491727113724,9.787018775939941,-0.0018007365525403206,-0.003622250702995438,-0.0010540701868891429,-64.46550392693989,-179.26002725282035,0,1.1336262226104736,2019-08-06 15:40:34:747
0.0014320602640509605,-0.06840842217206955,9.83491325378418,-0.0007352119771648412,-0.0017575828098708665,0.002408884601807939,-66.7756556796875,-179.26670090127092,0,1.1373887062072754,2019-08-06 15:40:34:751
0.030169056728482246,-0.07080317288637161,9.894782066345215,-0.001534355424951096,-0.003622250702995438,0.0021425034742187147,-69.03599866469256,-179.2728919536577,0,1.1405847072601318,2019-08-06 15:40:34:754
-0.02251543663442135,-0.1043296679854393,9.827729225158691,-0.002333498937755932,-0.0017575828098708665,-0.0018532135696568165,-64.05760293779151,-179.27487000481383,0,1.1436352729797363,2019-08-06 15:40:34:757
-0.005752188619226217,-0.09714541584253311,9.839703559875488,-0.001534355424951096,-0.006818824754214785,-0.0015868324420675922,-59.175677465803645,-179.27773480927752,0,1.1474049091339111,2019-08-06 15:40:34:761
0.013405809178948402,-0.0588294193148613,9.760676383972168,0.0013958372386046994,-0.0012248205546924172,0.002941646856986388,-61.59037002898849,-179.28552430108104,0,1.150604248046875,2019-08-06 15:40:34:764
0.020590057596564293,-0.08756642043590546,9.899572372436523,-0.0012679742973618717,-0.003622250702995438,0.0026752657293971638,-63.95556243501879,-179.28946199487712,0,1.1536369323730469,2019-08-06 15:40:34:767
0.013405809178948402,-0.06840842217206955,9.854071617126465,-0.001534355424951096,-0.004954156340941561,0.0016097412190402653,-66.27383367769016,-179.29538991754674,0,1.157442331314087,2019-08-06 15:40:34:771
0.04693230614066124,-0.08996116369962692,9.875624656677246,-0.001534355424951096,-0.0033558695754062136,0.003208027984575613,-68.54230836541055,-179.29876813131506,0,1.1606419086456299,2019-08-06 15:40:34:774
0.0014320602640509605,-0.10193491727113724,9.870835304260254,-0.00020244967322245603,-0.007085205881804008,0.002408884601807939,-70.77009655959161,-179.30092518737428,0,1.1636567115783691,2019-08-06 15:40:34:777
0.02537955716252327,-0.06840842217206955,9.698412895202637,-0.0007352119771648412,-0.005220537468530785,0.0026752657293971638,-72.95060300258893,-179.3066701076857,0,1.1673851013183594,2019-08-06 15:40:34:781
0.042142804712057114,-0.06601367145776749,9.861255645751953,-0.0012679742973618717,-0.002023963937460091,0.0026752657293971638,-75.08632992951975,-179.31263781050237,0,1.1705870628356934,2019-08-06 15:40:34:784
0.027774307876825333,-0.08038216829299927,9.842098236083984,0.002994124134177209,-0.003888631830584663,0.0005442166761740764,-77.18070406994703,-179.31753878492972,0,1.1736350059509277,2019-08-06 15:40:34:787
0.020590057596564293,-0.042066171765327454,9.751097679138184,-0.004730929346133278,-0.006019680851298459,0.003208027984575613,-79.23339866422084,-179.32524516079982,0,1.1773972511291504,2019-08-06 15:40:34:791
0.056511301547288895,-0.12348766624927521,9.784624099731445,-0.0018007365525403206,-0.0012248205546924172,-0.0018532135696568165,-81.24189290157604,-179.3239560399257,0,1.1805903911590576,2019-08-06 15:40:34:794
0.042142804712057114,-0.11151391267776489,9.899572372436523,-0.00020244967322245603,-0.004687775213352337,-0.0007876890592999184,-83.21137610554642,-179.3245346955763,0,1.1836326122283936,2019-08-06 15:40:34:797
0.020590057596564293,-0.07080317288637161,9.868440628051758,-0.0033990234481128304,-0.003888631830584663,-0.0005213078992014032,-85.14393787966242,-179.32910594771323,0,1.187387228012085,2019-08-06 15:40:34:801
-0.048857681453228,-0.027697674930095673,9.84449291229248,-0.0020671176801295454,-0.0054869185961200105,0.002408884601807939,-79.84576153684935,-179.33892882650343,0,1.1905832290649414,2019-08-06 15:40:34:804
0.05172180384397507,-0.04446092247962952,9.870835304260254,-0.0028662611929343817,-0.003888631830584663,0.003208027984575613,-81.84217464617845,-179.34649692878594,0,1.1936392784118652,2019-08-06 15:40:34:807
0.03495855629444122,-0.10911916196346283,9.947466850280762,-0.0020671176801295454,-0.0014912016822816417,0.0018761223466294901,-83.80098936239926,-179.346561089492,0,1.1973977088928223,2019-08-06 15:40:34:811
0.030169056728482246,-0.08756642043590546,9.808571815490723,-0.001534355424951096,-0.004687775213352337,0.0018761223466294901,-85.72060281028277,-179.34912427593116,0,1.2005972862243652,2019-08-06 15:40:34:814
-0.03688393533229828,-0.07080317288637161,9.94267749786377,0.000863074918407669,-0.00255672619263854,0.002408884601807939,-80.41000114980238,-179.35413041916752,0,1.2036659717559814,2019-08-06 15:40:34:817
0.006221559830009937,-0.12588241696357727,9.763071060180664,-0.0028662611929343817,-0.004155012958173888,0.002408884601807939,-82.4001968137098,-179.351670537622,0,1.2074124813079834,2019-08-06 15:40:34:821
0.008616309612989426,-0.08756642043590546,9.892387390136719,0.0005966937908184444,-0.0014912016822816417,-0.00025492675535753324,-84.35092761610402,-179.35460076594708,0,1.2106032371520996,2019-08-06 15:40:34:824
-0.017725937068462372,-0.10193491727113724,9.717571258544922,-0.0004688308170663259,0.0003734663733893835,0.0010769789638618162,-79.06606297534091,-179.35540893559548,0,1.2136378288269043,2019-08-06 15:40:34:827
-0.03209443390369415,-0.10911916196346283,9.866044998168945,6.393147468507523e-05,-0.004155012958173888,0.0021425034742187147,-73.88759064224591,-179.35564088629707,0,1.2174043655395508,2019-08-06 15:40:34:831
0.03974805399775505,-0.07080317288637161,9.777440071105957,-0.0004688308170663259,-0.0033558695754062136,0.003474409372239163,-76.00457779764376,-179.3601459002926,0,1.22060227394104,2019-08-06 15:40:34:834
0.030169056728482246,-0.11151391267776489,9.904361724853516,0.0013958372386046994,-0.003888631830584663,-0.0031851193376401022,-78.08033383603193,-179.3602791787905,0,1.2236337661743164,2019-08-06 15:40:34:837
0.06130080297589302,-0.12827716767787933,9.940282821655273,-0.0007352119771648412,-0.004687775213352337,0.0026752657293971638,-80.11067290172618,-179.3581317369043,0,1.2273857593536377,2019-08-06 15:40:34:841
0.09482730180025101,-0.12588241696357727,9.971414566040039,0.0035268863893556587,-0.0009584393620846114,0.0026752657293971638,-82.09739001064354,-179.35713712824784,0,1.2305855751037598,2019-08-06 15:40:34:844
0.027774307876825333,-0.07319791615009308,9.813361167907715,-0.0020671176801295454,-0.0009584393620846114,0.002941646856986388,-84.05203452145197,-179.36109244267456,0,1.2336416244506836,2019-08-06 15:40:34:847
0.06369554996490479,-0.08277691900730133,9.933098793029785,-0.0012679742973618717,-0.004155012958173888,0.003474409372239163,-85.96276816608268,-179.36405356681968,0,1.237403392791748,2019-08-06 15:40:34:851
0.020590057596564293,-0.09954016655683517,9.866044998168945,-0.004464548218544054,-0.004687775213352337,0.0021425034742187147,-87.84028089535056,-179.36441114640544,0,1.2405962944030762,2019-08-06 15:40:34:854
-0.027304936200380325,-0.14743515849113464,9.825334548950195,-0.005263691601311728,-0.0006920582344953867,0.0016097412190402653,-82.48654171944317,-179.35903089026704,0,1.2436351776123047,2019-08-06 15:40:34:857
0.03495855629444122,-0.1043296679854393,9.894782066345215,-0.0020671176801295454,-0.003888631830584663,0.0018761223466294901,-84.43194108487683,-179.359331725065,0,1.247396469116211,2019-08-06 15:40:34:861
0.03256380558013916,-0.10672441124916077,9.880414009094238,-0.0010015931047540657,-0.0022903450650493154,0.003208027984575613,-86.3391107596247,-179.35958643128518,0,1.250622034072876,2019-08-06 15:40:34:864
0.03974805399775505,-0.1043296679854393,9.875624656677246,0.003260505261766434,-0.00255672619263854,0.002408884601807939,-88.20728336983974,-179.3608415329524,0,1.253638505935669,2019-08-06 15:40:34:867
0.0756693035364151,-0.04925042390823364,9.928308486938477,-0.0033990234481128304,-0.0030894884478169893,0.002408884601807939,-90.03375468529784,-179.36722572954457,0,1.2573826313018799,2019-08-06 15:40:34:871
0.0014320602640509605,-0.05164517089724541,9.868440628051758,-0.0012679742973618717,-0.004421394085763112,0.004007171627417612,-91.83212051158452,-179.3736569153018,0,1.2605760097503662,2019-08-06 15:40:34:874
0.02537955716252327,-0.10193491727113724,9.810966491699219,-0.0007352119771648412,-0.00255672619263854,-0.0015868324420675922,-93.59207742515613,-179.37415278120724,0,1.263615608215332,2019-08-06 15:40:34:877
0.015800558030605316,-0.11630341410636902,9.868440628051758,-0.0010015931047540657,-0.005220537468530785,0.0016097412190402653,-95.31729242298067,-179.3729525771028,0,1.2673978805541992,2019-08-06 15:40:34:881
0.0756693035364151,-0.06361892074346542,9.858860969543457,-0.0028662611929343817,-0.0030894884478169893,0.0026752657293971638,-97.0015979935126,-179.3775855116411,0,1.2705888748168945,2019-08-06 15:40:34:884
0.05411655455827713,-0.030092423781752586,9.846887588500977,6.393147468507523e-05,-0.0014912016822816417,0.0042735527550068365,-98.65501400249956,-179.38654276063318,0,1.2736268043518066,2019-08-06 15:40:34:887
0.011011059395968914,-0.05403992161154747,9.854071617126465,-0.002333498937755932,-0.003622250702995438,0.0021425034742187147,-100.2798661729497,-179.39203357596207,0,1.2773983478546143,2019-08-06 15:40:34:891
0.008616309612989426,-0.08996116369962692,9.84449291229248,-0.00020244967322245603,-0.0014912016822816417,0.004007171627417612,-101.87299835302039,-179.39368524214444,0,1.2805936336517334,2019-08-06 15:40:34:894
0.07327455282211304,-0.09475066512823105,9.779834747314453,-0.00020244967322245603,-0.002023963937460091,0.004007171627417612,-103.42660602967675,-179.39467513589923,0,1.2836456298828125,2019-08-06 15:40:34:897
-0.06083143129944801,-0.05643467232584953,9.892387390136719,6.393147468507523e-05,-0.0033558695754062136,0.0002778355485848519,-97.76441252643951,-179.40025790337873,0,1.2874023914337158,2019-08-06 15:40:34:901
-0.020120687782764435,-0.1570141613483429,9.784624099731445,0.0021949807514095357,-0.0054869185961200105,0.002408884601807939,-92.21049000665231,-179.39426209089484,0,1.2906179428100586,2019-08-06 15:40:34:904
-0.008146938867866993,-0.09475066512823105,9.9139404296875,0.0013958372386046994,-0.008150730392160906,0.004007171627417612,-86.76583284399656,-179.39566318143463,0,1.2936530113220215,2019-08-06 15:40:34:907
0.027774307876825333,-0.11151391267776489,9.846887588500977,0.00033031263071992917,-0.0028231073202277645,0.002408884601807939,-88.62665478295959,-179.39484684269118,0,1.2976224422454834,2019-08-06 15:40:34:911
-0.02969968505203724,-0.08756642043590546,9.88520336151123,-0.0018007365525403206,0.0003734663733893835,0.0016097412190402653,-83.25763005350355,-179.39648335057356,0,1.3007469177246094,2019-08-06 15:40:34:914
0.03974805399775505,-0.10193491727113724,9.916335105895996,-0.0012679742973618717,-0.002023963937460091,0.002941646856986388,-85.18754757208055,-179.39656373860706,0,1.3037095069885254,2019-08-06 15:40:34:917
0.022984808310866356,-0.08038216829299927,9.851676940917969,-0.0028662611929343817,-0.0012248205546924172,1.1454389502251989e-05,-87.0808713154939,-179.39869364723342,0,1.307370662689209,2019-08-06 15:40:34:921
0.003826810047030449,-0.06122417002916336,9.9139404296875,-0.001534355424951096,-0.003888631830584663,0.0005442166761740764,-88.93811336350763,-179.40336769802272,0,1.3105683326721191,2019-08-06 15:40:34:924
0.037353307008743286,-0.09954016655683517,9.83491325378418,-0.0004688308170663259,-0.005220537468530785,0.005605458392952959,-90.75410523329023,-179.4036225554621,0,1.3136169910430908,2019-08-06 15:40:34:927
0.027774307876825333,-0.09714541584253311,9.801386833190918,0.0011294561110154748,-0.0028231073202277645,-0.00025492675535753324,-92.53517729474139,-179.4044323585725,0,1.3173935413360596,2019-08-06 15:40:34:931
0.020590057596564293,-0.05164517089724541,9.839703559875488,-0.00393178570329128,-0.004155012958173888,0.003208027984575613,-94.28133084223023,-179.40962425580034,0,1.320586919784546,2019-08-06 15:40:34:934
0.04453755542635918,-0.09714541584253311,9.940282821655273,-0.0049973104737225035,-0.0033558695754062136,0.005605458392952959,-95.98999829306028,-179.4093819051713,0,1.3236207962036133,2019-08-06 15:40:34:937
-0.0033574390690773726,-0.1498299092054367,9.818150520324707,-0.00020244967322245603,-0.0054869185961200105,-0.0007876890592999184,-90.46942894803136,-179.4036655308003,0,1.3273899555206299,2019-08-06 15:40:34:941
0.05890605226159096,-0.11630341410636902,9.878019332885742,-0.0007352119771648412,-0.0028231073202277645,0.0021425034742187147,-92.25270113118837,-179.40196914734932,0,1.3305809497833252,2019-08-06 15:40:34:944
0.042142804712057114,-0.0779874175786972,9.856466293334961,-0.0028662611929343817,-0.006019680851298459,0.0008105978362725917,-94.00171529088375,-179.4043715799809,0,1.3336350917816162,2019-08-06 15:40:34:947
0.006221559830009937,-0.07319791615009308,9.803781509399414,-0.0020671176801295454,-0.002023963937460091,0.0005442166761740764,-95.72052637885966,-179.4072920528816,0,1.3373959064483643,2019-08-06 15:40:34:951
0.008616309612989426,-0.14504040777683258,9.949861526489258,-0.0018007365525403206,-0.006286061978887684,0.0016097412190402653,-97.40399486530626,-179.4021199163245,0,1.3405935764312744,2019-08-06 15:40:34:954
0.020590057596564293,-0.09235591441392899,9.755887031555176,-0.0036654045757020556,-0.003622250702995438,0.0013433600914510408,-99.0528452915433,-179.4025708665922,0,1.3437952995300293,2019-08-06 15:40:34:958
0.056511301547288895,-0.0851716697216034,9.9139404296875,0.00033031263071992917,-0.0022903450650493154,0.0042735527550068365,-100.66486130139606,-179.40473201311983,0,1.3468685150146484,2019-08-06 15:40:34:961
0.01819530874490738,-0.10672441124916077,9.861255645751953,-0.005263691601311728,-0.002023963937460091,-0.00025492675535753324,-102.2490944959312,-179.40331226414446,0,1.34999418258667,2019-08-06 15:40:34:964
0.013405809178948402,-0.11869816482067108,9.856466293334961,-0.001534355424951096,-0.0028231073202277645,0.0016097412190402653,-103.80208253305884,-179.4011905378266,0,1.352968692779541,2019-08-06 15:40:34:967
0.037353307008743286,-0.05643467232584953,9.851676940917969,-0.0033990234481128304,-0.0030894884478169893,0.002408884601807939,-105.32102279441857,-179.405861749728,0,1.3568499088287354,2019-08-06 15:40:34:971
0.013405809178948402,-0.11151391267776489,9.851676940917969,-0.002599880065345157,-0.0006920582344953867,0.003474409372239163,-106.81292115070717,-179.4043163010999,0,1.3599860668182373,2019-08-06 15:40:34:974
0.06369554996490479,-0.05403992161154747,9.851676940917969,0.00033031263071992917,-0.0033558695754062136,0.003208027984575613,-108.26869495880175,-179.4099993094151,0,1.362952709197998,2019-08-06 15:40:34:977
0.04453755542635918,-0.08756642043590546,9.882808685302734,-0.002599880065345157,-0.0014912016822816417,-0.00025492675535753324,-109.6978300337307,-179.41107626040105,0,1.3668570518493652,2019-08-06 15:40:34:981
-0.000962689402513206,-0.0779874175786972,9.830123901367188,-0.002333498937755932,-0.004421394085763112,0.003474409372239163,-103.9032092016619,-179.4133539969458,0,1.3699846267700195,2019-08-06 15:40:34:984
-0.05125243216753006,-0.09235591441392899,9.861255645751953,6.393147468507523e-05,-0.005220537468530785,0.0016097412190402653,-98.2302298851756,-179.41436578462037,0,1.372955322265625,2019-08-06 15:40:34:987
0.003826810047030449,-0.05643467232584953,9.810966491699219,-0.00020244967322245603,-0.005220537468530785,0.003208027984575613,-99.86403725307098,-179.41944275246402,0,1.3768479824066162,2019-08-06 15:40:34:991
0.02537955716252327,-0.07559266686439514,9.827729225158691,-0.00020244967322245603,-0.0033558695754062136,0.0021425034742187147,-101.46320607616299,-179.42220428420913,0,1.3799853324890137,2019-08-06 15:40:34:994
0.07806405425071716,-0.11869816482067108,9.830123901367188,-0.006329216111668627,-0.002023963937460091,0.003474409372239163,-103.02450251937715,-179.41886216788512,0,1.3829731941223145,2019-08-06 15:40:34:997
0.006221559830009937,-0.09235591441392899,9.8229398727417,-0.00020244967322245603,-0.0054869185961200105,0.0018761223466294901,-104.56208908084325,-179.41966708210762,0,1.3868603706359863,2019-08-06 15:40:35:001
0.01819530874490738,-0.1043296679854393,9.83491325378418,-0.0018007365525403206,-0.0033558695754062136,0.004007171627417612,-106.06813582849047,-179.41880085241542,0,1.3899991512298584,2019-08-06 15:40:35:004
0.015800558030605316,-0.10672441124916077,9.84449291229248,0.00033031263071992917,-0.00255672619263854,0.0042735527550068365,-107.5445007892416,-179.4180583757913,0,1.3930160999298096,2019-08-06 15:40:35:007
0.03256380558013916,-0.07559266686439514,9.84449291229248,-0.0020671176801295454,-0.003888631830584663,0.002408884601807939,-108.98898108190615,-179.420452153067,0,1.3968596458435059,2019-08-06 15:40:35:011
-0.024910185486078262,-0.09954016655683517,9.808571815490723,-0.0010015931047540657,-0.0033558695754062136,0.0016097412190402653,-103.21152201206922,-179.4202384464974,0,1.3999888896942139,2019-08-06 15:40:35:014
0.011011059395968914,-0.09954016655683517,9.837308883666992,0.000863074918407669,-0.004421394085763112,1.1454389502251989e-05,-104.7452714235837,-179.42038293282016,0,1.4029595851898193,2019-08-06 15:40:35:017
-0.000962689402513206,-0.08996116369962692,9.719965934753418,-0.0018007365525403206,-0.0022903450650493154,0.002941646856986388,-99.0499783927646,-179.42097581187673,0,1.4068560600280762,2019-08-06 15:40:35:021
0.05172180384397507,-0.10193491727113724,9.882808685302734,-0.0007352119771648412,-0.0028231073202277645,0.0018761223466294901,-100.66248545057852,-179.42060807996626,0,1.4099867343902588,2019-08-06 15:40:35:024
0.07087980210781097,-0.09714541584253311,9.8229398727417,-0.002333498937755932,-0.0017575828098708665,0.0016097412190402653,-102.24067368145107,-179.4204738178342,0,1.412961483001709,2019-08-06 15:40:35:027
0.05411655455827713,-0.07319791615009308,9.87322998046875,-0.0012679742973618717,-0.003622250702995438,0.004007171627417612,-103.78878956294821,-179.4232924704206,0,1.4168446063995361,2019-08-06 15:40:35:031
0.008616309612989426,-0.09475066512823105,9.854071617126465,-0.004464548218544054,-0.00255672619263854,0.0016097412190402653,-105.31156283399955,-179.4230245716402,0,1.4199719429016113,2019-08-06 15:40:35:034
-0.005752188619226217,-0.08038216829299927,9.870835304260254,-0.003132642320523606,-0.0014912016822816417,0.0021425034742187147,-99.60574917887476,-179.42470707930752,0,1.422959804534912,2019-08-06 15:40:35:037
0.02537955716252327,-0.15461941063404083,9.87322998046875,-0.0018007365525403206,-0.0017575828098708665,0.0010769789638618162,-101.21030328869473,-179.41787408082135,0,1.4268639087677002,2019-08-06 15:40:35:041
0.0014320602640509605,-0.0851716697216034,9.894782066345215,-0.001534355424951096,-0.004155012958173888,0.0021425034742187147,-102.78520153512306,-179.41938358993042,0,1.4299921989440918,2019-08-06 15:40:35:044
-0.027304936200380325,-0.05164517089724541,9.784624099731445,0.0024613618789987605,-0.00042567707439687154,0.0018761223466294901,-97.13262415959936,-179.4253588637158,0,1.4329679012298584,2019-08-06 15:40:35:047
-0.015331187285482883,-0.06601367145776749,9.854071617126465,-0.0010015931047540657,-0.0033558695754062136,0.002941646856986388,-91.59095551455745,-179.42893669774145,0,1.4372081756591797,2019-08-06 15:40:35:051
0.013405809178948402,-0.11869816482067108,9.866044998168945,0.0005966937908184444,-0.0006920582344953867,0.0016097412190402653,-93.35747126391112,-179.4266653407658,0,1.4399898052215576,2019-08-06 15:40:35:054
-0.03927868604660034,-0.04685567319393158,9.861255645751953,-0.001534355424951096,-0.0030894884478169893,0.003474409372239163,-87.89436998123678,-179.43243091898103,0,1.4429652690887451,2019-08-06 15:40:35:057
0.02537955716252327,-0.09235591441392899,9.947466850280762,-0.0018007365525403206,-0.0022903450650493154,0.0016097412190402653,-89.73305938252999,-179.43275073595873,0,1.4468498229980469,2019-08-06 15:40:35:061
0.020590057596564293,-0.07319791615009308,9.83491325378418,-0.0004688308170663259,-0.0028231073202277645,0.007470126286077531,-91.53550393923591,-179.43548497990795,0,1.4499738216400146,2019-08-06 15:40:35:064
-0.034489184617996216,-0.07319791615009308,9.78222942352295,-0.002333498937755932,-0.007617968136982457,0.0002778355485848519,-86.10756777434055,-179.43781298482173,0,1.4529340267181396,2019-08-06 15:40:35:067
0.03256380558013916,-0.10193491727113724,9.935493469238281,6.393147468507523e-05,-0.002023963937460091,0.0037407904998283874,-87.98123532824133,-179.437313853313,0,1.456676721572876,2019-08-06 15:40:35:070
-0.07280518114566803,-0.0588294193148613,9.928308486938477,-0.0004688308170663259,-0.005220537468530785,0.0021425034742187147,-82.62900837101915,-179.44168734977313,0,1.4601058959960938,2019-08-06 15:40:35:074
-0.0033574390690773726,-0.10193491727113724,9.909151077270508,-0.002599880065345157,-0.003888631830584663,-0.0007876890592999184,-77.37616449345843,-179.440630146697,0,1.4630918502807617,2019-08-06 15:40:35:077
0.04453755542635918,-0.17377740144729614,9.772649765014648,0.0019285994937831485,-0.002023963937460091,0.0042735527550068365,-79.42299386685634,-179.43184799207316,0,1.4668316841125488,2019-08-06 15:40:35:081
0.01819530874490738,-0.05164517089724541,9.923519134521484,0.0011294561110154748,-0.0022903450650493154,-0.00025492675535753324,-81.43203089417264,-179.43744561566965,0,1.4699575901031494,2019-08-06 15:40:35:084
-0.03209443390369415,-0.09954016655683517,9.820545196533203,-0.0007352119771648412,-0.003888631830584663,0.004806315010185286,-76.20648517373391,-179.43695930114654,0,1.4729347229003906,2019-08-06 15:40:35:087
0.006221559830009937,-0.06840842217206955,9.801386833190918,-0.0012679742973618717,-0.004155012958173888,0.005605458392952959,-78.2807539562051,-179.43995561323172,0,1.4766814708709717,2019-08-06 15:40:35:090
0.03256380558013916,-0.08277691900730133,9.875624656677246,-0.0018007365525403206,-0.006552443626625559,0.0010769789638618162,-80.3100987878118,-179.44120502366167,0,1.4801104068756104,2019-08-06 15:40:35:094
0.049327053129673004,-0.06122417002916336,9.818150520324707,-0.0004688308170663259,-0.0017575828098708665,0.0010769789638618162,-82.29784415442566,-179.44515646137813,0,1.483105182647705,2019-08-06 15:40:35:097
-0.000962689402513206,-0.10672441124916077,9.854071617126465,-0.001534355424951096,-0.0028231073202277645,0.004806315010185286,-77.05140529748851,-179.44352019477546,0,1.4868519306182861,2019-08-06 15:40:35:101
0.013405809178948402,-0.08038216829299927,9.892387390136719,-0.00020244967322245603,-0.005220537468530785,-0.0005213078992014032,-79.10790735517948,-179.44530311808458,0,1.4899799823760986,2019-08-06 15:40:35:104
0.006221559830009937,-0.08756642043590546,9.892387390136719,-0.0033990234481128304,-0.005753299723709235,0.004007171627417612,-81.12406945626178,-179.4456871836554,0,1.4929487705230713,2019-08-06 15:40:35:107
0.049327053129673004,-0.06601367145776749,9.854071617126465,-0.0004688308170663259,-0.0014912016822816417,0.0016097412190402653,-83.0955241321559,-179.44899385799673,0,1.496863842010498,2019-08-06 15:40:35:111
-0.015331187285482883,-0.06601367145776749,9.760676383972168,-0.0010015931047540657,-0.002023963937460091,-0.0018532135696568165,-77.83505887303063,-179.45208849433766,0,1.4999847412109375,2019-08-06 15:40:35:114
0.006221559830009937,-0.12348766624927521,9.839703559875488,-0.0018007365525403206,-0.006019680851298459,0.0002778355485848519,-79.87663096944773,-179.44836651841266,0,1.5029497146606445,2019-08-06 15:40:35:117
0.03495855629444122,-0.08038216829299927,9.878019332885742,-0.0020671176801295454,-0.0014912016822816417,0.0010769789638618162,-81.87471610942185,-179.44962147055426,0,1.5068531036376953,2019-08-06 15:40:35:121
0.0756693035364151,-0.04685567319393158,9.861255645751953,-0.00393178570329128,-0.002023963937460091,-0.0015868324420675922,-83.82807208153004,-179.45449111711267,0,1.5099928379058838,2019-08-06 15:40:35:124
-0.000962689402513206,-0.09954016655683517,9.906756401062012,-0.0028662611929343817,0.0009062286610771233,0.0016097412190402653,-78.55177332683226,-179.45340921886944,0,1.5129668712615967,2019-08-06 15:40:35:127
0.011011059395968914,-0.09235591441392899,9.832518577575684,-0.0020671176801295454,-0.005753299723709235,0.0010769789638618162,-80.57820208819356,-179.45312785855765,0,1.5168440341949463,2019-08-06 15:40:35:131
0.037353307008743286,-0.12109291553497314,9.918729782104492,-0.0018007365525403206,-0.00255672619263854,0.0010769789638618162,-82.56187372999166,-179.44975991373852,0,1.5199708938598633,2019-08-06 15:40:35:134
0.022984808310866356,-0.09954016655683517,9.868440628051758,-0.002599880065345157,0.00010708522141819095,-0.0021195946972460415,-84.50798522339919,-179.44877099626416,0,1.5229547023773193,2019-08-06 15:40:35:137
0.030169056728482246,-0.08038216829299927,9.894782066345215,-0.0028662611929343817,-0.008150730392160906,0.0013433600914510408,-86.41254641450833,-179.44985892503442,0,1.52685546875,2019-08-06 15:40:35:141
-0.02251543663442135,-0.06122417002916336,9.868440628051758,0.000863074918407669,-0.004687775213352337,0.002941646856986388,-81.08608634616954,-179.45390417153098,0,1.529984474182129,2019-08-06 15:40:35:144
0.03495855629444122,-0.09954016655683517,9.832518577575684,-0.001534355424951096,0.0003734663733893835,0.002941646856986388,-83.06035554137122,-179.45295829080575,0,1.5330886840820312,2019-08-06 15:40:35:147
0.022984808310866356,-0.08996116369962692,9.894782066345215,0.0005966937908184444,-0.004155012958173888,0.0037407904998283874,-84.99561215543336,-179.45360657369284,0,1.5368366241455078,2019-08-06 15:40:35:151
0.06848505139350891,-0.09954016655683517,9.930704116821289,-0.001534355424951096,-0.0054869185961200105,0.0010769789638618162,-86.88683411387392,-179.45277937935623,0,1.5399634838104248,2019-08-06 15:40:35:154
0.06609030067920685,-0.10672441124916077,9.83491325378418,0.0021949807514095357,-0.002023963937460091,0.0018761223466294901,-88.74106064530567,-179.45165408735036,0,1.5429234504699707,2019-08-06 15:40:35:157
-0.000962689402513206,-0.08756642043590546,9.959440231323242,-0.0007352119771648412,-0.0017575828098708665,0.0016097412190402653,-83.36598163852534,-179.45239185616197,0,1.5466580390930176,2019-08-06 15:40:35:160
0.006221559830009937,-0.06361892074346542,9.880414009094238,0.0021949807514095357,-0.002023963937460091,0.0069373640308990825,-85.29754986207737,-179.45638927279478,0,1.5500948429107666,2019-08-06 15:40:35:164
0.01819530874490738,-0.042066171765327454,9.858860969543457,-0.0020671176801295454,-0.0028231073202277645,0.0026752657293971638,-87.18901028653438,-179.46202522816813,0,1.5530831813812256,2019-08-06 15:40:35:167
0.011011059395968914,-0.06840842217206955,9.868440628051758,-0.004464548218544054,-0.007884349264571683,-0.0005213078992014032,-89.0422904590889,-179.4639007546646,0,1.5568351745605469,2019-08-06 15:40:35:171
0.022984808310866356,-0.09475066512823105,9.839703559875488,-0.002599880065345157,-0.00255672619263854,0.0013433600914510408,-90.85831834028916,-179.46313144560574,0,1.5599665641784668,2019-08-06 15:40:35:174
-0.010541687719523907,-0.1498299092054367,9.87322998046875,-0.004730929346133278,-0.007085205881804008,0.0010769789638618162,-85.44118841321803,-179.4556878373711,0,1.5629503726959229,2019-08-06 15:40:35:177
0.05890605226159096,-0.05164517089724541,9.909151077270508,0.0019285994937831485,-0.0028231073202277645,0.0037407904998283874,-87.32493338156505,-179.46102486342158,0,1.5668573379516602,2019-08-06 15:40:35:181
0.006221559830009937,-0.10193491727113724,9.949861526489258,-0.0007352119771648412,-0.0017575828098708665,0.0021425034742187147,-89.1774095054563,-179.4599359119306,0,1.5699851512908936,2019-08-06 15:40:35:184
0.037353307008743286,-0.07319791615009308,9.856466293334961,-0.003132642320523606,-0.003622250702995438,0.0010769789638618162,-90.98891330823034,-179.46170383717723,0,1.5729613304138184,2019-08-06 15:40:35:187
0.008616309612989426,-0.0851716697216034,9.966625213623047,-0.0010015931047540657,-0.00042567707439687154,0.002408884601807939,-92.76804733798699,-179.46244902835778,0,1.5770213603973389,2019-08-06 15:40:35:191
-0.000962689402513206,-0.06601367145776749,9.899572372436523,-0.0010015931047540657,-0.0014912016822816417,0.002408884601807939,-87.31254914768668,-179.46539178159816,0,1.579991340637207,2019-08-06 15:40:35:194
-0.000962689402513206,-0.09714541584253311,9.770255088806152,-0.0010015931047540657,-0.002023963937460091,0.0008105978362725917,-81.96607181648086,-179.46452262193696,0,1.5829765796661377,2019-08-06 15:40:35:197
0.027774307876825333,-0.09475066512823105,9.851676940917969,-0.0004688308170663259,-0.005220537468530785,0.0010769789638618162,-83.9223854141378,-179.4641095436939,0,1.5868463516235352,2019-08-06 15:40:35:201
0.042142804712057114,-0.10911916196346283,9.775045394897461,-0.00020244967322245603,-0.0017575828098708665,0.0016097412190402653,-85.8386884783884,-179.46200040709377,0,1.5899765491485596,2019-08-06 15:40:35:204
-0.008146938867866993,-0.12588241696357727,9.909151077270508,-0.005263691601311728,-0.0033558695754062136,-0.0005213078992014032,-80.52229881731377,-179.45732861051198,0,1.59293794631958,2019-08-06 15:40:35:207
0.06848505139350891,-0.03967142477631569,9.880414009094238,0.002994124134177209,-0.002023963937460091,-0.0005213078992014032,-82.5035413012895,-179.46412671864678,0,1.5961837768554688,2019-08-06 15:40:35:210
0.02537955716252327,-0.09235591441392899,9.923519134521484,0.0011294561110154748,-0.006286061978887684,0.0021425034742187147,-84.44910775986224,-179.4644370196587,0,1.60024094581604,2019-08-06 15:40:35:214
0.0014320602640509605,-0.10193491727113724,9.86365032196045,6.393147468507523e-05,-0.004421394085763112,0.0026752657293971638,-86.35920142516363,-179.4633173072551,0,1.6032934188842773,2019-08-06 15:40:35:217
0.08045879751443863,-0.11869816482067108,9.837308883666992,-0.004730929346133278,-0.003888631830584663,0.004539933882596061,-88.22187523971049,-179.45928810562896,0,1.6068198680877686,2019-08-06 15:40:35:221
0.04453755542635918,-0.03967142477631569,9.923519134521484,-0.0010015931047540657,-0.004155012958173888,0.0037407904998283874,-90.05156513381837,-179.46534542858936,0,1.6099474430084229,2019-08-06 15:40:35:224
0.011011059395968914,-0.08756642043590546,9.9139404296875,-0.002599880065345157,-0.0014912016822816417,0.0026752657293971638,-91.84901224576075,-179.46548342597026,0,1.612919569015503,2019-08-06 15:40:35:227
0.13314329087734222,-0.08996116369962692,9.887598037719727,-0.0007352119771648412,-0.0014912016822816417,0.002941646856986388,-93.59628837627898,-179.4655932439818,0,1.6166698932647705,2019-08-06 15:40:35:230
0.01819530874490738,-0.11390866339206696,9.777440071105957,6.393147468507523e-05,-0.004954156340941561,-0.00025492675535753324,-95.32127667470752,-179.46294419605215,0,1.6200973987579346,2019-08-06 15:40:35:234
0.03256380558013916,-0.09475066512823105,9.949861526489258,6.393147468507523e-05,-0.0033558695754062136,0.0005442166761740764,-97.01053461639204,-179.46278408915555,0,1.6231021881103516,2019-08-06 15:40:35:237
0.015800558030605316,-0.11869816482067108,9.87322998046875,-0.0020671176801295454,-0.0009584393620846114,0.003474409372239163,-98.66828304240548,-179.45930611761437,0,1.6269490718841553,2019-08-06 15:40:35:241
0.013405809178948402,-0.07559266686439514,9.90196704864502,-0.0018007365525403206,-0.0028231073202277645,0.004806315010185286,-100.29287096287278,-179.4610563735798,0,1.6300718784332275,2019-08-06 15:40:35:244
0.049327053129673004,-0.11630341410636902,9.815755844116211,-0.0012679742973618717,-0.006818824754214785,-0.0005213078992014032,-101.88010904100757,-179.4580452345288,0,1.6330649852752686,2019-08-06 15:40:35:247
0.013405809178948402,-0.08996116369962692,9.87322998046875,-0.003132642320523606,-0.0030894884478169893,-0.00025492675535753324,-103.44029576821849,-179.45777913879448,0,1.6368417739868164,2019-08-06 15:40:35:251
0.03495855629444122,-0.08996116369962692,9.820545196533203,-0.00020244967322245603,0.0003734663733893835,0.0016097412190402653,-104.96747634268083,-179.45809110576025,0,1.6399714946746826,2019-08-06 15:40:35:254
0.03256380558013916,-0.10193491727113724,9.813361167907715,6.393147468507523e-05,-0.0028231073202277645,0.0026752657293971638,-106.4638541350561,-179.45703732149244,0,1.6429376602172852,2019-08-06 15:40:35:257
0.037353307008743286,-0.042066171765327454,9.818150520324707,-0.0018007365525403206,-0.0022903450650493154,-0.0010540701868891429,-107.92980024278899,-179.46265889737842,0,1.646181583404541,2019-08-06 15:40:35:260
-0.005752188619226217,-0.09475066512823105,9.813361167907715,-0.0028662611929343817,-0.005220537468530785,0.004539933882596061,-102.17068754702971,-179.4616894745738,0,1.650235652923584,2019-08-06 15:40:35:264
0.05890605226159096,-0.10911916196346283,9.760676383972168,0.00033031263071992917,-0.0028231073202277645,0.004806315010185286,-103.71987493373553,-179.4597020408447,0,1.6532845497131348,2019-08-06 15:40:35:267
0.030169056728482246,-0.08038216829299927,9.856466293334961,-0.002599880065345157,-0.004155012958173888,0.0008105978362725917,-105.24114663835583,-179.46064776914483,0,1.656813621520996,2019-08-06 15:40:35:271
0.030169056728482246,-0.08756642043590546,9.851676940917969,-0.0012679742973618717,-0.004421394085763112,1.1454389502251989e-05,-106.73203791682079,-179.46102691211672,0,1.6599419116973877,2019-08-06 15:40:35:274
-0.020120687782764435,-0.07080317288637161,9.813361167907715,0.0021949807514095357,-0.0030894884478169893,0.002408884601807939,-100.9992278948642,-179.4639073337788,0,1.6629323959350586,2019-08-06 15:40:35:277
0.06130080297589302,-0.0779874175786972,9.887598037719727,-0.003132642320523606,-0.002023963937460091,0.0005442166761740764,-102.57171435614968,-179.4649338005704,0,1.6666691303253174,2019-08-06 15:40:35:280
0.013405809178948402,-0.13546140491962433,9.810966491699219,0.000863074918407669,-0.0009584393620846114,1.1454389502251989e-05,-104.11852887378957,-179.45998126807808,0,1.670114278793335,2019-08-06 15:40:35:284
0.006221559830009937,-0.10193491727113724,9.880414009094238,-0.0012679742973618717,-0.002023963937460091,0.0008105978362725917,-105.63509042611285,-179.4587428511776,0,1.673161506652832,2019-08-06 15:40:35:287
-0.000962689402513206,-0.08756642043590546,9.854071617126465,-0.0028662611929343817,-0.003622250702995438,0.0018761223466294901,-99.92175384381926,-179.45879441409213,0,1.676832914352417,2019-08-06 15:40:35:291
-0.000962689402513206,-0.01811867579817772,9.741518020629883,-0.0007352119771648412,-0.003622250702995438,0.002941646856986388,-94.32279652657397,-179.46735820493893,0,1.679957389831543,2019-08-06 15:40:35:294
0.011011059395968914,-0.08277691900730133,9.90196704864502,-0.0028662611929343817,-0.0033558695754062136,0.0013433600914510408,-96.03450745564191,-179.46795448080636,0,1.6829233169555664,2019-08-06 15:40:35:297
-0.0033574390690773726,-0.1378561556339264,9.8229398727417,-0.0004688308170663259,-0.004155012958173888,0.0002778355485848519,-90.51333657084243,-179.4624161110121,0,1.6866626739501953,2019-08-06 15:40:35:300
0.06609030067920685,-0.11151391267776489,9.830123901367188,-0.0020671176801295454,-0.0033558695754062136,0.003208027984575613,-92.29471866934189,-179.45977042035204,0,1.690096378326416,2019-08-06 15:40:35:304
0.05890605226159096,-0.10193491727113724,9.796597480773926,-0.0020671176801295454,-0.00255672619263854,0.0013433600914510408,-94.04150539515406,-179.45830543350667,0,1.693082571029663,2019-08-06 15:40:35:307
0.008616309612989426,-0.08996116369962692,9.92591381072998,-0.002333498937755932,-0.004421394085763112,-0.0005213078992014032,-95.75874920762,-179.4582623303891,0,1.6968340873718262,2019-08-06 15:40:35:311
-0.0033574390690773726,-0.09235591441392899,9.837308883666992,-0.0007352119771648412,-0.00255672619263854,0.0026752657293971638,-90.24351560753908,-179.4582098452952,0,1.6999666690826416,2019-08-06 15:40:35:314
0.03974805399775505,-0.09475066512823105,9.767860412597656,-0.003132642320523606,-0.005220537468530785,0.0013433600914510408,-92.0331064427979,-179.45740477477423,0,1.7029545307159424,2019-08-06 15:40:35:317
0.04693230614066124,-0.12109291553497314,9.76546573638916,-0.0020671176801295454,-0.0006920582344953867,-0.0034515004652293266,-93.78678553044583,-179.45359505405926,0,1.7068562507629395,2019-08-06 15:40:35:321
0.05890605226159096,-0.09235591441392899,9.839703559875488,-0.0020671176801295454,-0.004954156340941561,0.0008105978362725917,-95.50331673582986,-179.45340356638715,0,1.7099947929382324,2019-08-06 15:40:35:324
0.027774307876825333,-0.0779874175786972,9.851676940917969,-0.001534355424951096,0.0003734663733893835,0.0013433600914510408,-97.19008214664214,-179.4550082539205,0,1.712968349456787,2019-08-06 15:40:35:327
0.030169056728482246,-0.08277691900730133,9.882808685302734,-0.0007352119771648412,-0.00255672619263854,0.0016097412190402653,-98.84222459767179,-179.4561498949348,0,1.7168538570404053,2019-08-06 15:40:35:331
0.06130080297589302,-0.11869816482067108,9.789413452148438,-0.00393178570329128,-0.006019680851298459,0.0013433600914510408,-100.45714224389994,-179.4524393316629,0,1.719996690750122,2019-08-06 15:40:35:334
0.006221559830009937,-0.12588241696357727,9.803781509399414,0.00033031263071992917,-0.006286061978887684,0.005605458392952959,-102.04622356636114,-179.4487326816471,0,1.7229676246643066,2019-08-06 15:40:35:337
0.013405809178948402,-0.06122417002916336,9.923519134521484,-0.0010015931047540657,-0.002023963937460091,-0.00025492675535753324,-103.60331030709945,-179.45247015780677,0,1.7268459796905518,2019-08-06 15:40:35:341
-0.008146938867866993,-0.07559266686439514,9.777440071105957,-0.0012679742973618717,-0.004421394085763112,0.00507269613777451,-97.93142175750575,-179.45433859724662,0,1.7299764156341553,2019-08-06 15:40:35:344
0.015800558030605316,-0.12588241696357727,9.837308883666992,0.000863074918407669,-0.004421394085763112,0.004007171627417612,-99.57021532148643,-179.45073295193606,0,1.7329468727111816,2019-08-06 15:40:35:347
-0.010541687719523907,-0.09954016655683517,9.937888145446777,0.00033031263071992917,-0.0009584393620846114,0.0010769789638618162,-93.97981657706401,-179.45031328862072,0,1.7368485927581787,2019-08-06 15:40:35:351
0.006221559830009937,-0.06601367145776749,9.875624656677246,-0.0010015931047540657,-0.0017575828098708665,0.003208027984575613,-95.69918918017349,-179.45347108313447,0,1.7399811744689941,2019-08-06 15:40:35:354
0.015800558030605316,-0.10193491727113724,9.839703559875488,6.393147468507523e-05,-0.0017575828098708665,0.0010769789638618162,-97.38307277802677,-179.45254155444167,0,1.7429451942443848,2019-08-06 15:40:35:357
0.006221559830009937,-0.08038216829299927,10.0049409866333,0.00033031263071992917,-0.007085205881804008,0.0016097412190402653,-99.03321451013092,-179.45435354710656,0,1.746675968170166,2019-08-06 15:40:35:360
0.008616309612989426,-0.05164517089724541,9.858860969543457,-0.002333498937755932,-0.0009584393620846114,0.0005442166761740764,-100.6513640168073,-179.45881399124136,0,1.750108242034912,2019-08-06 15:40:35:364
0.037353307008743286,-0.11390866339206696,9.88520336151123,-0.0018007365525403206,-0.003622250702995438,0.0013433600914510408,-102.23339495286098,-179.45612963376203,0,1.7531158924102783,2019-08-06 15:40:35:367
0.03256380558013916,-0.09475066512823105,9.820545196533203,-0.0007352119771648412,-0.0033558695754062136,0.002941646856986388,-103.78422439173859,-179.4557973477209,0,1.7568464279174805,2019-08-06 15:40:35:371
0.05411655455827713,-0.07559266686439514,9.921124458312988,-0.0018007365525403206,-0.004421394085763112,0.0005442166761740764,-105.30151131158114,-179.45763353730274,0,1.7599804401397705,2019-08-06 15:40:35:374
0.011011059395968914,-0.14025090634822845,9.911545753479004,-0.0007352119771648412,-0.0017575828098708665,0.0026752657293971638,-106.79391459642379,-179.4521441955908,0,1.7629539966583252,2019-08-06 15:40:35:377
-0.012936437502503395,-0.1043296679854393,9.779834747314453,-0.002333498937755932,-0.0017575828098708665,-0.0021195946972460415,-101.05916538221223,-179.45036392427215,0,1.7668724060058594,2019-08-06 15:40:35:381
0.042142804712057114,-0.11151391267776489,9.861255645751953,-0.002599880065345157,-0.0033558695754062136,-0.00025492675535753324,-102.63249512123618,-179.44794189995721,0,1.7700026035308838,2019-08-06 15:40:35:384
0.05172180384397507,-0.0779874175786972,9.916335105895996,-0.0007352119771648412,-0.0033558695754062136,0.0021425034742187147,-104.17330870219111,-179.44984853163214,0,1.772972822189331,2019-08-06 15:40:35:387
0.03495855629444122,-0.09954016655683517,9.827729225158691,0.002727743006587985,-0.0017575828098708665,0.0005442166761740764,-105.68538437496238,-179.44983840013413,0,1.776843547821045,2019-08-06 15:40:35:391
0.042142804712057114,-0.06122417002916336,9.808571815490723,-0.002333498937755932,-0.0017575828098708665,0.0016097412190402653,-107.16644545201261,-179.45328036124243,0,1.7799625396728516,2019-08-06 15:40:35:394
0.0014320602640509605,-0.08277691900730133,9.875624656677246,0.0013958372386046994,-0.0028231073202277645,0.002408884601807939,-108.62248113112543,-179.4548419894893,0,1.7829227447509766,2019-08-06 15:40:35:397
-0.008146938867866993,-0.10672441124916077,9.858860969543457,-0.002333498937755932,-0.004421394085763112,0.0008105978362725917,-102.85005087784084,-179.45285129188335,0,1.7866590023040771,2019-08-06 15:40:35:400
0.03495855629444122,-0.07559266686439514,9.825334548950195,0.00033031263071992917,-0.006019680851298459,0.0016097412190402653,-104.3878115371416,-179.45504188454353,0,1.7900943756103516,2019-08-06 15:40:35:404
0.008616309612989426,-0.15222465991973877,9.87322998046875,-0.00020244967322245603,0.0009062286610771233,0.0016097412190402653,-105.8992079156546,-179.44824071276773,0,1.7930941581726074,2019-08-06 15:40:35:407
0.020590057596564293,-0.11630341410636902,9.775045394897461,-0.001534355424951096,-0.006552443626625559,0.0016097412190402653,-107.37743432371629,-179.44532030757736,0,1.7968332767486572,2019-08-06 15:40:35:411
0.08524829894304276,-0.10672441124916077,9.868440628051758,-0.0010015931047540657,-0.003622250702995438,0.0016097412190402653,-108.8193512887554,-179.44384587096812,0,1.7999584674835205,2019-08-06 15:40:35:414
0.008616309612989426,-0.08277691900730133,9.882808685302734,0.000863074918407669,-0.0017575828098708665,0.0013433600914510408,-110.24167134426774,-179.44551546091554,0,1.80293607711792,2019-08-06 15:40:35:417
0.020590057596564293,-0.12348766624927521,9.969019889831543,6.393147468507523e-05,-0.0022903450650493154,0.003208027984575613,-111.63398923892251,-179.4424247099373,0,1.8066833019256592,2019-08-06 15:40:35:420
-0.008146938867866993,-0.09235591441392899,9.83491325378418,-0.00393178570329128,-0.004155012958173888,0.004007171627417612,-105.80145826760517,-179.4420582516965,0,1.8101141452789307,2019-08-06 15:40:35:424
0.015800558030605316,-0.11630341410636902,9.827729225158691,-0.0010015931047540657,-0.0028231073202277645,0.004806315010185286,-107.28315991609232,-179.43950527805558,0,1.8128068447113037,2019-08-06 15:40:35:427
0.049327053129673004,-0.10193491727113724,9.897176742553711,-0.0007352119771648412,-0.0014912016822816417,0.002408884601807939,-108.73150330042192,-179.43877418261243,0,1.8161780834197998,2019-08-06 15:40:35:430
0.07327455282211304,-0.1306719183921814,9.861255645751953,-0.0010015931047540657,-0.003888631830584663,-0.0005213078992014032,-110.14754936989988,-179.43460657624757,0,1.8198843002319336,2019-08-06 15:40:35:434
0.013405809178948402,-0.0851716697216034,9.84449291229248,6.393147468507523e-05,-0.0009584393620846114,0.0005442166761740764,-111.54285486775092,-179.43601277654665,0,1.8232858180999756,2019-08-06 15:40:35:437
-0.10154217481613159,-0.11869816482067108,9.933098793029785,-0.002599880065345157,-0.005220537468530785,0.004007171627417612,-105.72267244016456,-179.4330822382536,0,1.8268308639526367,2019-08-06 15:40:35:441
0.049327053129673004,-0.08277691900730133,9.928308486938477,-0.0007352119771648412,-0.0033558695754062136,0.0042735527550068365,-107.20193876042215,-179.43473818345936,0,1.8299460411071777,2019-08-06 15:40:35:444
0.01819530874490738,-0.11630341410636902,9.808571815490723,-0.00020244967322245603,-0.004954156340941561,0.0042735527550068365,-108.65495306586311,-179.43242300602847,0,1.8328981399536133,2019-08-06 15:40:35:447
0.020590057596564293,-0.07319791615009308,9.92591381072998,-0.00020244967322245603,-0.0030894884478169893,0.0018761223466294901,-110.07882442146101,-179.4352814701768,0,1.8366596698760986,2019-08-06 15:40:35:450
-0.020120687782764435,-0.14025090634822845,9.846887588500977,-0.0004688308170663259,-0.0022903450650493154,0.004007171627417612,-104.27918707475706,-179.430173108209,0,1.8397884368896484,2019-08-06 15:40:35:454
0.05172180384397507,-0.08756642043590546,9.866044998168945,0.000863074918407669,-0.006286061978887684,0.0010769789638618162,-105.78638154453938,-179.43156604923362,0,1.8432292938232422,2019-08-06 15:40:35:457
-0.0033574390690773726,-0.05403992161154747,9.813361167907715,0.00033031263071992917,-0.0028231073202277645,0.0021425034742187147,-100.07041957687181,-179.43669778801203,0,1.8471808433532715,2019-08-06 15:40:35:461
0.02537955716252327,-0.08756642043590546,9.8229398727417,-0.001534355424951096,-0.005220537468530785,0.002408884601807939,-101.6649367478345,-179.43742152271352,0,1.850980281829834,2019-08-06 15:40:35:465
0.05411655455827713,-0.07559266686439514,9.868440628051758,-0.0007352119771648412,-0.0054869185961200105,0.0018761223466294901,-103.22465856505107,-179.43980230494878,0,1.8532378673553467,2019-08-06 15:40:35:467
0.020590057596564293,-0.05164517089724541,9.889992713928223,-0.0028662611929343817,-0.003888631830584663,0.003208027984575613,-104.75699045807747,-179.44444064034832,0,1.8568525314331055,2019-08-06 15:40:35:471
-0.008146938867866993,-0.11869816482067108,9.818150520324707,6.393147468507523e-05,-0.004954156340941561,0.0013433600914510408,-99.06193003761634,-179.44171001120603,0,1.8599853515625,2019-08-06 15:40:35:474
-0.027304936200380325,-0.12827716767787933,9.801386833190918,0.0005966937908184444,-0.004687775213352337,0.004806315010185286,-93.48311153430757,-179.43797761232508,0,1.8629190921783447,2019-08-06 15:40:35:477
-0.005752188619226217,-0.08996116369962692,9.827729225158691,-0.0028662611929343817,-0.0009584393620846114,1.1454389502251989e-05,-88.01391863084939,-179.4381266248739,0,1.8666610717773438,2019-08-06 15:40:35:480
0.05172180384397507,-0.030092423781752586,9.880414009094238,-0.0018007365525403206,-0.003622250702995438,-0.00025492675535753324,-89.84693614175723,-179.44552327554342,0,1.8701300621032715,2019-08-06 15:40:35:484
0.020590057596564293,-0.05403992161154747,9.810966491699219,-0.0028662611929343817,-0.007884349264571683,0.0008105978362725917,-91.64628317788194,-179.4498250463465,0,1.8730876445770264,2019-08-06 15:40:35:487
0.06609030067920685,-0.04446092247962952,9.892387390136719,-0.0012679742973618717,-0.0030894884478169893,0.0005442166761740764,-93.40505366559447,-179.45541228452728,0,1.876824140548706,2019-08-06 15:40:35:491
0.013405809178948402,-0.07319791615009308,9.842098236083984,-0.0004688308170663259,-0.00255672619263854,0.002408884601807939,-95.13495980585232,-179.45770255476134,0,1.8798329830169678,2019-08-06 15:40:35:494
0.03495855629444122,-0.10911916196346283,9.937888145446777,-0.00020244967322245603,-0.0012248205546924172,0.004539933882596061,-96.82801544118293,-179.45593131976952,0,1.8829474449157715,2019-08-06 15:40:35:497
0.003826810047030449,-0.09235591441392899,9.825334548950195,-0.0020671176801295454,-0.0014912016822816417,0.0013433600914510408,-98.49073546368894,-179.45566273973162,0,1.8862121105194092,2019-08-06 15:40:35:500
-0.012936437502503395,-0.1378561556339264,9.875624656677246,-0.0020671176801295454,-0.005220537468530785,0.0005442166761740764,-92.92123058496263,-179.45008273607596,0,1.8902759552001953,2019-08-06 15:40:35:504
0.027774307876825333,-0.12588241696357727,9.861255645751953,-0.0010015931047540657,-0.003888631830584663,0.0010769789638618162,-94.65889888678747,-179.4462788099985,0,1.8933885097503662,2019-08-06 15:40:35:507
0.04693230614066124,-0.08756642043590546,9.775045394897461,0.0005966937908184444,-0.0028231073202277645,0.002408884601807939,-96.35967189068583,-179.4472038800423,0,1.8968408107757568,2019-08-06 15:40:35:511
