ACCELEROMETER X (m/s²),ACCELEROMETER Y (m/s²),ACCELEROMETER Z (m/s²),GYROSCOPE X (rad/s),GYROSCOPE Y (rad/s),GYROSCOPE Z (rad/s),Time since start in ms ,YYYY-MO-DD HH-MI-SS_SSS,Pitch (Deg),Roll (Deg),Heading (Deg),MagX,MagY,MagZ
-0.12282431870698929,0.11636567860841751,9.760302543640137,-0.0056552714687564,-0.0016648821774698163,-0.023621881006731363,0.0,2019-08-07 13:41:33:369,3.585580480494851,3.5863386480867154,0,-52.32869338989258,18.44249153137207,-21.441268920898438
-0.0701398253440857,0.15228691697120667,9.870461463928223,-0.006987177626851173,-0.006992504989328633,-0.022023593200898715,0.010009288787841797,2019-08-07 13:41:33:379,7.10965602296535,7.100860395755138,0,-52.32869338989258,18.44249153137207,-21.441268920898438
-0.1539560705423355,0.2792086601257324,9.777066230773926,0.0055327364101396825,0.0017980727412644285,-0.025486549420004584,0.020001888275146484,2019-08-07 13:41:33:389,10.548411190147384,10.523023259372902,0,-52.32869338989258,18.44249153137207,-21.441268920898438
-0.07492932677268982,0.22652415931224823,9.853697776794434,-0.0005940299795425521,0.0028635972516213265,-0.02921588416595643,0.030002832412719727,2019-08-07 13:41:33:399,13.92712132401552,13.886557848961724,0,-52.32869338989258,18.44249153137207,-21.441268920898438
-0.050981827080249786,0.19060291349887848,9.880040168762207,-0.0056552714687564,-0.005394218223793286,-0.02788397904815896,0.04002809524536133,2019-08-07 13:41:33:409,17.24570242840148,17.18990620678656,0,-52.32869338989258,18.44249153137207,-21.441268920898438
-0.13719281554222107,0.22412940859794617,9.805803298950195,-0.005388890341167176,-0.006193361606560959,-0.02335550039929079,0.05000019073486328,2019-08-07 13:41:33:419,20.48822480178533,20.42293807558268,0,-52.32869338989258,18.44249153137207,-21.441268920898438
-0.12521906197071075,0.17862917482852936,9.767487525939941,-0.00272507906527493,-0.004595074841025611,-0.030281408676313327,0.06000542640686035,2019-08-07 13:41:33:429,23.66635196678543,23.595055915059554,0,-52.32869338989258,18.44249153137207,-21.441268920898438
-0.09169257432222366,0.2025766670703888,9.8848295211792,-0.004589746958399502,-0.004328693453362062,-0.028416740263040103,0.07000160217285156,2019-08-07 13:41:33:439,26.78482524144563,26.70225019179456,0,-52.32869338989258,18.44249153137207,-21.441268920898438
-0.06774507462978363,0.23849791288375854,9.820171356201172,-0.004056984703221053,-0.006459742734150184,-0.02522016673196941,0.08002281188964844,2019-08-07 13:41:33:449,29.84485852048298,29.74266316427106,0,-52.32869338989258,18.44249153137207,-21.441268920898438
-0.043797578662633896,0.22412940859794617,9.829751014709473,-0.0029914601928641544,-0.004062312325772837,-0.02735121575268321,0.0899968147277832,2019-08-07 13:41:33:459,32.84513067896581,32.723361593833005,0,-52.32869338989258,18.44249153137207,-21.441268920898438
-0.07253457605838776,0.1953924149274826,9.743539810180664,0.002336162618994662,-0.00033297644199582136,-0.02308911771125561,0.10000991821289062,2019-08-07 13:41:33:469,35.77988480700633,35.64460431240968,0,-52.32869338989258,18.44249153137207,-21.441268920898438
-0.005481582134962082,0.23610316216945648,9.829751014709473,-0.0029914601928641544,-0.0016648821774698163,-0.022023593200898715,0.11000537872314453,2019-08-07 13:41:33:479,38.66458249331172,38.505872432603425,0,-52.32869338989258,18.44249153137207,-21.441268920898438
0.020860664546489716,0.2145504206418991,9.841724395751953,-0.004056984703221053,-0.00805802949968553,-0.02308911771125561,0.12000513076782227,2019-08-07 13:41:33:489,34.29824419984608,41.31305581872227,0,-52.32869338989258,18.44249153137207,-21.441268920898438
-0.015060581266880035,0.2217346578836441,9.81538200378418,-0.0029914601928641544,-0.00033297644199582136,-0.021757212593458142,0.13002705574035645,2019-08-07 13:41:33:499,37.21070841653572,44.06259565044529,0,-52.32869338989258,18.44249153137207,-21.441268920898438
0.011281665414571762,0.2624454200267792,9.817776679992676,-0.0019259356825072562,-0.0008657387296835611,-0.02335550039929079,0.13999629020690918,2019-08-07 13:41:33:509,32.86829564159875,46.751796893634165,0,-52.32869338989258,18.44249153137207,-21.441268920898438
0.011281665414571762,0.24568216502666473,9.836935043334961,-0.007519939882029623,0.0031299783792105513,-0.012700254255424506,0.15000581741333008,2019-08-07 13:41:33:519,28.61048478905442,49.3923735723037,0,-52.32869338989258,18.44249153137207,-21.441268920898438
0.020860664546489716,0.27202439308166504,9.817776679992676,-0.00032764881944403687,0.002330834996442878,-0.0148313032761383,0.1600046157836914,2019-08-07 13:41:33:529,24.43940131044348,51.97296791109662,0,-52.32869338989258,18.44249153137207,-21.441268920898438
0.01607116498053074,0.3199194073677063,9.827356338500977,-6.126766340918298e-05,-0.0037959311981836125,-0.011901110352508182,0.17000174522399902,2019-08-07 13:41:33:539,20.35461805373552,54.49625201892797,0,-52.32869338989258,18.44249153137207,-21.441268920898438
0.025650164112448692,0.2408926635980606,9.820171356201172,-0.003524222448042604,-0.0008657387296835611,-0.010835585842151283,0.1800229549407959,2019-08-07 13:41:33:549,16.35100594511463,56.98020589807814,0,-52.32869338989258,18.44249153137207,-21.441268920898438
-0.04140282794833183,0.25765591859817505,9.836935043334961,0.0020697814914054373,0.006326551910281247,-0.008171774566259036,0.19007587432861328,2019-08-07 13:41:33:559,19.6155916437436,59.409425684754666,0,-52.32869338989258,18.44249153137207,-21.441268920898438
-0.03900807723402977,0.2672349214553833,9.834540367126465,-0.0013931734273288073,-0.001132119922291367,-0.00018034003963255039,0.19999241828918457,2019-08-07 13:41:33:569,22.819365012219436,61.7908824923241,0,-52.32869338989258,18.44249153137207,-21.441268920898438
0.028044912964105606,0.2408926635980606,9.822566032409668,-0.004323365830810277,-0.008324410627274756,0.003548996087964146,0.2100062370300293,2019-08-07 13:41:33:579,18.77093006988358,64.12939848629169,0,-52.32869338989258,18.44249153137207,-21.441268920898438
0.0017026669811457396,0.19060291349887848,9.851303100585938,0.0007378757884407334,-0.007258886116917857,0.005413663981088718,0.2200026512145996,2019-08-07 13:41:33:589,14.799783917934274,66.42422795147506,0,-52.32869338989258,18.44249153137207,-21.441268920898438
0.004097416531294584,0.22652415931224823,9.77467155456543,0.00020511348449834825,0.0009989292934781736,0.006479188491445616,0.2300248146057129,2019-08-07 13:41:33:599,10.903706452038884,68.66907657682339,0,-53.07838821411133,18.592430114746094,-21.291330337524414
0.03762391209602356,0.34147214889526367,9.817776679992676,0.002602543746583887,0.0041955028895674495,0.011274049308200309,0.23999905586242676,2019-08-07 13:41:33:609,7.087674004875106,70.85439744766285,0,-53.07838821411133,18.592430114746094,-21.291330337524414
0.025650164112448692,0.26484015583992004,9.85609245300293,0.0010042569160299579,-0.001132119922291367,0.012872336073735658,0.25000452995300293,2019-08-07 13:41:33:619,3.34953875834612,73.00596114865118,0,-53.07838821411133,18.592430114746094,-21.291330337524414
0.018465915694832802,0.23610316216945648,9.741145133972168,0.0007378757884407334,-0.002996787815415939,0.013405098328914105,0.26000308990478516,2019-08-07 13:41:33:629,-0.3135973011681932,75.11765872316063,0,-53.07838821411133,18.592430114746094,-21.291330337524414
0.01607116498053074,0.24568216502666473,9.748329162597656,0.0015370192362269886,-0.00246402556023749,0.015536147349627901,0.2700204849243164,2019-08-07 13:41:33:639,-3.904050238560011,77.18556719959263,0,-53.07838821411133,18.592430114746094,-21.291330337524414
0.01367641519755125,0.2289189100265503,9.817776679992676,-0.0013931734273288073,-0.00246402556023749,0.022994818922126188,0.2799990177154541,2019-08-07 13:41:33:649,-7.422992368048266,79.21592222349402,0,-53.07838821411133,18.592430114746094,-21.291330337524414
-0.022244829684495926,0.22652415931224823,9.750723838806152,-0.005388890341167176,0.002330834996442878,0.026457775141232064,0.28999948501586914,2019-08-07 13:41:33:659,-3.67845557438432,81.20801319897352,0,-53.07838821411133,18.592430114746094,-21.291330337524414
0.008886916562914848,0.21933990716934204,9.887224197387695,-0.003524222448042604,0.0007325481658889489,0.02006462599849607,0.3000047206878662,2019-08-07 13:41:33:669,-7.204268022007604,83.16041579472623,0,-53.07838821411133,18.592430114746094,-21.291330337524414
0.008886916562914848,0.2408926635980606,9.84411907196045,0.0012706381086377639,0.0007325481658889489,0.026724155748672634,0.3099968433380127,2019-08-07 13:41:33:679,-10.659559171260486,85.06845879700612,0,-53.07838821411133,18.592430114746094,-21.291330337524414
0.008886916562914848,0.23849791288375854,9.777066230773926,-0.0016595545549180318,0.0004661670057904337,0.026457775141232064,0.3200232982635498,2019-08-07 13:41:33:689,-14.045588846629574,86.94007645158769,0,-53.07838821411133,18.592430114746094,-21.291330337524414
-0.015060581266880035,0.2624454200267792,9.86567211151123,-0.00032764881944403687,0.006592933558019122,0.03285092220337345,0.3299872875213623,2019-08-07 13:41:33:699,-10.17011497430727,88.77098191364686,0,-53.07838821411133,18.592430114746094,-21.291330337524414
-0.06774507462978363,0.34386688470840454,9.77467155456543,0.004733593027372009,0.002330834996442878,0.03604749573444414,0.34002113342285156,2019-08-07 13:41:33:709,-6.375967706827898,90.55259939124599,0,-53.07838821411133,18.592430114746094,-21.291330337524414
-0.04619232565164566,0.20736616849899292,9.870461463928223,-0.006454414851524075,-0.004595074841025611,0.031519015004981374,0.3500385284423828,2019-08-07 13:41:33:719,-2.651226415615207,92.32110712664901,0,-53.07838821411133,18.592430114746094,-21.291330337524414
-0.029429078102111816,0.2816033959388733,9.755513191223145,0.006065498665318131,-6.659528596096748e-05,0.03498196914349264,0.36003661155700684,2019-08-07 13:41:33:729,0.9983786700813404,94.03821096278911,0,-53.07838821411133,18.592430114746094,-21.291330337524414
-0.11085056513547897,0.29118239879608154,9.760302543640137,0.0007378757884407334,0.0028635972516213265,0.030986253790100227,0.3700227737426758,2019-08-07 13:41:33:739,4.5637914820691945,95.72285665108012,0,-53.07838821411133,18.592430114746094,-21.291330337524414
-0.10127156972885132,0.2025766670703888,9.882434844970703,-6.126766340918298e-05,0.006060170782692022,0.032584541595932874,0.3800215721130371,2019-08-07 13:41:33:749,8.057370771783296,97.38494747137678,0,-53.07838821411133,18.592430114746094,-21.291330337524414
-0.07253457605838776,0.20976091921329498,9.877645492553711,0.001803400363816213,0.0007325481658889489,0.027256916963553784,0.390002965927124,2019-08-07 13:41:33:759,11.487398138980245,99.01190688094161,0,-53.07838821411133,18.592430114746094,-21.291330337524414
-0.09169257432222366,0.3007614016532898,9.820171356201172,0.001803400363816213,0.0004661670057904337,0.03205177830045713,0.40003418922424316,2019-08-07 13:41:33:769,14.846688313127746,100.59556810031835,0,-53.07838821411133,18.592430114746094,-21.291330337524414
-0.09169257432222366,0.31034040451049805,9.765092849731445,0.0015370192362269886,-0.004595074841025611,0.025925011845756313,0.410017728805542,2019-08-07 13:41:33:779,18.14157079029374,102.14638950537297,0,-53.07838821411133,18.592430114746094,-21.291330337524414
-0.08211357146501541,0.17862917482852936,9.836935043334961,-0.0011267922997395827,0.005527408527513573,0.025392250630875163,0.4199981689453125,2019-08-07 13:41:33:789,21.36607653296117,103.68328674402849,0,-53.07838821411133,18.592430114746094,-21.291330337524414
-0.07253457605838776,0.16665542125701904,9.8944091796875,-0.0037906035756318283,0.0033963595067997765,0.023793962825042515,0.4300088882446289,2019-08-07 13:41:33:799,24.5284455050423,105.19245242783427,0,-53.07838821411133,18.592430114746094,-21.291330337524414
-0.03421857953071594,0.25047165155410767,9.853697776794434,-0.0008604111071317767,-0.004062312325772837,0.027789680259029535,0.43998217582702637,2019-08-07 13:41:33:809,27.636172121139957,106.6599633920373,0,-53.07838821411133,18.592430114746094,-21.291330337524414
-0.02463958039879799,0.2624454200267792,9.767487525939941,0.001803400363816213,-6.659528596096748e-05,0.023527582217601938,0.450392484664917,2019-08-07 13:41:33:820,30.680596911965846,108.09492744145145,0,-53.07838821411133,18.592430114746094,-21.291330337524414
-0.043797578662633896,0.1762344241142273,9.791434288024902,-0.0024586979376857053,0.006326551910281247,0.02192929441176929,0.46001672744750977,2019-08-07 13:41:33:829,33.658440401605986,109.51373465232703,0,-53.07838821411133,18.592430114746094,-21.291330337524414
0.03283441439270973,0.20018191635608673,9.729170799255371,-0.0005940299795425521,0.0004661670057904337,0.022728438314685614,0.4700601100921631,2019-08-07 13:41:33:839,29.388875975282964,110.90022056852152,0,-53.07838821411133,18.592430114746094,-21.291330337524414
0.03762391209602356,0.20497141778469086,9.86567211151123,0.004733593027372009,0.002330834996442878,0.02006462599849607,0.48010754585266113,2019-08-07 13:41:33:849,25.204153550882346,112.25574126833575,0,-52.92844772338867,18.742368698120117,-21.441268920898438
0.03043966367840767,0.18102392554283142,9.841724395751953,-0.0005940299795425521,-0.0008657387296835611,0.020863769901412393,0.49002528190612793,2019-08-07 13:41:33:859,21.104096805691686,113.58988220464808,0,-52.92844772338867,18.742368698120117,-21.441268920898438
0.03762391209602356,0.20976091921329498,9.772276878356934,0.002602543746583887,-0.0021976444326482656,0.020331008686531246,0.5000510215759277,2019-08-07 13:41:33:869,17.08766384913386,114.89202629053696,0,-52.92844772338867,18.742368698120117,-21.441268920898438
0.011281665414571762,0.21215566992759705,9.829751014709473,-0.004856128085988727,0.001531691613675204,0.016868053507722677,0.5100340843200684,2019-08-07 13:41:33:879,13.146367159831263,116.1721793808797,0,-52.92844772338867,18.742368698120117,-21.441268920898438
0.018465915694832802,0.18820816278457642,9.836935043334961,-0.004323365830810277,0.002064453868853653,0.01846634027325802,0.52005934715271,2019-08-07 13:41:33:889,9.284428812851743,117.4292475848267,0,-52.92844772338867,18.742368698120117,-21.441268920898438
0.01367641519755125,0.20497141778469086,9.832145690917969,-0.0037906035756318283,-0.0027304066878267143,0.012605954425997783,0.5300030708312988,2019-08-07 13:41:33:899,5.501858684367453,118.65889355257659,0,-52.92844772338867,18.742368698120117,-21.441268920898438
0.006492166314274073,0.20018191635608673,9.750723838806152,-0.0013931734273288073,-0.0019312633050590406,0.011274049308200309,0.5399906635284424,2019-08-07 13:41:33:909,1.7936675332278469,119.86297468539262,0,-52.92844772338867,18.742368698120117,-21.441268920898438
0.018465915694832802,0.24568216502666473,9.781855583190918,0.00020511348449834825,0.0041955028895674495,0.012605954425997783,0.5500054359436035,2019-08-07 13:41:33:919,-1.8424018415375605,121.03682495766547,0,-52.92844772338867,18.742368698120117,-21.441268920898438
-0.01745533011853695,0.3079456388950348,9.822566032409668,0.0015370192362269886,0.0017980727412644285,0.014737004487008877,0.5599923133850098,2019-08-07 13:41:33:929,1.7914015413798412,122.17931291029451,0,-52.92844772338867,18.742368698120117,-21.441268920898438
0.04001866281032562,0.20497141778469086,9.798619270324707,-0.0008604111071317767,-0.005127837096204061,0.01313871668117623,0.5700356960296631,2019-08-07 13:41:33:939,-1.8368547027547406,123.31224464470576,0,-52.92844772338867,18.742368698120117,-21.441268920898438
0.020860664546489716,0.19060291349887848,9.8034086227417,-0.0019259356825072562,-0.004328693453362062,0.008610237512159412,0.579993724822998,2019-08-07 13:41:33:949,-5.395258865458864,124.42479994954351,0,-52.92844772338867,18.742368698120117,-21.441268920898438
-0.04858707636594772,0.21933990716934204,9.824960708618164,0.0015370192362269886,-0.005127837096204061,0.008876618639748637,0.5899765491485596,2019-08-07 13:41:33:959,-1.690146174915085,125.50986435486557,0,-52.92844772338867,18.742368698120117,-21.441268920898438
-0.015060581266880035,0.26962965726852417,9.868066787719727,-0.0037906035756318283,0.0004661670057904337,0.011274049308200309,0.5999820232391357,2019-08-07 13:41:33:969,1.9416459653727238,126.57049406938808,0,-51.878875732421875,18.592430114746094,-21.89108657836914
0.006492166314274073,0.24568216502666473,9.769882202148438,-0.0005940299795425521,0.0012653104860859794,0.011007667660462434,0.6099984645843506,2019-08-07 13:41:33:979,-1.6971371220263973,127.61060814054856,0,-51.878875732421875,18.592430114746094,-21.89108657836914
-0.05816607549786568,0.21215566992759705,9.78664493560791,-0.003524222448042604,-0.0048614559686148365,0.008077475256980963,0.62003493309021,2019-08-07 13:41:33:989,1.9327347063889746,128.6355446809833,0,-51.878875732421875,18.592430114746094,-21.89108657836914
-0.03661332651972771,0.2624454200267792,9.789039611816406,-0.0013931734273288073,0.002064453868853653,0.0016843279347652483,0.6299989223480225,2019-08-07 13:41:33:999,5.488639022832544,129.6328984476202,0,-51.878875732421875,18.592430114746094,-21.89108657836914
-0.027034329250454903,0.21694517135620117,9.820171356201172,-0.006987177626851173,-0.0016648821774698163,0.003548996087964146,0.640021800994873,2019-08-07 13:41:34:009,8.976648582869656,130.61886153499825,0,-51.878875732421875,18.592430114746094,-21.89108657836914
-0.05816607549786568,0.20976091921329498,9.875250816345215,-0.0016595545549180318,-0.00033297644199582136,8.60411123386422e-05,0.6499955654144287,2019-08-07 13:41:34:019,12.390552623318404,131.58307688066378,0,-51.878875732421875,18.592430114746094,-21.89108657836914
-0.10606107115745544,0.2792086601257324,9.781855583190918,0.0034016871293515603,-0.0019312633050590406,0.004348139470731819,0.6600492000579834,2019-08-07 13:41:34:029,15.731407533268332,132.51679546173244,0,-51.878875732421875,18.592430114746094,-21.89108657836914
-0.10845582187175751,0.29597190022468567,9.841724395751953,-0.0013931734273288073,-0.001132119922291367,0.003548996087964146,0.6699934005737305,2019-08-07 13:41:34:039,19.00478403844122,133.43278651564023,0,-51.878875732421875,18.592430114746094,-21.89108657836914
-0.12761381268501282,0.22652415931224823,9.808197975158691,0.002336162618994662,-6.659528596096748e-05,-0.0007131023435749355,0.6800282001495361,2019-08-07 13:41:34:049,22.20981729052024,134.33635380468135,0,-51.878875732421875,18.592430114746094,-21.89108657836914
-0.09408731758594513,0.21215566992759705,9.887224197387695,-6.126766340918298e-05,0.0007325481658889489,0.00061880342440835,0.6899948120117188,2019-08-07 13:41:34:059,25.354306732592953,135.22507623983566,0,-51.878875732421875,18.592430114746094,-21.89108657836914
-0.08690307289361954,0.2480769157409668,9.858488082885742,-0.0061880337239348495,0.0007325481658889489,-0.0015122457263426093,0.7000353336334229,2019-08-07 13:41:34:069,28.436706563918943,136.0952338728301,0,-51.878875732421875,18.592430114746094,-21.89108657836914
-0.03182382881641388,0.20018191635608673,9.848908424377441,-0.00032764881944403687,0.0028635972516213265,-0.0012458645987533845,0.7100157737731934,2019-08-07 13:41:34:079,31.46266499797416,136.95022495013438,0,-51.878875732421875,18.592430114746094,-21.89108657836914
-0.03661332651972771,0.2025766670703888,9.853697776794434,-0.004323365830810277,0.0012653104860859794,-0.00604072502539659,0.7200186252593994,2019-08-07 13:41:34:089,34.428443173126325,137.7900937871303,0,-51.878875732421875,18.592430114746094,-21.89108657836914
-0.06774507462978363,0.2816033959388733,9.812987327575684,0.001803400363816213,0.0012653104860859794,-0.007106249535753488,0.73000168800354,2019-08-07 13:41:34:099,37.33125420989353,138.6004056909061,0,-52.02881622314453,17.542856216430664,-22.041025161743164
-0.02463958039879799,0.23849791288375854,9.808197975158691,-0.0029914601928641544,-0.001132119922291367,-0.008704536821437486,0.7400264739990234,2019-08-07 13:41:34:109,40.182387689133435,139.40222264071474,0,-52.02881622314453,17.542856216430664,-22.041025161743164
-0.04619232565164566,0.19299766421318054,9.820171356201172,-0.004856128085988727,-6.659528596096748e-05,-0.013233016510602954,0.7499940395355225,2019-08-07 13:41:34:119,42.9733870654696,140.19437805875134,0,-52.02881622314453,17.542856216430664,-22.041025161743164
-0.07732407003641129,0.18820816278457642,9.817776679992676,-0.0011267922997395827,0.001531691613675204,-0.014032159373221978,0.7599945068359375,2019-08-07 13:41:34:129,45.70403428289426,140.96915854646846,0,-52.02881622314453,17.542856216430664,-22.041025161743164
-0.010271081700921059,0.22652415931224823,9.769882202148438,-0.003524222448042604,0.002330834996442878,-0.008704536821437486,0.7700817584991455,2019-08-07 13:41:34:139,48.387428716254085,141.72520708673358,0,-52.02881622314453,17.542856216430664,-22.041025161743164
0.05199240893125534,0.20736616849899292,9.81538200378418,-0.0013931734273288073,0.0033963595067997765,-0.013233016510602954,0.7800085544586182,2019-08-07 13:41:34:149,43.82385694776427,142.467273723447,0,-52.02881622314453,17.542856216430664,-22.041025161743164
0.008886916562914848,0.19060291349887848,9.839329719543457,0.00047149462834221814,-0.0013985010498805918,-0.00950367968405651,0.7900207042694092,2019-08-07 13:41:34:159,39.34920101395195,143.1954678165649,0,-52.02881622314453,17.542856216430664,-22.041025161743164
0.07115040719509125,0.1498921662569046,9.810592651367188,-0.0013931734273288073,-0.006193361606560959,-0.016695970649114225,0.8000164031982422,2019-08-07 13:41:34:169,34.97400356218558,143.91483375966192,0,-52.02881622314453,17.542856216430664,-22.041025161743164
0.06875565648078918,0.1307341754436493,9.77467155456543,-0.0019259356825072562,0.0009989292934781736,-0.017761495159471122,0.8100125789642334,2019-08-07 13:41:34:179,30.682023117636152,144.62229261504726,0,-52.02881622314453,17.542856216430664,-22.041025161743164
0.028044912964105606,0.21215566992759705,9.846513748168945,-0.0032578413204533796,-0.001132119922291367,-0.01296663486286508,0.8200201988220215,2019-08-07 13:41:34:189,26.47228261985799,145.3069910400257,0,-52.02881622314453,17.542856216430664,-22.041025161743164
0.05678191035985947,0.2528664171695709,9.896803855895996,-0.010450131765362443,-0.00033297644199582136,-0.014298541020959853,0.8299953937530518,2019-08-07 13:41:34:199,22.34959797207979,145.97743226792414,0,-52.02881622314453,17.542856216430664,-22.041025161743164
0.03283441439270973,0.2025766670703888,9.822566032409668,-0.006454414851524075,-0.00033297644199582136,-0.02015892478762549,0.8400187492370605,2019-08-07 13:41:34:209,18.30662391390547,146.63788667775438,0,-52.02881622314453,17.542856216430664,-22.041025161743164
-0.01745533011853695,0.2025766670703888,9.812987327575684,-0.006454414851524075,0.002597216124032102,-0.01882701966982802,0.8500168323516846,2019-08-07 13:41:34:219,21.53699503072254,147.2850997814571,0,-53.378265380859375,19.19218635559082,-21.591209411621094
0.03283441439270973,0.23370841145515442,9.760302543640137,-0.004056984703221053,0.003662740634389001,-0.0158968277864952,0.8600201606750488,2019-08-07 13:41:34:229,17.508052756052063,147.9142430674983,0,-53.378265380859375,19.19218635559082,-21.591209411621094
0.02325541339814663,0.1762344241142273,9.769882202148438,-0.0061880337239348495,-0.0019312633050590406,-0.01882701966982802,0.8700006008148193,2019-08-07 13:41:34:239,13.56170161839621,148.53875757824937,0,-53.378265380859375,19.19218635559082,-21.591209411621094
0.03043966367840767,0.20736616849899292,9.81538200378418,-0.0032578413204533796,-0.0019312633050590406,-0.022556356496374465,0.8800249099731445,2019-08-07 13:41:34:249,9.69510834933828,149.14561038692267,0,-53.378265380859375,19.19218635559082,-21.591209411621094
0.008886916562914848,0.2887876629829407,9.829751014709473,-0.008585464392386522,0.0009989292934781736,-0.01935978296530377,0.889995813369751,2019-08-07 13:41:34:259,5.901682920129272,149.73384877485816,0,-53.378265380859375,19.19218635559082,-21.591209411621094
0.03762391209602356,0.2624454200267792,9.822566032409668,-0.0024586979376857053,-0.00246402556023749,-0.02388826161417194,0.9000349044799805,2019-08-07 13:41:34:269,2.1894274588807945,150.30994774980405,0,-53.378265380859375,19.19218635559082,-21.591209411621094
0.04480816051363945,0.2600506544113159,9.798619270324707,-0.002192316810096481,-0.0037959311981836125,-0.02069168808310124,0.9099934101104736,2019-08-07 13:41:34:279,-1.446998397002004,150.87456975701824,0,-53.378265380859375,19.19218635559082,-21.591209411621094
0.01607116498053074,0.23370841145515442,9.820171356201172,-0.004056984703221053,-0.006459742734150184,-0.024953786124528834,0.9200282096862793,2019-08-07 13:41:34:289,-5.012543327793557,151.43209799788104,0,-53.378265380859375,19.19218635559082,-21.591209411621094
0.04001866281032562,0.22652415931224823,9.769882202148438,-0.004056984703221053,0.002597216124032102,-0.017761495159471122,0.9300031661987305,2019-08-07 13:41:34:299,-8.509053354657809,151.97916392375288,0,-53.378265380859375,19.19218635559082,-21.591209411621094
0.03762391209602356,0.23370841145515442,9.793828964233398,-0.0016595545549180318,0.0007325481658889489,-0.02388826161417194,0.9400162696838379,2019-08-07 13:41:34:309,-11.934882030832274,152.51317411109716,0,-53.378265380859375,19.19218635559082,-21.591209411621094
0.04720291122794151,0.21215566992759705,9.841724395751953,-0.00272507906527493,-0.0016648821774698163,-0.020958068690541815,0.9499940872192383,2019-08-07 13:41:34:319,-15.289755632802876,153.03973896318695,0,-53.378265380859375,19.19218635559082,-21.591209411621094
0.0807294100522995,0.20497141778469086,9.93511962890625,0.00020511348449834825,-0.0016648821774698163,-0.02282273710381504,0.9600377082824707,2019-08-07 13:41:34:329,-18.57371049701429,153.55519048348637,0,-53.378265380859375,19.19218635559082,-21.591209411621094
0.03762391209602356,0.19299766421318054,9.827356338500977,-0.005921652596345625,-0.00805802949968553,-0.020958068690541815,0.9699981212615967,2019-08-07 13:41:34:339,-21.79334252369153,154.06489697561722,0,-53.378265380859375,19.19218635559082,-21.591209411621094
0.19567739963531494,0.3917618989944458,9.580697059631348,0.0028689248741731116,0.006060170782692022,-0.018560639062387443,0.9799857139587402,2019-08-07 13:41:34:349,-24.937473153782186,154.53515887800802,0,-53.52820587158203,19.042245864868164,-21.741147994995117
0.13820339739322662,0.4133146405220032,9.738750457763672,0.004467211899782784,0.016182654671379856,-0.007905393438669812,0.9900171756744385,2019-08-07 13:41:34:359,-28.031578127541323,154.9933357412703,0,-53.52820587158203,19.042245864868164,-21.741147994995117
0.27949362993240356,0.1834186613559723,9.863277435302734,-0.003524222448042604,0.007924839195965244,-0.011368348097329731,0.9999916553497314,2019-08-07 13:41:34:369,-31.042922112072564,155.47413569795174,0,-53.52820587158203,19.042245864868164,-21.741147994995117
0.32499387860298157,0.22412940859794617,9.824960708618164,-0.00272507906527493,-0.003263168943005164,-0.00257777036673667,1.0100362300872803,2019-08-07 13:41:34:379,-33.98233201114694,155.9400535588961,0,-53.52820587158203,19.042245864868164,-21.741147994995117
0.39923110604286194,0.42049887776374817,9.640565872192383,0.005266355282550457,-0.00246402556023749,0.0027498524451221467,1.0200157165527344,2019-08-07 13:41:34:389,-36.853877580853165,156.36835101217036,0,-53.52820587158203,19.042245864868164,-21.741147994995117
0.16933514177799225,0.42049887776374817,9.604643821716309,0.01299140850278662,0.0007325481658889489,0.007011950746624065,1.0300219058990479,2019-08-07 13:41:34:399,-39.697010580759326,156.78354774813553,0,-53.52820587158203,19.042245864868164,-21.741147994995117
0.19328264892101288,0.08283918350934982,9.609434127807617,0.0020697814914054373,0.02230942112608067,0.008610237512159412,1.0399935245513916,2019-08-07 13:41:34:409,-42.4925158675376,157.2368396654538,0,-53.52820587158203,19.042245864868164,-21.741147994995117
0.1980721354484558,0.20018191635608673,9.765092849731445,0.003135306001762336,0.0017980727412644285,0.006212807363856391,1.050032138824463,2019-08-07 13:41:34:419,-45.2204388521575,157.6668479161992,0,-53.52820587158203,19.042245864868164,-21.741147994995117
0.1453876495361328,0.15468166768550873,9.781855583190918,0.001803400363816213,0.0017980727412644285,0.008610237512159412,1.0599932670593262,2019-08-07 13:41:34:429,-47.90000528472622,158.0943832952639,0,-53.52820587158203,19.042245864868164,-21.741147994995117
0.16933514177799225,-0.022529805079102516,9.77467155456543,-0.0013931734273288073,0.0031299783792105513,0.009942143150105534,1.0700271129608154,2019-08-07 13:41:34:439,-50.52391889855304,151.3359217774534,0,-53.52820587158203,19.042245864868164,-21.741147994995117
0.15017715096473694,0.15468166768550873,9.583091735839844,0.0028689248741731116,0.002064453868853653,0.006479188491445616,1.0799951553344727,2019-08-07 13:41:34:449,-53.09663976850364,151.8891028573988,0,-53.52820587158203,19.042245864868164,-21.741147994995117
0.22201964259147644,0.14510267972946167,9.633380889892578,-0.0032578413204533796,0.017248179181736756,0.005413663981088718,1.0900051593780518,2019-08-07 13:41:34:459,-55.61799635434947,152.43589286957507,0,-53.52820587158203,19.042245864868164,-21.741147994995117
0.20046688616275787,0.2025766670703888,9.90638256072998,0.0015370192362269886,0.008457601451143694,0.0011515656795867992,1.1000308990478516,2019-08-07 13:41:34:469,-58.08721184550108,152.9628800726468,0,-53.07838821411133,18.592430114746094,-21.291330337524414
0.2651251256465912,0.3007614016532898,9.784250259399414,0.003668068256940785,0.002064453868853653,0.009942143150105534,1.1100003719329834,2019-08-07 13:41:34:479,-60.495579827824635,153.4663555419942,0,-53.07838821411133,18.592430114746094,-21.291330337524414
0.2651251256465912,0.3127351403236389,9.721986770629883,0.00047149462834221814,-0.0013985010498805918,0.010474905405283983,1.120293378829956,2019-08-07 13:41:34:490,-62.853617819799375,153.95990702813646,0,-53.07838821411133,18.592430114746094,-21.291330337524414
0.2507566213607788,0.32231414318084717,9.678881645202637,-0.0011267922997395827,0.0007325481658889489,0.011274049308200309,1.1302545070648193,2019-08-07 13:41:34:499,-65.16727390288057,154.44319335340924,0,-53.07838821411133,18.592430114746094,-21.291330337524414
0.2770988941192627,0.25047165155410767,9.738750457763672,-0.004589746958399502,0.007924839195965244,0.0166016718599848,1.1400249004364014,2019-08-07 13:41:34:509,-67.43567983741123,154.92738205714434,0,-53.07838821411133,18.592430114746094,-21.291330337524414
0.2914673686027527,0.2528664171695709,9.781855583190918,0.003135306001762336,-6.659528596096748e-05,0.01846634027325802,1.1500654220581055,2019-08-07 13:41:34:519,-69.65279425127945,155.3974508515307,0,-53.07838821411133,18.592430114746094,-21.291330337524414
0.21723014116287231,0.2887876629829407,9.877645492553711,0.0034016871293515603,-0.00033297644199582136,0.01953186478361492,1.1600217819213867,2019-08-07 13:41:34:529,-71.83435519082802,155.85410712075196,0,-53.07838821411133,18.592430114746094,-21.291330337524414
0.10946640372276306,0.2552611529827118,9.779460906982422,-0.00032764881944403687,-0.00246402556023749,0.023793962825042515,1.170041799545288,2019-08-07 13:41:34:539,-73.98345549904496,156.30730569581533,0,-53.07838821411133,18.592430114746094,-21.291330337524414
0.08312415331602097,0.16426067054271698,9.767487525939941,-0.00272507906527493,0.006592933558019122,0.024859487335399413,1.1800203323364258,2019-08-07 13:41:34:549,-76.09772852649932,156.76341728153378,0,-53.07838821411133,18.592430114746094,-21.291330337524414
0.020860664546489716,0.17144492268562317,9.901593208312988,-0.0011267922997395827,0.009523125961500591,0.026990536356113207,1.1900506019592285,2019-08-07 13:41:34:559,-78.17872315407601,157.20894413210803,0,-53.07838821411133,18.592430114746094,-21.291330337524414
0.05917666107416153,0.21215566992759705,9.853697776794434,0.0034016871293515603,0.003662740634389001,0.02192929441176929,1.2000207901000977,2019-08-07 13:41:34:569,-80.21031743789896,157.63819250342215,0,-53.07838821411133,18.592430114746094,-21.291330337524414
-0.05816607549786568,0.20976091921329498,9.81538200378418,0.0015370192362269886,-0.001132119922291367,0.025925011845756313,1.210038423538208,2019-08-07 13:41:34:579,-75.01226491492763,158.0600788836909,0,-53.07838821411133,18.592430114746094,-21.291330337524414
-0.019850080832839012,0.18820816278457642,9.801013946533203,0.0028689248741731116,0.004994646272335123,0.021662913804328717,1.2200226783752441,2019-08-07 13:41:34:589,-69.91714051788092,158.47526671488296,0,-53.07838821411133,18.592430114746094,-21.291330337524414
-0.07253457605838776,0.09960243105888367,9.8034086227417,0.006065498665318131,0.004994646272335123,0.01793357697778227,1.2300372123718262,2019-08-07 13:41:34:599,-64.93008464669599,158.89070858301375,0,-50.82930374145508,19.64200210571289,-21.741147994995117
-0.04140282794833183,0.12115518003702164,9.829751014709473,0.0012706381086377639,0.0041955028895674495,0.01420424223183043,1.240039587020874,2019-08-07 13:41:34:609,-60.03866584054802,159.2980576779763,0,-50.82930374145508,19.64200210571289,-21.741147994995117
0.04720291122794151,0.12115518003702164,9.252615928649902,0.04176057132272017,0.0199119914979263,-0.013499397118043528,1.2500407695770264,2019-08-07 13:41:34:619,-62.443228478775204,159.6736413095207,0,-50.82930374145508,19.64200210571289,-21.741147994995117
0.3896521031856537,0.4755781292915344,8.83113956451416,0.0761237383421761,0.02737066307042459,-0.01882701966982802,1.260019302368164,2019-08-07 13:41:34:629,-64.75917159957129,159.97586610364615,0,-50.82930374145508,19.64200210571289,-21.741147994995117
-0.33356228470802307,0.2624454200267792,10.162620544433594,-0.02510109430291844,-6.659528596096748e-05,0.022728438314685614,1.2700448036193848,2019-08-07 13:41:34:639,-59.901548958678475,160.36089273957953,0,-50.82930374145508,19.64200210571289,-21.741147994995117
-0.0629555732011795,-0.0656353011727333,9.9854097366333,-0.014978611454527911,-0.0013985010498805918,0.01020852479784341,1.2800226211547852,2019-08-07 13:41:34:649,-55.10995908757247,153.56959883099256,0,-50.82930374145508,19.64200210571289,-21.741147994995117
-0.4556945264339447,0.05410218611359596,9.913566589355469,-0.004056984703221053,-0.0027304066878267143,0.0014179468071760237,1.2900502681732178,2019-08-07 13:41:34:659,-50.45885952124834,154.09423749903968,0,-50.82930374145508,19.64200210571289,-21.741147994995117
-0.08211357146501541,0.20736616849899292,9.817776679992676,-0.005388890341167176,-0.00566059935138251,-0.0041760571322720175,1.3001320362091064,2019-08-07 13:41:34:669,-45.856061867277994,154.5912034877577,0,-50.82930374145508,19.64200210571289,-21.741147994995117
-0.13719281554222107,0.027759937569499016,9.719592094421387,0.007397404303264255,0.0041955028895674495,-0.015097683883578876,1.3100221157073975,2019-08-07 13:41:34:679,-41.357444120007294,155.0919986242015,0,-50.82930374145508,19.64200210571289,-21.741147994995117
-0.14677181839942932,0.12833942472934723,9.707618713378906,0.006331879792907356,0.002597216124032102,-0.018027875766911696,1.320044994354248,2019-08-07 13:41:34:689,-36.9490809604087,155.57144649868067,0,-50.82930374145508,19.64200210571289,-21.741147994995117
-0.11803481727838516,0.2935771644115448,9.693249702453613,0.004467211899782784,-0.0013985010498805918,-0.02415464222161251,1.3300197124481201,2019-08-07 13:41:34:699,-32.623269208228635,156.02282010799237,0,-50.82930374145508,19.64200210571289,-21.741147994995117
-0.3191937804222107,0.18820816278457642,9.817776679992676,0.003668068256940785,0.0007325481658889489,-0.030547791364348504,1.340059518814087,2019-08-07 13:41:34:709,-28.40845946832262,156.4783312189009,0,-50.82930374145508,19.64200210571289,-21.741147994995117
-0.28806203603744507,0.2480769157409668,9.820171356201172,0.00047149462834221814,-0.00566059935138251,-0.0337443648954192,1.3500189781188965,2019-08-07 13:41:34:719,-24.270729062365984,156.9195589896597,0,-52.628570556640625,19.342124938964844,-20.241758346557617
-0.33356228470802307,0.2600506544113159,9.721986770629883,0.006331879792907356,0.0004661670057904337,-0.04759618561065348,1.3600413799285889,2019-08-07 13:41:34:729,-20.224877875139022,157.34696004095466,0,-52.628570556640625,19.342124938964844,-20.241758346557617
-0.31440427899360657,0.15468166768550873,9.817776679992676,0.0015370192362269886,-6.659528596096748e-05,-0.05239104486696222,1.3700227737426758,2019-08-07 13:41:34:739,-16.25702723450315,157.78110670219965,0,-52.628570556640625,19.342124938964844,-20.241758346557617
-0.24495655298233032,0.22412940859794617,9.827356338500977,0.003135306001762336,0.00019978586194656375,-0.062247146067614875,1.3800580501556396,2019-08-07 13:41:34:749,-12.360556428491604,158.19758788310116,0,-52.628570556640625,19.342124938964844,-20.241758346557617
-0.26890406012535095,0.26962965726852417,9.877645492553711,0.0010042569160299579,-0.006193361606560959,-0.06437819508832868,1.3900210857391357,2019-08-07 13:41:34:759,-8.541068717765611,158.60180207883727,0,-52.628570556640625,19.342124938964844,-20.241758346557617
-0.21621955931186676,0.2289189100265503,9.846513748168945,-0.00032764881944403687,0.0004661670057904337,-0.06650924410904246,1.4000380039215088,2019-08-07 13:41:34:769,-4.79566865126648,159.0033140424634,0,-52.628570556640625,19.342124938964844,-20.241758346557617
-0.180298313498497,0.2480769157409668,9.839329719543457,0.0010042569160299579,-0.005394218223793286,-0.07609896262165995,1.4100215435028076,2019-08-07 13:41:34:779,-1.1177271088491185,159.39379919589717,0,-52.628570556640625,19.342124938964844,-20.241758346557617
-0.11803481727838516,0.3079456388950348,9.834540367126465,0.002336162618994662,-0.003263168943005164,-0.07529982287993284,1.4200434684753418,2019-08-07 13:41:34:789,2.492711019557233,159.76873863644866,0,-52.628570556640625,19.342124938964844,-20.241758346557617
-0.11085056513547897,0.2408926635980606,9.793828964233398,0.0015370192362269886,-0.0005993576020943366,-0.06970581972070777,1.4300320148468018,2019-08-07 13:41:34:799,6.030223564277565,160.14432213331034,0,-52.628570556640625,19.342124938964844,-20.241758346557617
-0.09408731758594513,0.2624454200267792,9.827356338500977,-0.0005940299795425521,-0.0008657387296835611,-0.07290239533237307,1.4402070045471191,2019-08-07 13:41:34:809,9.49914302562917,160.51117998618372,0,-52.628570556640625,19.342124938964844,-20.241758346557617
-0.00787633191794157,0.24568216502666473,9.827356338500977,0.0020697814914054373,0.002330834996442878,-0.06784114922683994,1.450021505355835,2019-08-07 13:41:34:819,12.906957264997246,160.87117404478718,0,-52.628570556640625,19.342124938964844,-20.241758346557617
0.05199240893125534,0.2792086601257324,9.887224197387695,-0.0011267922997395827,-0.005394218223793286,-0.06650924410904246,1.4600448608398438,2019-08-07 13:41:34:829,9.057879832548114,161.22203343472128,0,-52.628570556640625,19.342124938964844,-20.241758346557617
0.011281665414571762,0.2600506544113159,9.877645492553711,0.004467211899782784,0.00019978586194656375,-0.06757477069999397,1.470022439956665,2019-08-07 13:41:34:839,5.277919104708574,161.56492828580375,0,-52.628570556640625,19.342124938964844,-20.241758346557617
0.018465915694832802,0.2624454200267792,9.762697219848633,-0.0029914601928641544,-0.0008657387296835611,-0.06118162363785258,1.4800522327423096,2019-08-07 13:41:34:849,1.5750157522091022,161.90451680054176,0,-53.07838821411133,17.992673873901367,-21.591209411621094
0.025650164112448692,0.2816033959388733,9.71719741821289,0.0015370192362269886,0.004728265144745899,-0.051591900964045895,1.490020751953125,2019-08-07 13:41:34:859,-2.056106291003476,162.23236692147285,0,-53.07838821411133,17.992673873901367,-21.591209411621094
0.11665065586566925,0.27202439308166504,9.793828964233398,-0.00032764881944403687,-0.0008657387296835611,-0.05292380608184337,1.500044345855713,2019-08-07 13:41:34:869,-5.600848977900409,162.5560842739153,0,-53.07838821411133,17.992673873901367,-21.591209411621094
0.07354515790939331,0.32949841022491455,9.820171356201172,0.0020697814914054373,-0.001132119922291367,-0.0483953253523806,1.5100226402282715,2019-08-07 13:41:34:879,-9.079615871842577,162.86536818812056,0,-53.07838821411133,17.992673873901367,-21.591209411621094
0.12383490055799484,0.2983666658401489,9.793828964233398,-0.002192316810096481,-0.0005993576020943366,-0.04200217829023921,1.520054578781128,2019-08-07 13:41:34:889,-12.483197554346248,163.17439648743675,0,-53.07838821411133,17.992673873901367,-21.591209411621094
0.09509790688753128,0.32231414318084717,9.848908424377441,-0.0029914601928641544,-0.004595074841025611,-0.03800646293684679,1.530019998550415,2019-08-07 13:41:34:899,-15.81989814686536,163.4750947391088,0,-53.07838821411133,17.992673873901367,-21.591209411621094
0.07354515790939331,0.2744191586971283,9.810592651367188,0.0028689248741731116,-0.006726123861739408,-0.03694093634589529,1.5400364398956299,2019-08-07 13:41:34:909,-19.09112706395381,163.77193442315442,0,-53.07838821411133,17.992673873901367,-21.591209411621094
0.09030840545892715,0.27681389451026917,9.834540367126465,-0.004323365830810277,-0.0037959311981836125,-0.02868312295107528,1.5500216484069824,2019-08-07 13:41:34:919,-22.296653871899487,164.0666740091005,0,-53.07838821411133,17.992673873901367,-21.591209411621094
0.09270315617322922,0.2887876629829407,9.748329162597656,-0.0005940299795425521,-6.659528596096748e-05,-0.02442102490964769,1.5600357055664062,2019-08-07 13:41:34:929,-25.439786425982053,164.35173749533004,0,-53.07838821411133,17.992673873901367,-21.591209411621094
0.107071653008461,0.27681389451026917,9.765092849731445,-6.126766340918298e-05,0.0031299783792105513,-0.018027875766911696,1.570033073425293,2019-08-07 13:41:34:939,-28.520183556459067,164.6322622361279,0,-53.07838821411133,17.992673873901367,-21.591209411621094
0.05917666107416153,0.28399816155433655,9.827356338500977,0.0012706381086377639,-0.005926980478971734,-0.013499397118043528,1.5801324844360352,2019-08-07 13:41:34:949,-31.539518618636304,164.90579014089766,0,-53.07838821411133,17.992673873901367,-21.591209411621094
0.08312415331602097,0.2887876629829407,9.791434288024902,-0.0011267922997395827,0.0004661670057904337,-0.014032159373221978,1.5900189876556396,2019-08-07 13:41:34:959,-34.499259037586995,165.1745121154069,0,-53.07838821411133,17.992673873901367,-21.591209411621094
0.09509790688753128,0.21933990716934204,9.793828964233398,-0.0024586979376857053,0.0031299783792105513,-0.005507962770218141,1.6000428199768066,2019-08-07 13:41:34:969,-37.39990905337325,165.4467463969747,0,-52.77851104736328,19.19218635559082,-22.190963745117188
0.107071653008461,0.31034040451049805,9.832145690917969,-0.004056984703221053,-0.0016648821774698163,0.0014179468071760237,1.6100234985351562,2019-08-07 13:41:34:979,-40.23849937013907,165.7039275518382,0,-52.77851104736328,19.19218635559082,-22.190963745117188
0.10228215157985687,0.27202439308166504,9.834540367126465,0.005799117537728906,-0.00246402556023749,0.007811094129391739,1.6200470924377441,2019-08-07 13:41:34:989,-43.020425137339245,165.95489705871634,0,-52.77851104736328,19.19218635559082,-22.190963745117188
0.061571408063173294,0.2744191586971283,9.789039611816406,0.0034016871293515603,0.003662740634389001,0.010474905405283983,1.6300194263458252,2019-08-07 13:41:34:999,-45.75486004786315,166.20177896598628,0,-52.77851104736328,19.19218635559082,-22.190963745117188
0.061571408063173294,0.3199194073677063,9.772276878356934,0.003668068256940785,0.001531691613675204,0.01793357697778227,1.640040397644043,2019-08-07 13:41:35:009,-48.43340480955787,166.4381784931314,0,-52.77851104736328,19.19218635559082,-22.190963745117188
0.04480816051363945,0.20976091921329498,9.78664493560791,-6.126766340918298e-05,-0.0013985010498805918,0.017667196370341698,1.6500217914581299,2019-08-07 13:41:35:019,-51.05870637934156,166.68489217203063,0,-52.77851104736328,19.19218635559082,-22.190963745117188
0.06875565648078918,0.24328741431236267,9.841724395751953,0.002336162618994662,0.003662740634389001,0.021662913804328717,1.6600427627563477,2019-08-07 13:41:35:029,-53.631587793068334,166.92155856153448,0,-52.77851104736328,19.19218635559082,-22.190963745117188
0.09509790688753128,0.3055509030818939,9.812987327575684,0.004733593027372009,-0.004062312325772837,0.03205177830045713,1.6700196266174316,2019-08-07 13:41:35:039,-56.145575582513324,167.14480632712406,0,-52.77851104736328,19.19218635559082,-22.190963745117188
0.004097416531294584,0.23849791288375854,9.805803298950195,0.002602543746583887,0.002330834996442878,0.031519015004981374,1.6800565719604492,2019-08-07 13:41:35:049,-58.62349883880022,167.37257787566924,0,-52.77851104736328,19.19218635559082,-22.190963745117188
-0.00787633191794157,0.21215566992759705,9.793828964233398,0.0028689248741731116,0.009256744313762716,0.03125263439754081,1.6900224685668945,2019-08-07 13:41:35:059,-53.8571303464873,167.59870176818126,0,-52.77851104736328,19.19218635559082,-22.190963745117188
0.02325541339814663,0.19778716564178467,9.858488082885742,-6.126766340918298e-05,-0.00246402556023749,0.038977688658074265,1.7000410556793213,2019-08-07 13:41:35:069,-56.37589849941898,167.82377520564782,0,-52.77851104736328,19.19218635559082,-22.190963745117188
-0.02463958039879799,0.2528664171695709,9.901593208312988,0.004999974154961233,-0.0005993576020943366,0.03737940085224162,1.7100446224212646,2019-08-07 13:41:35:079,-51.65089541414369,168.03523324301807,0,-52.77851104736328,19.19218635559082,-22.190963745117188
-0.03421857953071594,0.18581341207027435,9.84411907196045,-0.0008604111071317767,0.002064453868853653,0.04217426010855036,1.7200572490692139,2019-08-07 13:41:35:089,-47.023021393194746,168.25338505994398,0,-52.77851104736328,19.19218635559082,-22.190963745117188
-0.09169257432222366,0.2816033959388733,9.710013389587402,0.004467211899782784,0.005793789655102798,0.04537083572021565,1.730020523071289,2019-08-07 13:41:35:099,-42.496622890233986,168.452594462752,0,-51.878875732421875,17.69279670715332,-20.991453170776367
-0.027034329250454903,0.21933990716934204,9.846513748168945,0.006598260920496581,0.006592933558019122,0.04030959377587174,1.7400450706481934,2019-08-07 13:41:35:109,-38.05354763078447,168.65430648976545,0,-51.878875732421875,17.69279670715332,-20.991453170776367
-0.03421857953071594,0.23610316216945648,9.834540367126465,0.0012706381086377639,0.0009989292934781736,0.04297340401146668,1.750042200088501,2019-08-07 13:41:35:119,-33.69702452981322,168.8530017675994,0,-51.878875732421875,17.69279670715332,-20.991453170776367
-0.08450832217931747,0.1953924149274826,9.836935043334961,0.0015370192362269886,0.00019978586194656375,0.04110873767878806,1.7600200176239014,2019-08-07 13:41:35:129,-29.433040196872064,169.052322123776,0,-51.878875732421875,17.69279670715332,-20.991453170776367
-0.09169257432222366,0.18581341207027435,9.829751014709473,0.0010042569160299579,-0.0037959311981836125,0.03684663963736047,1.7700510025024414,2019-08-07 13:41:35:139,-25.252930245767836,169.24905119248027,0,-51.878875732421875,17.69279670715332,-20.991453170776367
-0.18269306421279907,0.20736616849899292,9.724381446838379,0.004467211899782784,0.006592933558019122,0.037912162067122765,1.7800214290618896,2019-08-07 13:41:35:149,-21.173088530879664,169.43713704452378,0,-51.878875732421875,17.69279670715332,-20.991453170776367
-0.1539560705423355,0.23131366074085236,9.810592651367188,-0.00032764881944403687,0.013252461747749737,0.034449207928611496,1.7900381088256836,2019-08-07 13:41:35:159,-17.17506160651156,169.6215652496441,0,-51.878875732421875,17.69279670715332,-20.991453170776367
-0.10845582187175751,0.23370841145515442,9.851303100585938,0.006331879792907356,0.004994646272335123,0.028322441473910682,1.8000221252441406,2019-08-07 13:41:35:169,-13.24697558269692,169.79840413636293,0,-51.878875732421875,17.69279670715332,-20.991453170776367
-0.09408731758594513,0.21933990716934204,9.90638256072998,0.006864642048085805,-0.004328693453362062,0.026191392453196884,1.810068130493164,2019-08-07 13:41:35:179,-9.390477507451934,169.9731959503252,0,-51.878875732421875,17.69279670715332,-20.991453170776367
-0.21621955931186676,0.14510267972946167,9.832145690917969,0.0020697814914054373,-6.659528596096748e-05,0.021396533196888144,1.8200359344482422,2019-08-07 13:41:35:189,-5.627826551460176,170.15566341363152,0,-51.878875732421875,17.69279670715332,-20.991453170776367
-0.2521407902240753,0.12115518003702164,9.841724395751953,-0.006987177626851173,0.0012653104860859794,0.011274049308200309,1.8300330638885498,2019-08-07 13:41:35:199,-1.9453317356974895,170.3423663878405,0,-51.878875732421875,17.69279670715332,-20.991453170776367
-0.1539560705423355,0.11876042932271957,9.812987327575684,-0.0032578413204533796,0.0007325481658889489,0.007811094129391739,1.8400418758392334,2019-08-07 13:41:35:209,1.6751864038150732,170.52348232503965,0,-51.878875732421875,17.69279670715332,-20.991453170776367
-0.3383517861366272,0.24568216502666473,9.971040725708008,-0.0024586979376857053,-0.003529550070594388,0.0038153772155533703,1.8500208854675293,2019-08-07 13:41:35:219,5.204790401656611,170.68616117959775,0,-51.57899856567383,19.19218635559082,-20.69157600402832
-0.3000358045101166,0.19778716564178467,9.887224197387695,-0.004589746958399502,-0.0021976444326482656,0.0016843279347652483,1.8600454330444336,2019-08-07 13:41:35:229,8.667168531022437,170.852101217389,0,-51.57899856567383,19.19218635559082,-20.69157600402832
-0.2976410388946533,0.20976091921329498,9.911171913146973,-0.0019259356825072562,-0.0037959311981836125,-0.004442438259861242,1.8700201511383057,2019-08-07 13:41:35:239,12.061548688209397,171.0118892304033,0,-51.57899856567383,19.19218635559082,-20.69157600402832
-0.21861431002616882,0.2289189100265503,9.858488082885742,-0.007253558754440398,-0.001132119922291367,-0.005241581642628916,1.8800406455993652,2019-08-07 13:41:35:249,15.39554791518134,171.16912871724088,0,-51.57899856567383,19.19218635559082,-20.69157600402832
-0.17550881206989288,0.20976091921329498,9.851303100585938,0.0010042569160299579,-6.659528596096748e-05,-0.010036441939234959,1.8900184631347656,2019-08-07 13:41:35:259,18.667261027596773,171.3207875453534,0,-51.57899856567383,19.19218635559082,-20.69157600402832
-0.11085056513547897,0.23131366074085236,9.868066787719727,-0.0011267922997395827,-6.659528596096748e-05,-0.01536406553131675,1.9000439643859863,2019-08-07 13:41:35:269,21.88108146859305,171.4681500397902,0,-51.57899856567383,19.19218635559082,-20.69157600402832
-0.23537755012512207,0.16665542125701904,9.93511962890625,-0.007786321009618847,-0.010455460168137204,-0.012700254255424506,1.910019874572754,2019-08-07 13:41:35:279,25.022173080648656,171.6239283004431,0,-51.57899856567383,19.19218635559082,-20.69157600402832
-0.0892978236079216,0.14749743044376373,9.77467155456543,-0.004056984703221053,0.0041955028895674495,-0.02681845453780206,1.920048713684082,2019-08-07 13:41:35:289,28.108898681626112,171.77644401840797,0,-51.57899856567383,19.19218635559082,-20.69157600402832
-0.2736935615539551,0.1498921662569046,9.959067344665527,-0.0029914601928641544,-0.00246402556023749,-0.02681845453780206,1.9300205707550049,2019-08-07 13:41:35:299,31.11661640926864,171.9253444403645,0,-51.57899856567383,19.19218635559082,-20.69157600402832
0.01367641519755125,0.19060291349887848,9.824960708618164,-0.002192316810096481,-0.0037959311981836125,-0.021490831986017565,1.9400599002838135,2019-08-07 13:41:35:309,26.89801899564453,172.06584555609624,0,-51.57899856567383,19.19218635559082,-20.69157600402832
-0.0892978236079216,0.21694517135620117,9.791434288024902,-6.126766340918298e-05,-0.004595074841025611,-0.025486549420004584,1.9500186443328857,2019-08-07 13:41:35:319,29.95217764566668,172.19917743230894,0,-51.57899856567383,19.19218635559082,-20.69157600402832
-0.027034329250454903,0.23610316216945648,9.817776679992676,-6.126766340918298e-05,0.0007325481658889489,-0.023621881006731363,1.9600389003753662,2019-08-07 13:41:35:329,32.94956653797955,172.32767607264054,0,-51.57899856567383,19.19218635559082,-20.69157600402832
-0.043797578662633896,0.20497141778469086,9.779460906982422,-0.004323365830810277,0.0012653104860859794,-0.026552073930361485,1.9700241088867188,2019-08-07 13:41:35:339,35.88473380851864,172.4595323625039,0,-51.57899856567383,19.19218635559082,-20.69157600402832
0.03283441439270973,0.16426067054271698,9.801013946533203,-0.002192316810096481,-0.004595074841025611,-0.031080552579229648,1.9800479412078857,2019-08-07 13:41:35:349,31.573464331513193,172.59237238986387,0,-53.52820587158203,18.44249153137207,-21.741147994995117
0.04001866281032562,0.2217346578836441,9.822566032409668,0.00393444938453001,-0.008324410627274756,-0.02335550039929079,1.9900178909301758,2019-08-07 13:41:35:359,27.351323756821554,172.71245888075862,0,-53.52820587158203,18.44249153137207,-21.741147994995117
0.08312415331602097,0.23370841145515442,9.724381446838379,0.0010042569160299579,-0.0016648821774698163,-0.022023593200898715,2.000044822692871,2019-08-07 13:41:35:369,23.215029692902547,172.83010952955735,0,-53.52820587158203,18.44249153137207,-21.741147994995117
0.06875565648078918,0.2624454200267792,9.848908424377441,0.0010042569160299579,0.0031299783792105513,-0.023621881006731363,2.0100202560424805,2019-08-07 13:41:35:379,19.156975494419093,172.94241666579774,0,-53.52820587158203,18.44249153137207,-21.741147994995117
0.06875565648078918,0.2983666658401489,9.769882202148438,0.0010042569160299579,0.0031299783792105513,-0.021757212593458142,2.020059585571289,2019-08-07 13:41:35:389,15.180135854644593,173.04801748665793,0,-53.52820587158203,18.44249153137207,-21.741147994995117
0.09988740086555481,0.23370841145515442,9.822566032409668,0.00020511348449834825,0.002597216124032102,-0.016163208393935775,2.0300207138061523,2019-08-07 13:41:35:399,11.28673308846649,173.15968277580203,0,-53.52820587158203,18.44249153137207,-21.741147994995117
0.09030840545892715,0.2145504206418991,9.75790786743164,0.007397404303264255,-0.0027304066878267143,-0.016695970649114225,2.0400381088256836,2019-08-07 13:41:35:409,7.4731392380366675,173.26713668796523,0,-53.52820587158203,18.44249153137207,-21.741147994995117
0.107071653008461,0.27202439308166504,9.793828964233398,0.004200830512119234,0.0031299783792105513,-0.011368348097329731,2.0500214099884033,2019-08-07 13:41:35:419,3.734449204866832,173.36761941488405,0,-53.52820587158203,18.44249153137207,-21.741147994995117
0.08312415331602097,0.24328741431236267,9.8034086227417,0.003668068256940785,0.008191220323554469,-0.007106249535753488,2.0600428581237793,2019-08-07 13:41:35:429,0.06486710530497186,173.4697710838798,0,-53.52820587158203,18.44249153137207,-21.741147994995117
0.107071653008461,0.26484015583992004,9.872856140136719,0.008462928813621153,0.0009989292934781736,-0.00018034003963255039,2.0700323581695557,2019-08-07 13:41:35:439,-3.5245635166080174,173.56489682129052,0,-53.52820587158203,18.44249153137207,-21.741147994995117
0.11904539912939072,0.29597190022468567,9.858488082885742,0.0034016871293515603,-0.0016648821774698163,0.0016843279347652483,2.0800387859344482,2019-08-07 13:41:35:449,-7.039300075048688,173.65729522386428,0,-53.52820587158203,18.44249153137207,-21.741147994995117
0.11665065586566925,0.22412940859794617,9.84411907196045,0.004200830512119234,0.0041955028895674495,0.007011950746624065,2.0900206565856934,2019-08-07 13:41:35:459,-10.487287358496474,173.75570930958992,0,-53.52820587158203,18.44249153137207,-21.741147994995117
0.10228215157985687,0.2145504206418991,9.71719741821289,-0.004056984703221053,0.0041955028895674495,0.003548996087964146,2.1000454425811768,2019-08-07 13:41:35:469,-13.86784188342267,173.8575816798612,0,-53.82808303833008,18.44249153137207,-20.241758346557617
0.09509790688753128,0.29118239879608154,9.81538200378418,0.001803400363816213,0.002597216124032102,0.008077475256980963,2.1100196838378906,2019-08-07 13:41:35:479,-17.18083758250194,173.94543536761594,0,-53.82808303833008,18.44249153137207,-20.241758346557617
0.1405981481075287,0.24328741431236267,9.820171356201172,0.004999974154961233,-0.006992504989328633,0.01420424223183043,2.1200571060180664,2019-08-07 13:41:35:489,-20.416874581729953,174.03532527804094,0,-53.82808303833008,18.44249153137207,-20.241758346557617
0.0807294100522995,0.2552611529827118,9.753118515014648,-0.0011267922997395827,-0.0037959311981836125,0.01367147893635468,2.130126476287842,2019-08-07 13:41:35:499,-23.59690603288221,174.12527149818118,0,-53.82808303833008,18.44249153137207,-20.241758346557617
0.02325541339814663,0.2983666658401489,9.765092849731445,0.009262072716537477,0.0028635972516213265,0.015802528997365776,2.140018939971924,2019-08-07 13:41:35:509,-26.72382955275239,174.2026194657651,0,-53.82808303833008,18.44249153137207,-20.241758346557617
-0.00787633191794157,0.3055509030818939,9.765092849731445,0.0020697814914054373,0.0017980727412644285,0.0166016718599848,2.1500439643859863,2019-08-07 13:41:35:519,-22.591289376384967,174.28155785009807,0,-53.82808303833008,18.44249153137207,-20.241758346557617
0.006492166314274073,0.21215566992759705,9.820171356201172,-0.0016595545549180318,0.0007325481658889489,0.01313871668117623,2.1600234508514404,2019-08-07 13:41:35:529,-25.739116499241916,174.3721040289979,0,-53.82808303833008,18.44249153137207,-20.241758346557617
-0.02463958039879799,0.2217346578836441,9.777066230773926,0.0015370192362269886,-6.659528596096748e-05,0.014737004487008877,2.170053720474243,2019-08-07 13:41:35:539,-21.627184525060677,174.45781246925392,0,-53.82808303833008,18.44249153137207,-20.241758346557617
-0.050981827080249786,0.2792086601257324,9.748329162597656,0.0007378757884407334,-0.0019312633050590406,0.02006462599849607,2.1800200939178467,2019-08-07 13:41:35:549,-17.599552935818835,174.53543130366464,0,-53.82808303833008,18.44249153137207,-20.241758346557617
-0.027034329250454903,0.32949841022491455,9.877645492553711,0.007663785430853478,0.0004661670057904337,0.012339573818557208,2.1900415420532227,2019-08-07 13:41:35:559,-13.65096046255264,174.6021989699562,0,-53.82808303833008,18.44249153137207,-20.241758346557617
-0.08211357146501541,0.3079456388950348,9.798619270324707,-6.126766340918298e-05,0.0033963595067997765,0.013405098328914105,2.2000198364257812,2019-08-07 13:41:35:569,-9.789446846582795,174.67418795968374,0,-53.82808303833008,18.44249153137207,-20.241758346557617
-0.05816607549786568,0.2480769157409668,9.851303100585938,-0.00272507906527493,-0.0013985010498805918,0.015003385094449453,2.2100465297698975,2019-08-07 13:41:35:579,-5.999636427314545,174.75338790112664,0,-53.82808303833008,18.44249153137207,-20.241758346557617
-0.11324531584978104,0.2672349214553833,9.78664493560791,-0.004323365830810277,0.002597216124032102,0.005946426236267168,2.2201833724975586,2019-08-07 13:41:35:589,-2.2943812597369635,174.82949823588388,0,-53.82808303833008,18.44249153137207,-20.241758346557617
-0.08450832217931747,0.2983666658401489,9.853697776794434,0.002602543746583887,0.0007325481658889489,0.0038153772155533703,2.2300219535827637,2019-08-07 13:41:35:599,1.3412741990127945,174.8967831934965,0,-52.628570556640625,19.042245864868164,-21.14139175415039
-0.10845582187175751,0.2480769157409668,9.812987327575684,-0.003524222448042604,0.0009989292934781736,0.0032826149603749208,2.2400410175323486,2019-08-07 13:41:35:609,4.9012222911969925,174.97186703444203,0,-52.628570556640625,19.042245864868164,-21.14139175415039
-0.0629555732011795,0.21215566992759705,9.84411907196045,-0.0005940299795425521,0.006592933558019122,-0.0023113892391474454,2.2500193119049072,2019-08-07 13:41:35:619,8.392175644045942,175.04807012338213,0,-52.628570556640625,19.042245864868164,-21.14139175415039
-0.04858707636594772,0.2528664171695709,9.853697776794434,0.002336162618994662,0.001531691613675204,0.003016233572711371,2.260057210922241,2019-08-07 13:41:35:629,11.817818540243788,175.1163918681853,0,-52.628570556640625,19.042245864868164,-21.14139175415039
-0.08211357146501541,0.2600506544113159,9.84411907196045,0.002336162618994662,-0.001132119922291367,-0.0020450079815210586,2.27001953125,2019-08-07 13:41:35:639,15.172537158391226,175.18249277540917,0,-52.628570556640625,19.042245864868164,-21.14139175415039
-0.055771324783563614,0.2480769157409668,9.820171356201172,-0.0005940299795425521,0.00019978586194656375,-0.00257777036673667,2.2800424098968506,2019-08-07 13:41:35:649,18.462466094327084,175.25023529547673,0,-52.628570556640625,19.042245864868164,-21.14139175415039
-0.06535032391548157,0.19299766421318054,9.841724395751953,-0.003524222448042604,0.002330834996442878,-0.0015122457263426093,2.2900230884552,2019-08-07 13:41:35:659,21.684301624455436,175.32473691871914,0,-52.628570556640625,19.042245864868164,-21.14139175415039
-0.050981827080249786,0.21933990716934204,9.8034086227417,-0.0029914601928641544,0.00019978586194656375,-0.0023113892391474454,2.3000621795654297,2019-08-07 13:41:35:669,24.844543787096626,175.39429419076754,0,-52.628570556640625,19.042245864868164,-21.14139175415039
-0.06774507462978363,0.2600506544113159,9.805803298950195,-0.0011267922997395827,-0.0013985010498805918,-0.007372630663342713,2.3100197315216064,2019-08-07 13:41:35:679,27.940518206004036,175.45665566594906,0,-52.628570556640625,19.042245864868164,-21.14139175415039
-0.06774507462978363,0.25765591859817505,9.765092849731445,0.00020511348449834825,-0.0021976444326482656,-0.002844151494325895,2.3200392723083496,2019-08-07 13:41:35:689,30.974994595811285,175.51717872459696,0,-52.628570556640625,19.042245864868164,-21.14139175415039
-0.08211357146501541,0.24328741431236267,9.887224197387695,0.003135306001762336,-0.0016648821774698163,-0.013765778765781403,2.330021619796753,2019-08-07 13:41:35:699,33.94691125235582,175.5768868020204,0,-52.628570556640625,19.042245864868164,-21.14139175415039
-0.06535032391548157,0.2025766670703888,9.817776679992676,-0.0011267922997395827,-0.00033297644199582136,-0.004708819387450467,2.3400421142578125,2019-08-07 13:41:35:709,36.86053290101203,175.64234197685124,0,-52.628570556640625,19.042245864868164,-21.14139175415039
-0.07253457605838776,0.1953924149274826,9.829751014709473,0.0007378757884407334,0.003662740634389001,-0.010036441939234959,2.3500304222106934,2019-08-07 13:41:35:719,39.71281236774282,175.70630618823998,0,-52.478633880615234,18.592430114746094,-22.490842819213867
-0.043797578662633896,0.21933990716934204,9.801013946533203,-0.00032764881944403687,-6.659528596096748e-05,-0.007372630663342713,2.3600382804870605,2019-08-07 13:41:35:729,42.513472848850554,175.76672366575835,0,-52.478633880615234,18.592430114746094,-22.490842819213867
-0.09648206830024719,0.2289189100265503,9.77467155456543,-0.0005940299795425521,0.0007325481658889489,-0.010036441939234959,2.3700180053710938,2019-08-07 13:41:35:739,45.2514823710411,175.82489008188722,0,-52.478633880615234,18.592430114746094,-22.490842819213867
-0.03900807723402977,0.21933990716934204,9.858488082885742,-0.003524222448042604,-0.00246402556023749,-0.013233016510602954,2.3800411224365234,2019-08-07 13:41:35:749,47.94330533248203,175.88488461577055,0,-52.478633880615234,18.592430114746094,-22.490842819213867
-0.04140282794833183,0.18820816278457642,9.834540367126465,-0.004856128085988727,-0.003263168943005164,-0.012433872607686629,2.390019655227661,2019-08-07 13:41:35:759,50.58144334965434,175.94798053749827,0,-52.478633880615234,18.592430114746094,-22.490842819213867
-0.01745533011853695,0.2792086601257324,9.808197975158691,-0.0024586979376857053,0.0012653104860859794,-0.018560639062387443,2.4000601768493652,2019-08-07 13:41:35:769,53.16706178714711,175.99779525789137,0,-52.478633880615234,18.592430114746094,-22.490842819213867
0.011281665414571762,0.23610316216945648,9.81538200378418,-0.0029914601928641544,-0.0013985010498805918,-0.011368348097329731,2.410019874572754,2019-08-07 13:41:35:779,48.50581974215666,176.0519532821803,0,-52.478633880615234,18.592430114746094,-22.490842819213867
0.02325541339814663,0.1953924149274826,9.836935043334961,-0.002192316810096481,-0.0005993576020943366,-0.018027875766911696,2.420044183731079,2019-08-07 13:41:35:789,43.93874974801708,176.10938970317378,0,-52.478633880615234,18.592430114746094,-22.490842819213867
0.028044912964105606,0.2744191586971283,9.74593448638916,0.00020511348449834825,0.003662740634389001,-0.012167492000246055,2.430018424987793,2019-08-07 13:41:35:799,39.461220905777765,176.15482967387302,0,-52.478633880615234,18.592430114746094,-22.490842819213867
-0.005481582134962082,0.2863928973674774,9.736355781555176,-0.0024586979376857053,0.0028635972516213265,-0.015630446138757324,2.4400501251220703,2019-08-07 13:41:35:809,42.26973833258178,176.19942085791425,0,-52.478633880615234,18.592430114746094,-22.490842819213867
0.006492166314274073,0.1570764183998108,9.848908424377441,-0.002192316810096481,0.001531691613675204,-0.018560639062387443,2.4500210285186768,2019-08-07 13:41:35:819,37.8242413858137,176.25838562815898,0,-52.478633880615234,18.592430114746094,-22.490842819213867
0.0352291613817215,0.2025766670703888,9.810592651367188,-0.005388890341167176,-0.0037959311981836125,-0.019892544180184917,2.4600367546081543,2019-08-07 13:41:35:829,33.474006206316076,176.31259014373708,0,-52.478633880615234,18.592430114746094,-22.490842819213867
0.01367641519755125,0.20497141778469086,9.75790786743164,-0.0008604111071317767,-0.0005993576020943366,-0.00950367968405651,2.4700205326080322,2019-08-07 13:41:35:839,29.206468157447073,176.3627534884834,0,-52.478633880615234,18.592430114746094,-22.490842819213867
0.107071653008461,0.23610316216945648,9.78664493560791,0.00020511348449834825,-0.0013985010498805918,-0.011901110352508182,2.480034828186035,2019-08-07 13:41:35:849,25.035661663820164,176.40774318963594,0,-52.478633880615234,19.19218635559082,-21.291330337524414
0.09749265760183334,0.20736616849899292,9.808197975158691,0.0010042569160299579,0.002064453868853653,-0.013499397118043528,2.4900307655334473,2019-08-07 13:41:35:859,20.94517964230235,176.45480118173586,0,-52.478633880615234,19.19218635559082,-21.291330337524414
0.01367641519755125,0.19299766421318054,9.791434288024902,-0.0005940299795425521,0.006592933558019122,-0.011901110352508182,2.500037431716919,2019-08-07 13:41:35:869,16.924172241866874,176.5034548615421,0,-52.478633880615234,19.19218635559082,-21.291330337524414
0.04001866281032562,0.1834186613559723,9.8034086227417,0.00047149462834221814,-0.0016648821774698163,-0.01296663486286508,2.5100221633911133,2019-08-07 13:41:35:879,12.991299934520065,176.55168420938358,0,-52.478633880615234,19.19218635559082,-21.291330337524414
0.02325541339814663,0.1570764183998108,9.81538200378418,0.00047149462834221814,-0.003263168943005164,-0.00604072502539659,2.520045280456543,2019-08-07 13:41:35:889,9.13602542915221,176.60204854720052,0,-52.478633880615234,19.19218635559082,-21.291330337524414
0.020860664546489716,0.24568216502666473,9.810592651367188,0.002336162618994662,0.003929121761978225,-0.004708819387450467,2.5300228595733643,2019-08-07 13:41:35:899,5.353540274065394,176.64000812404066,0,-52.478633880615234,19.19218635559082,-21.291330337524414
0.018465915694832802,0.18820816278457642,9.827356338500977,-0.0019259356825072562,0.001531691613675204,-0.006307106152985815,2.5400516986846924,2019-08-07 13:41:35:909,1.647760154913331,176.68634922331802,0,-52.478633880615234,19.19218635559082,-21.291330337524414
0.020860664546489716,0.20976091921329498,9.812987327575684,-6.126766340918298e-05,0.0052610273999243486,-0.006573487280575038,2.5500214099884033,2019-08-07 13:41:35:919,-1.9857041515234322,176.72816534939614,0,-52.478633880615234,19.19218635559082,-21.291330337524414
0.01367641519755125,0.2528664171695709,9.834540367126465,0.0010042569160299579,0.00019978586194656375,-0.00897091742887806,2.5600404739379883,2019-08-07 13:41:35:929,-5.544508893996854,176.76357970390845,0,-52.478633880615234,19.19218635559082,-21.291330337524414
-0.050981827080249786,0.20497141778469086,9.796224594116211,-0.0011267922997395827,0.0004661670057904337,-0.004442438259861242,2.570023775100708,2019-08-07 13:41:35:939,-1.8398435880896096,176.80496666564915,0,-52.478633880615234,19.19218635559082,-21.291330337524414
-0.04858707636594772,0.17144492268562317,9.860882759094238,-0.006454414851524075,0.003662740634389001,-0.0041760571322720175,2.5800602436065674,2019-08-07 13:41:35:949,1.7892429878335026,176.85258339280568,0,-52.478633880615234,19.19218635559082,-21.291330337524414
-0.012665831483900547,0.23610316216945648,9.875250816345215,-0.0016595545549180318,0.0031299783792105513,0.00061880342440835,2.5900206565856934,2019-08-07 13:41:35:959,5.3502378754513344,176.88906788481026,0,-52.478633880615234,19.19218635559082,-21.291330337524414
-0.03182382881641388,0.27681389451026917,9.872856140136719,0.006598260920496581,-0.0016648821774698163,-0.003909676004682793,2.600034713745117,2019-08-07 13:41:35:969,8.840475568562292,176.9154557829717,0,-52.478633880615234,18.292551040649414,-21.89108657836914
-0.03661332651972771,0.27681389451026917,9.726776123046875,0.001803400363816213,-0.0075252672445070825,-0.003909676004682793,2.6100223064422607,2019-08-07 13:41:35:979,12.263572830852876,176.94353255526752,0,-52.478633880615234,18.292551040649414,-21.89108657836914
-0.08690307289361954,0.20497141778469086,9.762697219848633,0.0010042569160299579,-0.003263168943005164,-0.003643294877093568,2.6200404167175293,2019-08-07 13:41:35:989,15.60993680949818,176.98004160905822,0,-52.478633880615234,18.292551040649414,-21.89108657836914
-0.08690307289361954,0.3151299059391022,9.762697219848633,0.006598260920496581,0.008990363706322143,-0.006573487280575038,2.630028009414673,2019-08-07 13:41:35:999,18.882496111682038,176.99976431165737,0,-52.478633880615234,18.292551040649414,-21.89108657836914
-0.022244829684495926,0.27202439308166504,9.90638256072998,0.006065498665318131,-0.0008657387296835611,-0.0009794834711641602,2.640038013458252,2019-08-07 13:41:36:009,22.102759632230416,177.0249014756991,0,-52.478633880615234,18.292551040649414,-21.89108657836914
-0.02463958039879799,0.20976091921329498,9.798619270324707,0.004467211899782784,-6.659528596096748e-05,-0.0020450079815210586,2.6500136852264404,2019-08-07 13:41:36:019,25.25786023173735,177.0573741268245,0,-52.478633880615234,18.292551040649414,-21.89108657836914
-0.03421857953071594,0.23131366074085236,9.762697219848633,-0.0019259356825072562,-6.659528596096748e-05,-0.004975200515039691,2.66003155708313,2019-08-07 13:41:36:029,28.3487240311589,177.09016417504407,0,-52.478633880615234,18.292551040649414,-21.89108657836914
-0.055771324783563614,0.21215566992759705,9.726776123046875,0.001803400363816213,0.003662740634389001,-0.00604072502539659,2.670011281967163,2019-08-07 13:41:36:039,31.37312672523135,177.12236015142562,0,-52.478633880615234,18.292551040649414,-21.89108657836914
-0.01745533011853695,0.22652415931224823,9.801013946533203,0.0010042569160299579,0.005793789655102798,-0.006307106152985815,2.6800448894500732,2019-08-07 13:41:36:049,34.34035921124442,177.15286711228825,0,-52.478633880615234,18.292551040649414,-21.89108657836914
-0.000692082685418427,0.28399816155433655,9.820171356201172,0.001803400363816213,0.0031299783792105513,-0.0041760571322720175,2.690012216567993,2019-08-07 13:41:36:059,37.25171953149394,177.17566996641298,0,-52.478633880615234,18.292551040649414,-21.89108657836914
-0.029429078102111816,0.23131366074085236,9.870461463928223,0.0010042569160299579,-0.004595074841025611,-0.010302823586972834,2.7000486850738525,2019-08-07 13:41:36:069,40.105858106759186,177.2047410745044,0,-52.478633880615234,18.292551040649414,-21.89108657836914
-0.027034329250454903,0.24328741431236267,9.741145133972168,0.0015370192362269886,-0.0005993576020943366,-0.007639012311080588,2.7100143432617188,2019-08-07 13:41:36:079,42.90089610785572,177.23117261684013,0,-52.478633880615234,18.292551040649414,-21.89108657836914
-0.022244829684495926,0.19778716564178467,9.839329719543457,-0.0005940299795425521,0.005527408527513573,-0.004708819387450467,2.7200303077697754,2019-08-07 13:41:36:089,45.637178908474844,177.26385150478765,0,-52.478633880615234,18.292551040649414,-21.89108657836914
-0.015060581266880035,0.2552611529827118,9.868066787719727,0.004733593027372009,0.0028635972516213265,-0.005774343897807364,2.7300281524658203,2019-08-07 13:41:36:099,48.32107888311228,177.28628190229193,0,-51.878875732421875,17.69279670715332,-22.790719985961914
0.028044912964105606,0.1953924149274826,9.882434844970703,-0.0013931734273288073,-0.0005993576020943366,-0.003909676004682793,2.7400286197662354,2019-08-07 13:41:36:109,43.758245792728296,177.31868483228885,0,-51.878875732421875,17.69279670715332,-22.790719985961914
-0.015060581266880035,0.18102392554283142,9.741145133972168,0.003668068256940785,0.00019978586194656375,-0.003643294877093568,2.750007390975952,2019-08-07 13:41:36:119,46.48119726075183,177.34896329699725,0,-51.878875732421875,17.69279670715332,-22.790719985961914
-0.029429078102111816,0.28399816155433655,9.784250259399414,0.002336162618994662,0.0033963595067997765,-0.0068398684081642635,2.7600138187408447,2019-08-07 13:41:36:129,49.14621836277784,177.36741936601854,0,-51.878875732421875,17.69279670715332,-22.790719985961914
-0.019850080832839012,0.2816033959388733,9.74593448638916,0.0010042569160299579,0.007924839195965244,-0.004975200515039691,2.7700107097625732,2019-08-07 13:41:36:139,51.75651164644142,177.3864058767809,0,-51.878875732421875,17.69279670715332,-22.790719985961914
0.03283441439270973,0.19778716564178467,9.841724395751953,-0.0013931734273288073,0.004461884017156674,-0.0033769137495043436,2.7800371646881104,2019-08-07 13:41:36:149,47.122692486052344,177.41643595701856,0,-51.878875732421875,17.69279670715332,-22.790719985961914
-0.07253457605838776,0.23131366074085236,9.827356338500977,-0.00272507906527493,-0.0048614559686148365,-0.0033769137495043436,2.790027379989624,2019-08-07 13:41:36:159,49.77450794997808,177.44266859648394,0,-51.878875732421875,17.69279670715332,-22.790719985961914
-0.08690307289361954,0.1834186613559723,9.808197975158691,-0.0037906035756318283,-0.0048614559686148365,-0.0041760571322720175,2.8000307083129883,2019-08-07 13:41:36:169,52.37159556903146,177.47451760152828,0,-51.878875732421875,17.69279670715332,-22.790719985961914
-0.10366632044315338,0.23849791288375854,9.772276878356934,-0.0032578413204533796,-0.0037959311981836125,-0.006307106152985815,2.8100101947784424,2019-08-07 13:41:36:179,54.91413504357533,177.49889160670176,0,-51.878875732421875,17.69279670715332,-22.790719985961914
-0.06774507462978363,0.2289189100265503,9.841724395751953,-0.0019259356825072562,-0.004328693453362062,-0.005507962770218141,2.8200316429138184,2019-08-07 13:41:36:189,57.41040037656537,177.52334826629982,0,-51.878875732421875,17.69279670715332,-22.790719985961914
-0.10845582187175751,0.3342879116535187,9.860882759094238,0.00047149462834221814,0.0009989292934781736,-0.005774343897807364,2.8300299644470215,2019-08-07 13:41:36:199,59.84902861637467,177.533784471311,0,-51.878875732421875,17.69279670715332,-22.790719985961914
-0.16592980921268463,0.33668264746665955,9.841724395751953,-0.004589746958399502,0.004728265144745899,-0.007372630663342713,2.8400444984436035,2019-08-07 13:41:36:209,62.230071158135004,177.54650349315534,0,-51.878875732421875,17.69279670715332,-22.790719985961914
-0.13719281554222107,0.2792086601257324,9.781855583190918,-0.004856128085988727,0.0004661670057904337,-0.008438155693848261,2.850010395050049,2019-08-07 13:41:36:219,64.56913819464486,177.56559123942242,0,-53.228328704833984,19.342124938964844,-21.14139175415039
-0.11324531584978104,0.3127351403236389,9.812987327575684,-0.0008604111071317767,-0.005926980478971734,-0.00950367968405651,2.8600308895111084,2019-08-07 13:41:36:229,66.86786656192287,177.57825610752909,0,-53.228328704833984,19.342124938964844,-21.14139175415039
-0.12761381268501282,0.26484015583992004,9.896803855895996,-0.006987177626851173,-0.0021976444326482656,-0.00897091742887806,2.8700315952301025,2019-08-07 13:41:36:239,69.11696816312838,177.59995697336228,0,-53.228328704833984,19.342124938964844,-21.14139175415039
-0.12521906197071075,0.2744191586971283,9.863277435302734,-0.0024586979376857053,-0.004062312325772837,-0.01536406553131675,2.8800106048583984,2019-08-07 13:41:36:249,71.32235782550936,177.61746169585246,0,-53.228328704833984,19.342124938964844,-21.14139175415039
-0.08450832217931747,0.20736616849899292,9.77467155456543,-0.0008604111071317767,0.0004661670057904337,-0.017495114552030545,2.890033721923828,2019-08-07 13:41:36:259,73.48574138132436,177.64129015419525,0,-53.228328704833984,19.342124938964844,-21.14139175415039
-0.03900807723402977,0.2672349214553833,9.798619270324707,-0.00032764881944403687,0.0009989292934781736,-0.016163208393935775,2.9000062942504883,2019-08-07 13:41:36:269,75.61090535524352,177.65740334001865,0,-53.228328704833984,19.342124938964844,-21.14139175415039
-0.055771324783563614,0.29118239879608154,9.851303100585938,-0.0005940299795425521,0.0004661670057904337,-0.011634728704770307,2.910031318664551,2019-08-07 13:41:36:279,77.69193752177489,177.67072882186739,0,-53.228328704833984,19.342124938964844,-21.14139175415039
-0.03900807723402977,0.21694517135620117,9.805803298950195,-0.0037906035756318283,-0.001132119922291367,-0.013499397118043528,2.9200081825256348,2019-08-07 13:41:36:289,79.7341744870883,177.69408945405206,0,-53.228328704833984,19.342124938964844,-21.14139175415039
0.018465915694832802,0.20497141778469086,9.796224594116211,0.00020511348449834825,0.002597216124032102,-0.011634728704770307,2.9300308227539062,2019-08-07 13:41:36:299,74.54018941443881,177.71611915327748,0,-53.228328704833984,19.342124938964844,-21.14139175415039
0.03283441439270973,0.20497141778469086,9.875250816345215,-0.005388890341167176,0.0028635972516213265,-0.007106249535753488,2.9400105476379395,2019-08-07 13:41:36:309,69.45159104333399,177.74103519797373,0,-53.228328704833984,19.342124938964844,-21.14139175415039
0.061571408063173294,0.1953924149274826,9.834540367126465,-0.002192316810096481,-0.0019312633050590406,-0.007639012311080588,2.950049638748169,2019-08-07 13:41:36:319,64.47082203832808,177.76468626012954,0,-53.228328704833984,19.342124938964844,-21.14139175415039
0.03762391209602356,0.20976091921329498,9.8034086227417,-0.0005940299795425521,0.0028635972516213265,-0.00604072502539659,2.960012435913086,2019-08-07 13:41:36:329,59.58420149237145,177.78520973156816,0,-53.228328704833984,19.342124938964844,-21.14139175415039
0.04001866281032562,0.19778716564178467,9.846513748168945,-0.0024586979376857053,0.004461884017156674,0.0008851845519975746,2.9700300693511963,2019-08-07 13:41:36:339,54.79466496116412,177.80787358711012,0,-53.228328704833984,19.342124938964844,-21.14139175415039
0.06396616250276566,0.2408926635980606,9.78664493560791,0.001803400363816213,0.004728265144745899,-0.0033769137495043436,2.9800126552581787,2019-08-07 13:41:36:349,50.103611044683916,177.8225049098352,0,-52.17875289916992,17.39291763305664,-21.89108657836914
0.0017026669811457396,0.18820816278457642,9.781855583190918,-0.0005940299795425521,-0.0008657387296835611,0.0011515656795867992,2.9900336265563965,2019-08-07 13:41:36:359,45.5022254167703,177.84434374595565,0,-52.17875289916992,17.39291763305664,-21.89108657836914
0.054387159645557404,0.21694517135620117,9.75790786743164,-0.005921652596345625,0.002064453868853653,0.003548996087964146,3.0000085830688477,2019-08-07 13:41:36:369,40.99741148928521,177.86530088025629,0,-52.17875289916992,17.39291763305664,-21.89108657836914
0.028044912964105606,0.2217346578836441,9.8034086227417,0.00020511348449834825,-0.0021976444326482656,8.60411123386422e-05,3.0100343227386475,2019-08-07 13:41:36:379,36.58197855714466,177.8819653590821,0,-52.17875289916992,17.39291763305664,-21.89108657836914
0.006492166314274073,0.17144492268562317,9.796224594116211,-0.00272507906527493,-0.0005993576020943366,0.0022170901899436976,3.020008087158203,2019-08-07 13:41:36:389,32.25143406406511,177.90579940420034,0,-52.17875289916992,17.39291763305664,-21.89108657836914
0.06636090576648712,0.24328741431236267,9.858488082885742,0.00047149462834221814,-0.002996787815415939,0.002483471317532922,3.0300326347351074,2019-08-07 13:41:36:399,28.015805644821157,177.919144897454,0,-52.17875289916992,17.39291763305664,-21.89108657836914
0.02325541339814663,0.21694517135620117,9.801013946533203,0.002336162618994662,-0.006459742734150184,0.008876618639748637,3.040012836456299,2019-08-07 13:41:36:409,23.861828460416863,177.93409217600694,0,-52.17875289916992,17.39291763305664,-21.89108657836914
0.0017026669811457396,0.17862917482852936,9.748329162597656,0.0007378757884407334,0.0041955028895674495,0.00674556961903484,3.0500271320343018,2019-08-07 13:41:36:419,19.782432902750745,177.95399992334862,0,-52.17875289916992,17.39291763305664,-21.89108657836914
-0.005481582134962082,0.22652415931224823,9.784250259399414,0.0034016871293515603,0.008191220323554469,0.006212807363856391,3.0600297451019287,2019-08-07 13:41:36:429,22.981541689806278,177.96648397797324,0,-52.17875289916992,17.39291763305664,-21.89108657836914
0.028044912964105606,0.22652415931224823,9.86567211151123,-0.0019259356825072562,0.002330834996442878,0.011540429915640882,3.070009708404541,2019-08-07 13:41:36:439,18.923862176049226,177.981926974962,0,-52.17875289916992,17.39291763305664,-21.89108657836914
0.02325541339814663,0.19060291349887848,9.824960708618164,0.0010042569160299579,-0.002996787815415939,0.0048809017259102685,3.080007553100586,2019-08-07 13:41:36:449,14.949779607946565,177.99949684834178,0,-52.17875289916992,17.39291763305664,-21.89108657836914
-0.06535032391548157,0.20976091921329498,9.781855583190918,-0.0008604111071317767,-0.003263168943005164,0.007811094129391739,3.0900309085845947,2019-08-07 13:41:36:459,18.244965075847098,178.0154220505922,0,-52.17875289916992,17.39291763305664,-21.89108657836914
-0.04858707636594772,0.26962965726852417,9.789039611816406,0.0028689248741731116,0.0031299783792105513,0.001950709062354473,3.1000123023986816,2019-08-07 13:41:36:469,21.472623956594532,178.02195054783218,0,-52.17875289916992,18.592430114746094,-21.291330337524414
-0.02463958039879799,0.20736616849899292,9.860882759094238,-0.002192316810096481,-0.0019312633050590406,0.004614520598321043,3.110048770904541,2019-08-07 13:41:36:479,24.641396518117848,178.0386529078226,0,-52.17875289916992,18.592430114746094,-21.291330337524414
-0.07253457605838776,0.2217346578836441,9.810592651367188,0.003668068256940785,-0.0005993576020943366,0.008077475256980963,3.1200101375579834,2019-08-07 13:41:36:489,27.740431658282468,178.04993312481207,0,-52.17875289916992,18.592430114746094,-21.291330337524414
-0.07253457605838776,0.2528664171695709,9.829751014709473,-0.00032764881944403687,-0.0016648821774698163,0.005147282853499493,3.1300292015075684,2019-08-07 13:41:36:499,30.77810398036614,178.05964706659847,0,-52.17875289916992,18.592430114746094,-21.291330337524414
-0.06774507462978363,0.2289189100265503,9.81538200378418,-6.126766340918298e-05,0.0031299783792105513,0.006212807363856391,3.1400105953216553,2019-08-07 13:41:36:509,33.75287878911859,178.0717677300286,0,-52.17875289916992,18.592430114746094,-21.291330337524414
-0.03900807723402977,0.2624454200267792,9.812987327575684,0.0012706381086377639,0.006060170782692022,0.003548996087964146,3.1500399112701416,2019-08-07 13:41:36:519,36.66985330001591,178.07897695546683,0,-52.17875289916992,18.592430114746094,-21.291330337524414
-0.05337657779455185,0.2552611529827118,9.8034086227417,0.002336162618994662,0.003662740634389001,0.005680045108677942,3.1600077152252197,2019-08-07 13:41:36:529,39.52816713149445,178.0862592777709,0,-52.17875289916992,18.592430114746094,-21.291330337524414
-0.04619232565164566,0.22652415931224823,9.796224594116211,0.0020697814914054373,0.0017980727412644285,0.002483471317532922,3.1700222492218018,2019-08-07 13:41:36:539,42.331189388385006,178.09687723005783,0,-52.17875289916992,18.592430114746094,-21.291330337524414
-0.0629555732011795,0.2217346578836441,9.817776679992676,-0.0008604111071317767,0.0017980727412644285,-0.0031105326219151193,3.1800131797790527,2019-08-07 13:41:36:549,45.07620892522767,178.1095462423878,0,-52.17875289916992,18.592430114746094,-21.291330337524414
-0.06535032391548157,0.23131366074085236,9.827356338500977,0.004999974154961233,0.001531691613675204,-0.00257777036673667,3.1900267601013184,2019-08-07 13:41:36:559,47.76620349571445,178.11757675381244,0,-52.17875289916992,18.592430114746094,-21.291330337524414
-0.027034329250454903,0.20018191635608673,9.851303100585938,0.0015370192362269886,0.004461884017156674,-0.0023113892391474454,3.200035333633423,2019-08-07 13:41:36:569,50.40522727778066,178.13107924415306,0,-52.17875289916992,18.592430114746094,-21.291330337524414
-0.012665831483900547,0.22412940859794617,9.863277435302734,-0.0013931734273288073,0.002330834996442878,-0.008438155693848261,3.2100305557250977,2019-08-07 13:41:36:579,52.9943430813443,178.14320467593112,0,-52.17875289916992,18.592430114746094,-21.291330337524414
-0.02463958039879799,0.22412940859794617,9.836935043334961,0.002602543746583887,-0.006992504989328633,-0.00018034003963255039,3.2200071811676025,2019-08-07 13:41:36:589,55.535503037904675,178.1527781039857,0,-52.17875289916992,18.592430114746094,-21.291330337524414
-0.022244829684495926,0.23849791288375854,9.652539253234863,-0.0011267922997395827,0.0012653104860859794,-0.0023113892391474454,3.2300336360931396,2019-08-07 13:41:36:599,58.02143980403711,178.1620490324015,0,-52.478633880615234,18.292551040649414,-20.991453170776367
0.04720291122794151,0.14749743044376373,9.769882202148438,0.001803400363816213,0.007924839195965244,-0.007639012311080588,3.2400119304656982,2019-08-07 13:41:36:609,53.26210729595617,178.1804988912059,0,-52.478633880615234,18.292551040649414,-20.991453170776367
0.020860664546489716,0.24568216502666473,9.78664493560791,0.0055327364101396825,0.001531691613675204,-0.007905393438669812,3.2500483989715576,2019-08-07 13:41:36:619,48.598444536664225,178.18501014291846,0,-52.478633880615234,18.292551040649414,-20.991453170776367
0.03043966367840767,0.23131366074085236,9.796224594116211,-0.005921652596345625,0.0012653104860859794,-0.009770061331794384,3.2600080966949463,2019-08-07 13:41:36:629,44.029328714263315,178.1975685986386,0,-52.478633880615234,18.292551040649414,-20.991453170776367
0.06875565648078918,0.12115518003702164,9.829751014709473,-0.0011267922997395827,0.0009989292934781736,-0.0068398684081642635,3.2700295448303223,2019-08-07 13:41:36:639,39.55619518595451,178.22012817362977,0,-52.478633880615234,18.292551040649414,-20.991453170776367
0.03043966367840767,0.23849791288375854,9.827356338500977,0.002602543746583887,0.003662740634389001,-0.002844151494325895,3.28001070022583,2019-08-07 13:41:36:649,35.16656792940394,178.22646252789153,0,-52.478633880615234,18.292551040649414,-20.991453170776367
-0.0030868323519825935,0.22412940859794617,9.793828964233398,-0.0008604111071317767,0.00019978586194656375,-0.007372630663342713,3.2900307178497314,2019-08-07 13:41:36:659,38.06276299554506,178.23619793928918,0,-52.478633880615234,18.292551040649414,-20.991453170776367
-0.010271081700921059,0.17862917482852936,9.796224594116211,-0.0016595545549180318,0.0012653104860859794,-0.009237299076615935,3.300011157989502,2019-08-07 13:41:36:669,40.89959719352003,178.25151112268838,0,-52.478633880615234,18.292551040649414,-20.991453170776367
-0.000692082685418427,0.2624454200267792,9.765092849731445,0.00020511348449834825,0.0031299783792105513,-0.008704536821437486,3.3100428581237793,2019-08-07 13:41:36:679,43.67976098519479,178.25557529134616,0,-52.478633880615234,18.292551040649414,-20.991453170776367
0.0017026669811457396,0.2887876629829407,9.822566032409668,0.006331879792907356,-0.003529550070594388,-0.005774343897807364,3.3200318813323975,2019-08-07 13:41:36:689,39.20834406336543,178.2532316375345,0,-52.478633880615234,18.292551040649414,-20.991453170776367
0.049597661942243576,0.20497141778469086,9.817776679992676,0.00047149462834221814,0.0004661670057904337,-0.008704536821437486,3.3300044536590576,2019-08-07 13:41:36:699,34.829705060427855,178.2639825179725,0,-52.478633880615234,18.292551040649414,-20.991453170776367
-0.03900807723402977,0.20736616849899292,9.817776679992676,0.003668068256940785,0.0031299783792105513,-0.00950367968405651,3.3400630950927734,2019-08-07 13:41:36:709,37.72679023650066,178.27243131668519,0,-52.478633880615234,18.292551040649414,-20.991453170776367
-0.029429078102111816,0.2145504206418991,9.824960708618164,-0.0008604111071317767,-0.002996787815415939,-0.007639012311080588,3.3499808311462402,2019-08-07 13:41:36:719,40.5704908873198,178.2824421322897,0,-51.57899856567383,18.592430114746094,-22.190963745117188
0.006492166314274073,0.24328741431236267,9.702829360961914,0.005266355282550457,0.0041955028895674495,-0.006573487280575038,3.360025644302368,2019-08-07 13:41:36:729,36.15748147584853,178.28509647539195,0,-51.57899856567383,18.592430114746094,-22.190963745117188
-0.000692082685418427,0.2744191586971283,9.812987327575684,0.002602543746583887,-0.0016648821774698163,-0.008438155693848261,3.3699936866760254,2019-08-07 13:41:36:739,39.03518286967964,178.28590083181,0,-51.57899856567383,18.592430114746094,-22.190963745117188
-0.010271081700921059,0.2528664171695709,9.868066787719727,-0.0019259356825072562,0.0017980727412644285,-0.015097683883578876,3.3799855709075928,2019-08-07 13:41:36:749,41.85227770156082,178.29190600974457,0,-51.57899856567383,18.592430114746094,-22.190963745117188
-0.015060581266880035,0.2408926635980606,9.798619270324707,-0.0008604111071317767,-0.0027304066878267143,-0.00950367968405651,3.389986276626587,2019-08-07 13:41:36:759,44.61500409239131,178.29838512943468,0,-51.57899856567383,18.592430114746094,-22.190963745117188
-0.055771324783563614,0.2480769157409668,9.822566032409668,-0.002192316810096481,0.0004661670057904337,-0.010835585842151283,3.4000086784362793,2019-08-07 13:41:36:769,47.31593537382159,178.30471628566804,0,-51.57899856567383,18.592430114746094,-22.190963745117188
-0.05816607549786568,0.2025766670703888,9.805803298950195,-0.004589746958399502,0.004994646272335123,-0.011101966449591856,3.409996271133423,2019-08-07 13:41:36:779,49.960018395153625,178.3175259622091,0,-51.57899856567383,18.592430114746094,-22.190963745117188
-0.07253457605838776,0.2887876629829407,9.824960708618164,0.0010042569160299579,-0.0019312633050590406,-0.008438155693848261,3.419996738433838,2019-08-07 13:41:36:789,52.55344270112983,178.31693902340666,0,-51.57899856567383,18.592430114746094,-22.190963745117188
-0.08211357146501541,0.25765591859817505,9.743539810180664,0.001803400363816213,-0.0008657387296835611,-0.01536406553131675,3.4299986362457275,2019-08-07 13:41:36:799,55.09320308843051,178.31929217668173,0,-51.57899856567383,18.592430114746094,-22.190963745117188
-0.015060581266880035,0.24568216502666473,9.817776679992676,0.001803400363816213,-0.00246402556023749,-0.015630446138757324,3.440033435821533,2019-08-07 13:41:36:809,57.59096954215549,178.32322054655597,0,-51.57899856567383,18.592430114746094,-22.190963745117188
-0.05816607549786568,0.2887876629829407,9.836935043334961,-0.00032764881944403687,0.004461884017156674,-0.015630446138757324,3.450028419494629,2019-08-07 13:41:36:819,60.0298703138998,178.32330847880985,0,-51.57899856567383,18.592430114746094,-22.190963745117188
-0.055771324783563614,0.3007614016532898,9.848908424377441,0.0010042569160299579,0.00019978586194656375,-0.018027875766911696,3.4600210189819336,2019-08-07 13:41:36:829,62.42267191464442,178.32129626987526,0,-51.57899856567383,18.592430114746094,-22.190963745117188
-0.07253457605838776,0.23131366074085236,9.796224594116211,-0.00032764881944403687,-0.001132119922291367,-0.016429590041673648,3.4700140953063965,2019-08-07 13:41:36:839,64.7663691266121,178.32800125067627,0,-51.57899856567383,18.592430114746094,-22.190963745117188
-0.08211357146501541,0.2528664171695709,9.748329162597656,-0.00032764881944403687,-6.659528596096748e-05,-0.019892544180184917,3.480001449584961,2019-08-07 13:41:36:849,67.06142687214515,178.33190719714582,0,-51.57899856567383,18.292551040649414,-22.490842819213867
-0.05816607549786568,0.24328741431236267,9.832145690917969,-0.0011267922997395827,-0.0013985010498805918,-0.015097683883578876,3.4900224208831787,2019-08-07 13:41:36:859,69.31420618508277,178.33755422839158,0,-51.57899856567383,18.292551040649414,-22.490842819213867
-0.06535032391548157,0.2672349214553833,9.810592651367188,-0.0019259356825072562,0.0012653104860859794,-0.012700254255424506,3.5000059604644775,2019-08-07 13:41:36:869,71.51957970021007,178.34067640678455,0,-51.57899856567383,18.292551040649414,-22.490842819213867
-0.01745533011853695,0.2744191586971283,9.875250816345215,0.0012706381086377639,-6.659528596096748e-05,-0.013765778765781403,3.5099918842315674,2019-08-07 13:41:36:879,73.68719994738537,178.34131525153336,0,-51.57899856567383,18.292551040649414,-22.490842819213867
-0.010271081700921059,0.24328741431236267,9.827356338500977,0.001803400363816213,-0.0037959311981836125,-0.012700254255424506,3.519988775253296,2019-08-07 13:41:36:889,75.81438904038798,178.3451140003367,0,-51.57899856567383,18.292551040649414,-22.490842819213867
-0.012665831483900547,0.17144492268562317,9.793828964233398,0.003668068256940785,0.004461884017156674,-0.011634728704770307,3.529998779296875,2019-08-07 13:41:36:899,77.89411146133598,178.35609237901477,0,-51.57899856567383,18.292551040649414,-22.490842819213867
-0.022244829684495926,0.26484015583992004,9.81538200378418,0.0028689248741731116,-0.00246402556023749,-0.011101966449591856,3.5399892330169678,2019-08-07 13:41:36:909,79.93501444749224,178.35644940025801,0,-51.57899856567383,18.292551040649414,-22.490842819213867
-0.05337657779455185,0.23131366074085236,9.808197975158691,-0.00272507906527493,-0.0005993576020943366,-0.007639012311080588,3.5499985218048096,2019-08-07 13:41:36:919,81.93041495596765,178.36383203364844,0,-51.57899856567383,18.292551040649414,-22.490842819213867
-0.000692082685418427,0.2672349214553833,9.808197975158691,-0.0008604111071317767,0.002330834996442878,-0.00897091742887806,3.559988498687744,2019-08-07 13:41:36:929,83.89041835025483,178.36582404586557,0,-51.57899856567383,18.292551040649414,-22.490842819213867
-0.055771324783563614,0.2935771644115448,9.791434288024902,0.00047149462834221814,0.0004661670057904337,-0.005241581642628916,3.570127487182617,2019-08-07 13:41:36:939,85.80581760859833,178.36389137574469,0,-51.57899856567383,18.292551040649414,-22.490842819213867
-0.02463958039879799,0.23370841145515442,9.81538200378418,-0.002192316810096481,-0.001132119922291367,-0.004975200515039691,3.5799899101257324,2019-08-07 13:41:36:949,87.68745160566088,178.37054801355228,0,-51.57899856567383,18.292551040649414,-22.490842819213867
-0.005481582134962082,0.21933990716934204,9.841724395751953,0.0015370192362269886,0.002330834996442878,-0.0041760571322720175,3.590148448944092,2019-08-07 13:41:36:959,89.53173481909522,178.37672584620395,0,-51.57899856567383,18.292551040649414,-22.490842819213867
-0.055771324783563614,0.25765591859817505,9.822566032409668,0.004467211899782784,0.0007325481658889489,-0.007372630663342713,3.600001573562622,2019-08-07 13:41:36:969,91.33418854105334,178.37666819446613,0,-52.628570556640625,18.44249153137207,-21.441268920898438
0.020860664546489716,0.21215566992759705,9.772276878356934,0.001803400363816213,-0.0016648821774698163,-0.004975200515039691,3.6099939346313477,2019-08-07 13:41:36:979,85.91088504229457,178.38324913123117,0,-52.628570556640625,18.44249153137207,-21.441268920898438
-0.02463958039879799,0.21694517135620117,9.75790786743164,-0.0011267922997395827,-6.659528596096748e-05,-0.002844151494325895,3.6201298236846924,2019-08-07 13:41:36:989,87.78981171067768,178.3907527748501,0,-52.628570556640625,18.44249153137207,-21.441268920898438
-0.03182382881641388,0.20976091921329498,9.78664493560791,-0.0013931734273288073,0.00019978586194656375,-0.00257777036673667,3.6300113201141357,2019-08-07 13:41:36:999,89.63017839602577,178.39915362527807,0,-52.628570556640625,18.44249153137207,-21.441268920898438
-0.022244829684495926,0.18820816278457642,9.851303100585938,0.0010042569160299579,0.002064453868853653,-0.00257777036673667,3.6401500701904297,2019-08-07 13:41:37:009,91.43381201500577,178.40870889990083,0,-52.628570556640625,18.44249153137207,-21.441268920898438
-0.0629555732011795,0.23610316216945648,9.784250259399414,-0.002192316810096481,0.00019978586194656375,-0.0020450079815210586,3.6499879360198975,2019-08-07 13:41:37:019,93.19765226071094,178.41409909069168,0,-52.628570556640625,18.44249153137207,-21.441268920898438
0.008886916562914848,0.22652415931224823,9.808197975158691,-0.0016595545549180318,0.0017980727412644285,0.00035242226430983473,3.659984827041626,2019-08-07 13:41:37:029,87.73372819374775,178.42028799312314,0,-52.628570556640625,18.44249153137207,-21.441268920898438
-0.043797578662633896,0.2624454200267792,9.86567211151123,0.005799117537728906,-0.0013985010498805918,0.001950709062354473,3.6704752445220947,2019-08-07 13:41:37:040,89.57479026240715,178.417990026311,0,-52.628570556640625,18.44249153137207,-21.441268920898438
-0.05337657779455185,0.2792086601257324,9.81538200378418,-0.0008604111071317767,0.002597216124032102,0.003548996087964146,3.6799886226654053,2019-08-07 13:41:37:049,91.37567560004345,178.4175018733719,0,-52.628570556640625,18.44249153137207,-21.441268920898438
-0.05337657779455185,0.2025766670703888,9.772276878356934,-0.004056984703221053,0.005527408527513573,0.0038153772155533703,3.6900548934936523,2019-08-07 13:41:37:059,93.13877891185699,178.42769380398624,0,-52.628570556640625,18.44249153137207,-21.441268920898438
-0.03661332651972771,0.16665542125701904,9.860882759094238,0.00020511348449834825,-0.0037959311981836125,-0.00018034003963255039,3.7000999450683594,2019-08-07 13:41:37:069,94.87388959636893,178.4396593525717,0,-52.628570556640625,18.44249153137207,-21.441268920898438
-0.07732407003641129,0.2792086601257324,9.75790786743164,0.003135306001762336,-0.0016648821774698163,0.0014179468071760237,3.7099854946136475,2019-08-07 13:41:37:079,96.56825560648582,178.4363460427978,0,-52.628570556640625,18.44249153137207,-21.441268920898438
-0.05816607549786568,0.22412940859794617,9.75790786743164,-0.0005940299795425521,0.003662740634389001,0.001950709062354473,3.720008373260498,2019-08-07 13:41:37:089,98.22799853877524,178.4416375214302,0,-52.628570556640625,18.44249153137207,-21.441268920898438
-0.09408731758594513,0.2217346578836441,9.765092849731445,0.00020511348449834825,0.002064453868853653,0.0016843279347652483,3.7300024032592773,2019-08-07 13:41:37:099,99.8512394408878,178.4466739873302,0,-53.07838821411133,19.492063522338867,-21.591209411621094
-0.06535032391548157,0.21933990716934204,9.808197975158691,-0.0037906035756318283,-0.00246402556023749,0.006212807363856391,3.74001407623291,2019-08-07 13:41:37:109,101.44796489000122,178.45424966734836,0,-53.07838821411133,19.492063522338867,-21.591209411621094
-0.09169257432222366,0.2145504206418991,9.805803298950195,-6.126766340918298e-05,-0.004328693453362062,0.003548996087964146,3.75002121925354,2019-08-07 13:41:37:119,103.01072291383834,178.4601305319542,0,-53.07838821411133,19.492063522338867,-21.591209411621094
-0.06774507462978363,0.2600506544113159,9.784250259399414,-6.126766340918298e-05,-0.0019312633050590406,0.003016233572711371,3.7600324153900146,2019-08-07 13:41:37:129,104.5436600044334,178.46051281750943,0,-53.07838821411133,19.492063522338867,-21.591209411621094
-0.0892978236079216,0.2672349214553833,9.762697219848633,-0.0011267922997395827,-0.006726123861739408,-0.0007131023435749355,3.7700304985046387,2019-08-07 13:41:37:139,106.04608157621114,178.46057574392066,0,-53.07838821411133,19.492063522338867,-21.591209411621094
-0.13719281554222107,0.2408926635980606,9.777066230773926,-0.0008604111071317767,-0.001132119922291367,0.00035242226430983473,3.780036449432373,2019-08-07 13:41:37:149,107.5097174546389,178.46361965711287,0,-53.07838821411133,19.492063522338867,-21.591209411621094
-0.1946668028831482,0.19778716564178467,9.868066787719727,0.002602543746583887,-0.004062312325772837,0.0027498524451221467,3.7900190353393555,2019-08-07 13:41:37:159,108.9391976349893,178.4699237981078,0,-53.07838821411133,19.492063522338867,-21.591209411621094
-0.18987730145454407,0.23131366074085236,9.789039611816406,-0.008851844999827095,-0.003529550070594388,-0.00257777036673667,3.8000221252441406,2019-08-07 13:41:37:169,110.34017167641612,178.47842436705702,0,-53.07838821411133,19.492063522338867,-21.591209411621094
-0.18269306421279907,0.25765591859817505,9.791434288024902,-0.0032578413204533796,-0.004595074841025611,8.60411123386422e-05,3.8100154399871826,2019-08-07 13:41:37:179,111.71456810916911,178.48053678279996,0,-53.07838821411133,19.492063522338867,-21.591209411621094
-0.2521407902240753,0.3055509030818939,9.832145690917969,-0.0029914601928641544,-0.006726123861739408,-0.0004467211834764202,3.8200204372406006,2019-08-07 13:41:37:189,113.05467531226341,178.47700673929532,0,-53.07838821411133,19.492063522338867,-21.591209411621094
-0.24735130369663239,0.3055509030818939,9.841724395751953,-0.00272507906527493,0.001531691613675204,-0.004442438259861242,3.830014944076538,2019-08-07 13:41:37:199,114.36392808885745,178.4734306702936,0,-53.07838821411133,19.492063522338867,-21.591209411621094
-0.24256180226802826,0.2480769157409668,9.899198532104492,0.0020697814914054373,-0.005926980478971734,-0.0068398684081642635,3.8400158882141113,2019-08-07 13:41:37:209,115.6519048790479,178.4740887849822,0,-53.07838821411133,19.492063522338867,-21.591209411621094
-0.24256180226802826,0.3079456388950348,9.832145690917969,-0.0029914601928641544,-0.005394218223793286,-0.008704536821437486,3.8500142097473145,2019-08-07 13:41:37:219,116.91363079222695,178.4704077501656,0,-52.92844772338867,17.242979049682617,-21.441268920898438
-0.2641145586967468,0.3582353889942169,9.781855583190918,-0.00272507906527493,-0.0037959311981836125,-0.010302823586972834,3.86002516746521,2019-08-07 13:41:37:229,118.14655919439693,178.46058392526334,0,-52.92844772338867,17.242979049682617,-21.441268920898438
-0.3120095431804657,0.32231414318084717,9.851303100585938,-0.0013931734273288073,-0.004595074841025611,-0.010036441939234959,3.869980812072754,2019-08-07 13:41:37:239,119.34991549206036,178.45467243710863,0,-52.92844772338867,17.242979049682617,-21.441268920898438
-0.24735130369663239,0.29118239879608154,9.8034086227417,-0.0029914601928641544,0.0017980727412644285,-0.012433872607686629,3.8799970149993896,2019-08-07 13:41:37:249,120.5329992923256,178.45323524788674,0,-52.92844772338867,17.242979049682617,-21.441268920898438
-0.25693029165267944,0.2672349214553833,9.836935043334961,-0.005921652596345625,-0.0005993576020943366,-0.007372630663342713,3.8900206089019775,2019-08-07 13:41:37:259,121.69275334460158,178.45638054710608,0,-52.92844772338867,17.242979049682617,-21.441268920898438
-0.24256180226802826,0.2528664171695709,9.781855583190918,-0.0011267922997395827,0.00019978586194656375,-0.011368348097329731,3.9000134468078613,2019-08-07 13:41:37:269,122.83037659940287,178.45826921465968,0,-52.92844772338867,17.242979049682617,-21.441268920898438
-0.20424580574035645,0.25765591859817505,9.832145690917969,-0.0016595545549180318,0.004461884017156674,-0.009770061331794384,3.9100167751312256,2019-08-07 13:41:37:279,123.94746190233364,178.46001360200324,0,-52.92844772338867,17.242979049682617,-21.441268920898438
-0.3000358045101166,0.2480769157409668,9.896803855895996,0.0007378757884407334,0.002597216124032102,-0.008438155693848261,3.9200127124786377,2019-08-07 13:41:37:289,125.03232548583466,178.46168125521206,0,-52.92844772338867,17.242979049682617,-21.441268920898438
-0.1946668028831482,0.14510267972946167,9.889619827270508,-0.0029914601928641544,0.002064453868853653,-0.010036441939234959,3.930014133453369,2019-08-07 13:41:37:299,126.10796638829189,178.47731565007462,0,-52.92844772338867,17.242979049682617,-21.441268920898438
-0.14916656911373138,0.2863928973674774,9.820171356201172,-0.0019259356825072562,0.0033963595067997765,-0.004442438259861242,3.9400179386138916,2019-08-07 13:41:37:309,127.16649437832092,178.47544144739373,0,-52.92844772338867,17.242979049682617,-21.441268920898438
0.1405981481075287,0.41570937633514404,9.836935043334961,0.0012706381086377639,0.008191220323554469,0.01606890960480635,3.949984550476074,2019-08-07 13:41:37:319,121.03495780881329,178.45682388534564,0,-52.92844772338867,17.242979049682617,-21.441268920898438
3.5076162815093994,1.7400059700012207,7.700818061828613,0.18747106111774228,0.09316680418570632,-0.05132551827601072,3.9599971771240234,2019-08-07 13:41:37:329,115.45165175808735,178.12764525732882,0,-52.92844772338867,17.242979049682617,-21.441268920898438
2.7484805583953857,1.48855721950531,7.0326828956604,0.1986590674361924,0.09210128175594401,-0.06810753191487512,3.970000982284546,2019-08-07 13:41:37:339,109.91781074048316,177.81448321267737,0,-52.92844772338867,17.242979049682617,-21.441268920898438
2.6311378479003906,0.21933990716934204,8.301899909973145,0.019650937212665885,0.02337494563643757,-0.019093400277268593,3.980010986328125,2019-08-07 13:41:37:349,104.4580179018568,177.81687997485997,0,-53.378265380859375,17.093040466308594,-20.991453170776367
1.450526237487793,0.12115518003702164,9.173588752746582,-0.0016595545549180318,0.016715416926558306,-0.007106249535753488,3.9900059700012207,2019-08-07 13:41:37:359,98.93918074839561,177.84634056895965,0,-53.378265380859375,17.093040466308594,-20.991453170776367
0.107071653008461,0.24568216502666473,9.645355224609375,-0.004056984703221053,0.012186937237392836,-0.011634728704770307,4.000002384185791,2019-08-07 13:41:37:369,93.36627675447157,177.86250899382227,0,-53.378265380859375,17.093040466308594,-20.991453170776367
-0.04619232565164566,0.05649693310260773,10.138673782348633,-0.0402848222165448,-0.005127837096204061,-0.0009794834711641602,4.0099897384643555,2019-08-07 13:41:37:379,95.09660603691377,177.9214646272271,0,-53.378265380859375,17.093040466308594,-20.991453170776367
-0.12521906197071075,0.15947116911411285,10.021330833435059,-0.0061880337239348495,0.006326551910281247,-0.02468740551708826,4.019992351531982,2019-08-07 13:41:37:389,96.77680287778647,177.94827720132926,0,-53.378265380859375,17.093040466308594,-20.991453170776367
-0.13958756625652313,0.2744191586971283,9.690855026245117,0.015388839171238292,0.01058865047185749,-0.04333408340803668,4.029996633529663,2019-08-07 13:41:37:399,98.41881407675744,177.94822654210344,0,-53.378265380859375,17.093040466308594,-20.991453170776367
0.16215088963508606,0.21694517135620117,9.657328605651855,0.0028689248741731116,0.01564989241620141,-0.05319018876987854,4.039992809295654,2019-08-07 13:41:37:409,92.86089239266711,177.96191386194818,0,-53.378265380859375,17.093040466308594,-20.991453170776367
0.18370364606380463,0.19778716564178467,9.724381446838379,0.011126740089513398,0.012453318885130711,-0.0630462899705312,4.049998998641968,2019-08-07 13:41:37:419,87.41832265410015,177.97312015422258,0,-53.378265380859375,17.093040466308594,-20.991453170776367
0.107071653008461,0.27202439308166504,9.784250259399414,-0.0005940299795425521,-0.0027304066878267143,-0.06544372167928017,4.059991359710693,2019-08-07 13:41:37:429,82.08402770807119,177.9821401905856,0,-53.378265380859375,17.093040466308594,-20.991453170776367
-0.015060581266880035,0.14749743044376373,9.84411907196045,-0.013913086944171014,-0.004595074841025611,-0.06357905118541235,4.069994926452637,2019-08-07 13:41:37:439,84.04317506015997,178.01314403539135,0,-53.378265380859375,17.093040466308594,-20.991453170776367
-0.1874825656414032,0.0038124416023492813,9.863277435302734,-0.01204841957119509,-0.00033297644199582136,-0.07503344019189766,4.0800018310546875,2019-08-07 13:41:37:449,85.94071955179874,178.0592080675089,0,-53.378265380859375,17.093040466308594,-20.991453170776367
-0.20903530716896057,0.15947116911411285,9.86567211151123,-0.007519939882029623,0.004994646272335123,-0.07396791776213536,4.089991807937622,2019-08-07 13:41:37:459,87.79482728950816,178.08372085935136,0,-53.378265380859375,17.093040466308594,-20.991453170776367
-0.09887681901454926,0.17144492268562317,9.868066787719727,-0.009384607255005544,0.0052610273999243486,-0.07876278117963331,4.099986791610718,2019-08-07 13:41:37:469,89.62449661639414,178.1074064415819,0,-54.727718353271484,15.143834114074707,-21.14139175415039
0.06636090576648712,0.23370841145515442,9.880040168762207,-0.0013931734273288073,-0.00566059935138251,-0.075566205567968,4.109994173049927,2019-08-07 13:41:37:479,84.24288406277785,178.11894003266468,0,-54.727718353271484,15.143834114074707,-21.14139175415039
0.07354515790939331,0.21933990716934204,9.743539810180664,-0.0008604111071317767,0.0012653104860859794,-0.08036106066308754,4.119993686676025,2019-08-07 13:41:37:489,78.96596526070927,178.13125261594303,0,-54.727718353271484,15.143834114074707,-21.14139175415039
0.17412464320659637,0.1427079290151596,9.75790786743164,-0.005388890341167176,0.01005588821667904,-0.08222573115695538,4.129998207092285,2019-08-07 13:41:37:499,73.80144311593993,178.15489713824263,0,-54.727718353271484,15.143834114074707,-21.14139175415039
0.24117763340473175,0.13552367687225342,9.848908424377441,-0.008052702137208073,0.006060170782692022,-0.0808938260391579,4.139997243881226,2019-08-07 13:41:37:509,68.75006709437992,178.18055322402716,0,-54.727718353271484,15.143834114074707,-21.14139175415039
0.3178096413612366,0.23849791288375854,9.85609245300293,-6.126766340918298e-05,0.006859314685608345,-0.08648782919838297,4.149994373321533,2019-08-07 13:41:37:519,63.8081526053245,178.18925307436604,0,-54.727718353271484,15.143834114074707,-21.14139175415039
0.26751989126205444,0.2528664171695709,9.846513748168945,-0.005921652596345625,-0.0008657387296835611,-0.08622144651034779,4.1599977016448975,2019-08-07 13:41:37:529,58.96360154503699,178.1993725492867,0,-54.727718353271484,15.143834114074707,-21.14139175415039
0.33217811584472656,0.16665542125701904,9.729170799255371,-0.007253558754440398,0.00765845806837602,-0.08355763627475285,4.169994831085205,2019-08-07 13:41:37:539,54.21913975428899,178.21982979920205,0,-54.727718353271484,15.143834114074707,-21.14139175415039
0.44952085614204407,0.22652415931224823,9.822566032409668,-0.004056984703221053,0.01405160565066606,-0.08462315870451513,4.17999792098999,2019-08-07 13:41:37:549,49.57926979046268,178.23128992668796,0,-54.727718353271484,15.143834114074707,-21.14139175415039
0.5620741248130798,0.23610316216945648,10.006961822509766,-0.0024586979376857053,0.013785224002928184,-0.08382401896278802,4.190001010894775,2019-08-07 13:41:37:559,45.04423820032123,178.24101351840372,0,-54.727718353271484,15.143834114074707,-21.14139175415039
0.679416835308075,0.3151299059391022,9.887224197387695,0.0012706381086377639,0.0017980727412644285,-0.0819593484689202,4.199998140335083,2019-08-07 13:41:37:569,40.6209639892831,178.23896923146955,0,-54.727718353271484,15.143834114074707,-21.14139175415039
0.8039438128471375,0.20976091921329498,9.846513748168945,0.001803400363816213,0.008191220323554469,-0.07503344019189766,4.209991693496704,2019-08-07 13:41:37:579,36.29730245092349,178.24877007067872,0,-54.727718353271484,15.143834114074707,-21.14139175415039
0.981155276298523,0.1834186613559723,9.736355781555176,0.01299140850278662,0.0188464649069748,-0.06491095630320982,4.219988107681274,2019-08-07 13:41:37:589,32.075865992205806,178.25491781111313,0,-54.727718353271484,15.143834114074707,-21.14139175415039
1.1152613162994385,0.20018191635608673,9.659723281860352,0.008462928813621153,0.02044475271280745,-0.05079275706112957,4.229997396469116,2019-08-07 13:41:37:599,27.954576557621564,178.2613192960068,0,-54.42783737182617,13.344566345214844,-19.64200210571289
1.278104305267334,0.26484015583992004,9.707618713378906,0.011925883992429723,0.01964560880989113,-0.025486549420004584,4.239995002746582,2019-08-07 13:41:37:609,23.934465045149366,178.2581433945916,0,-54.42783737182617,13.344566345214844,-19.64200210571289
1.357131004333496,0.09241817891597748,9.975830078125,0.020716461723022786,0.022575801733521247,0.004614520598321043,4.2503132820129395,2019-08-07 13:41:37:620,19.997637369371166,178.27036233244777,0,-54.42783737182617,13.344566345214844,-19.64200210571289
1.6804221868515015,0.07565493136644363,10.045278549194336,0.015388839171238292,0.014317986258106635,0.04377254791438301,4.259995698928833,2019-08-07 13:41:37:629,16.179835948558114,178.28795851468848,0,-54.42783737182617,13.344566345214844,-19.64200210571289
1.0841295719146729,0.23610316216945648,9.992593765258789,0.03510104157254361,0.0052610273999243486,0.08186505592157457,4.269999265670776,2019-08-07 13:41:37:639,12.377123909558168,178.27541268219866,0,-54.42783737182617,13.344566345214844,-19.64200210571289
0.6315218210220337,-0.6164277195930481,10.267990112304688,0.026044084274807276,0.015383510768463532,0.11436355244716268,4.279999732971191,2019-08-07 13:41:37:649,8.591332862311537,171.16399136702313,0,-54.42783737182617,13.344566345214844,-19.64200210571289
1.108077049255371,-0.04408255219459534,9.743539810180664,0.007930166558442704,0.00019978586194656375,0.1457965348653669,4.290114641189575,2019-08-07 13:41:37:659,4.949153669759699,164.14139200935793,0,-54.42783737182617,13.344566345214844,-19.64200210571289
0.9404445290565491,0.4564201235771179,9.549565315246582,0.0404286662049227,0.02390770685131872,0.17962693650875244,4.299994945526123,2019-08-07 13:41:37:669,1.3493945874960374,164.38140801804389,0,-54.42783737182617,13.344566345214844,-19.64200210571289
0.9931290149688721,0.27681389451026917,9.781855583190918,0.02631046488224785,0.012453318885130711,0.19933913891005778,4.310052156448364,2019-08-07 13:41:37:679,-2.1686809819479667,164.64650276723634,0,-54.42783737182617,13.344566345214844,-19.64200210571289
5.152809143066406,2.393772602081299,9.75790786743164,-0.044014154881902044,-0.014184795954386346,0.35597126065787327,4.319992542266846,2019-08-07 13:41:37:689,-5.160650819855853,164.70247149126456,0,-54.42783737182617,13.344566345214844,-19.64200210571289
4.810359954833984,4.038965702056885,8.907772064208984,0.4322753199729829,0.08437622541481594,0.19880637353398742,4.3300392627716064,2019-08-07 13:41:37:699,-8.137639123184332,164.27675585244583,0,-54.42783737182617,13.344566345214844,-19.64200210571289
6.934503078460693,1.4071357250213623,4.712170600891113,0.2228997422445821,0.10462119319219162,0.09811430002317943,4.340050458908081,2019-08-07 13:41:37:709,-10.517638797844779,164.1333919895362,0,-54.42783737182617,13.344566345214844,-19.64200210571289
5.033071994781494,-0.7744812369346619,7.545159339904785,0.0886436497784237,0.040956101097623696,0.15272243482001102,4.350274562835693,2019-08-07 13:41:37:720,-13.25668505825926,157.3170486855472,0,-53.82808303833008,16.64322280883789,-21.741147994995117
2.1881091594696045,0.9066330790519714,8.96764087677002,0.03510104157254361,0.011920556629952265,0.22118238617088767,4.360141277313232,2019-08-07 13:41:37:729,-16.323910206083006,157.63580088632185,0,-53.82808303833008,16.64322280883789,-21.741147994995117
0.9332603216171265,0.17383967339992523,10.107542037963867,-0.025900238205834772,-0.005926980478971734,0.2025357145217231,4.3699915409088135,2019-08-07 13:41:37:739,-19.48864709585265,158.07770339038393,0,-53.82808303833008,16.64322280883789,-21.741147994995117
-0.10606107115745544,0.19299766421318054,9.781855583190918,-0.012581181826373541,-0.020844324664265612,0.17936055382071728,4.380383014678955,2019-08-07 13:41:37:750,-15.499136166205567,158.50088401327648,0,-53.82808303833008,16.64322280883789,-21.741147994995117
-1.2770936489105225,0.7246320843696594,9.915961265563965,0.00020511348449834825,-0.00965631626522088,0.1623121616550069,4.390035152435303,2019-08-07 13:41:37:759,-11.730696495665486,158.84716329441488,0,-53.82808303833008,16.64322280883789,-21.741147994995117
-1.1046717166900635,-0.06324055045843124,10.028514862060547,-0.020838996261490852,0.010855031079298064,0.1215558434122204,4.399998426437378,2019-08-07 13:41:37:769,-8.027874543229988,152.08910425522697,0,-53.82808303833008,16.64322280883789,-21.741147994995117
-1.0711451768875122,0.17862917482852936,10.282358169555664,-0.005921652596345625,0.017780940396617904,0.09971258782901206,4.410016059875488,2019-08-07 13:41:37:779,-4.3962631910077565,152.63074773858568,0,-53.82808303833008,16.64322280883789,-21.741147994995117
-1.0543819665908813,0.4300778806209564,10.105146408081055,0.005266355282550457,-0.027770235021882753,0.08186505592157457,4.420003890991211,2019-08-07 13:41:37:789,-0.8118989366166627,153.1264382555343,0,-53.82808303833008,16.64322280883789,-21.741147994995117
-1.3776731491088867,0.06847068667411804,9.789039611816406,-0.012847562433814115,-0.026171947216050102,0.04723550205289428,4.429987907409668,2019-08-07 13:41:37:799,2.6587914314147914,153.6630967267625,0,-53.82808303833008,16.64322280883789,-21.741147994995117
-1.5692530870437622,0.3917618989944458,9.501669883728027,-0.013646706336730438,-0.001132119922291367,0.030453490494624477,4.440014362335205,2019-08-07 13:41:37:809,6.01869179798801,154.15029734583754,0,-53.82808303833008,16.64322280883789,-21.741147994995117
-1.3154096603393555,0.21933990716934204,10.016541481018066,-0.05360387755570872,-0.005394218223793286,0.006212807363856391,4.450001955032349,2019-08-07 13:41:37:819,9.351713379311775,154.6722635743557,0,-53.82808303833008,16.64322280883789,-21.741147994995117
-1.2459619045257568,0.1690501719713211,10.234463691711426,-0.06319360022951541,-0.014451176561826921,-0.04493237121386933,4.459990978240967,2019-08-07 13:41:37:829,12.633961851838906,155.1953362639566,0,-53.82808303833008,16.64322280883789,-21.741147994995117
-1.164540410041809,0.9952388405799866,9.817776679992676,-0.005921652596345625,-0.016848607230278593,-0.0694394370326726,4.469995021820068,2019-08-07 13:41:37:839,15.8554557049565,155.5789886214264,0,-53.82808303833008,16.64322280883789,-21.741147994995117
-0.8077227473258972,0.6336315870285034,9.880040168762207,-0.008585464392386522,-0.02137708587914676,-0.10060602844046321,4.480008840560913,2019-08-07 13:41:37:849,19.056892242143967,155.99884632282576,0,-53.978023529052734,17.992673873901367,-18.89230728149414
-1.1094611883163452,0.37499865889549255,9.650144577026367,-0.035223580272200884,-0.012586509188851,-0.1376330140178925,4.490006685256958,2019-08-07 13:41:37:859,22.15165205010758,156.45413594751363,0,-53.978023529052734,17.992673873901367,-18.89230728149414
-0.8556177020072937,0.08523393422365189,9.820171356201172,-0.027498526011667416,0.02337494563643757,-0.18105314249627394,4.500006914138794,2019-08-07 13:41:37:869,25.195903198810985,156.93054827064165,0,-53.978023529052734,17.992673873901367,-18.89230728149414
-0.31440427899360657,-0.25242578983306885,9.808197975158691,-0.04081758343142595,-0.032831476966226666,-0.17945484636806291,4.510009527206421,2019-08-07 13:41:37:879,28.27370473977463,150.24434732108907,0,-53.978023529052734,17.992673873901367,-18.89230728149414
-0.5730372667312622,0.11157617717981339,9.889619827270508,-0.03389167307380881,-0.020844324664265612,-0.1909092353745482,4.520020008087158,2019-08-07 13:41:37:889,31.253622993861047,150.84558260482,0,-53.978023529052734,17.992673873901367,-18.89230728149414
-0.28327253460884094,0.001417691819369793,9.748329162597656,-0.0029914601928641544,0.006859314685608345,-0.2119533512160294,4.530020475387573,2019-08-07 13:41:37:899,34.191409554036625,151.4301840824446,0,-53.978023529052734,17.992673873901367,-18.89230728149414
-0.134798064827919,-0.3913212716579437,9.927935600280762,-0.02829766783398914,-0.022442610389503657,-0.21967839923477905,4.54023289680481,2019-08-07 13:41:37:909,37.10489265261655,144.8629512640723,0,-53.978023529052734,17.992673873901367,-18.89230728149414
