ACCELEROMETER X (m/s²),ACCELEROMETER Y (m/s²),ACCELEROMETER Z (m/s²),GYROSCOPE X (rad/s),GYROSCOPE Y (rad/s),GYROSCOPE Z (rad/s),Time since start in ms ,YYYY-MO-DD HH-MI-SS_SSS,Pitch (Deg),Roll (Deg),Heading (Deg),MagX,MagY,MagZ
0.2699146270751953,0.3199194073677063,9.801013946533203,0.0007378757884407334,-0.00033297644199582136,0.021396533196888144,0.0,2019-08-07 13:55:23:527,-3.56845007839793,3.5626089176426476,0,-18.592430114746094,17.093040466308594,-56.07716751098633
0.2842831313610077,0.3271036446094513,9.760302543640137,-0.0019259356825072562,0.0007325481658889489,0.019798245391055496,0.010001897811889648,2019-08-07 13:55:23:537,-7.064125440420527,7.054048876034156,0,-18.592430114746094,17.093040466308594,-56.07716751098633
0.24836188554763794,0.3318931460380554,9.73396110534668,0.0010042569160299579,-6.659528596096748e-05,0.025925011845756313,0.01999640464782715,2019-08-07 13:55:23:547,-10.493573880565789,10.473347840097995,0,-18.592430114746094,17.093040466308594,-56.07716751098633
0.2699146270751953,0.3199194073677063,9.777066230773926,0.005266355282550457,-0.001132119922291367,0.0187327208806986,0.029994964599609375,2019-08-07 13:55:23:557,-13.85143965065373,13.823441655839375,0,-18.592430114746094,17.093040466308594,-56.07716751098633
0.21723014116287231,0.3702091574668884,9.829751014709473,0.004200830512119234,-0.0037959311981836125,0.018999101488139172,0.03999900817871094,2019-08-07 13:55:23:567,-17.14695882993122,17.10147589813183,0,-18.592430114746094,17.093040466308594,-56.07716751098633
0.1334138959646225,0.3342879116535187,9.781855583190918,-0.0008604111071317767,-0.00566059935138251,0.015802528997365776,0.04998493194580078,2019-08-07 13:55:23:577,-20.385217632282767,20.3207832092609,0,-18.592430114746094,17.093040466308594,-56.07716751098633
0.1405981481075287,0.3726038932800293,9.772276878356934,0.0015370192362269886,-0.0027304066878267143,0.003016233572711371,0.06000709533691406,2019-08-07 13:55:23:587,-23.559491095898917,23.46983151860047,0,-18.592430114746094,17.093040466308594,-56.07716751098633
0.1453876495361328,0.3342879116535187,9.839329719543457,-0.0005940299795425521,-0.0027304066878267143,-0.0004467211834764202,0.06998324394226074,2019-08-07 13:55:23:597,-26.669840794854245,26.56185051277659,0,-18.592430114746094,17.093040466308594,-56.07716751098633
0.09988740086555481,0.36781439185142517,9.796224594116211,-0.0011267922997395827,-0.004328693453362062,-0.0017786268539318336,0.08001160621643066,2019-08-07 13:55:23:607,-29.722322583441112,29.588243018606416,0,-18.592430114746094,17.093040466308594,-56.07716751098633
0.09749265760183334,0.3869723975658417,9.791434288024902,-0.0029914601928641544,-0.0027304066878267143,-0.010835585842151283,0.08998823165893555,2019-08-07 13:55:23:617,-32.71493716772808,32.55288916053506,0,-18.592430114746094,17.093040466308594,-56.07716751098633
0.13820339739322662,0.34386688470840454,9.872856140136719,-0.0011267922997395827,0.0012653104860859794,-0.015630446138757324,0.09999561309814453,2019-08-07 13:55:23:627,-35.64530957367558,35.46256896873839,0,-18.592430114746094,17.093040466308594,-56.07716751098633
0.152571901679039,0.3318931460380554,9.736355781555176,-0.0008604111071317767,-0.0019312633050590406,-0.02468740551708826,0.1099998950958252,2019-08-07 13:55:23:637,-38.5133631110561,38.31475403520854,0,-18.592430114746094,17.093040466308594,-56.07716751098633
0.1334138959646225,0.3318931460380554,9.8034086227417,-0.0008604111071317767,-0.0027304066878267143,-0.029482266853991603,0.11997580528259277,2019-08-07 13:55:23:647,-41.32597270068967,41.110160895894275,0,-18.592430114746094,17.093040466308594,-56.07716751098633
0.10228215157985687,0.3247089087963104,9.834540367126465,0.00047149462834221814,-0.006459742734150184,-0.031879696482145975,0.12999677658081055,2019-08-07 13:55:23:657,-44.083901069273594,43.84987120337841,0,-18.592430114746094,17.093040466308594,-56.07716751098633
0.08551890403032303,0.3342879116535187,9.805803298950195,-0.0013931734273288073,-0.004328693453362062,-0.04093665586047691,0.13998079299926758,2019-08-07 13:55:23:667,-46.789802809417814,46.534604710686324,0,-18.592430114746094,17.093040466308594,-56.07716751098633
0.11665065586566925,0.3007614016532898,9.846513748168945,-0.0008604111071317767,-0.00033297644199582136,-0.04599789780482083,0.1499783992767334,2019-08-07 13:55:23:677,-49.44024492072439,49.16940455023165,0,-18.592430114746094,17.093040466308594,-56.07716751098633
0.152571901679039,0.3199194073677063,9.820171356201172,-0.004323365830810277,-0.0019312633050590406,-0.05319018876987854,0.15998148918151855,2019-08-07 13:55:23:687,-52.03255310580814,51.751126582740156,0,-18.592430114746094,17.093040466308594,-56.07716751098633
0.14299289882183075,0.2935771644115448,9.827356338500977,-0.005388890341167176,-0.002996787815415939,-0.05398933267279487,0.1699843406677246,2019-08-07 13:55:23:697,-54.57354640912715,54.284908479531545,0,-18.592430114746094,17.093040466308594,-56.07716751098633
0.1405981481075287,0.32231414318084717,9.820171356201172,-0.004056984703221053,-0.006992504989328633,-0.0630462899705312,0.17998576164245605,2019-08-07 13:55:23:707,-57.06174336691128,56.76389129122523,0,-18.592430114746094,17.093040466308594,-56.07716751098633
0.21723014116287231,0.2983666658401489,9.820171356201172,-0.004589746958399502,0.00019978586194656375,-0.06757477069999397,0.18997883796691895,2019-08-07 13:55:23:717,-59.495276154157544,59.19638312516175,0,-18.592430114746094,17.093040466308594,-56.07716751098633
0.18130889534950256,0.3055509030818939,9.801013946533203,-0.0013931734273288073,-0.003263168943005164,-0.059050574617138786,0.19997668266296387,2019-08-07 13:55:23:727,-61.88234289337714,61.57752470542124,0,-18.592430114746094,17.093040466308594,-56.07716751098633
0.1789141446352005,0.3606301546096802,9.848908424377441,-0.005122509213577951,-0.00246402556023749,-0.06517733899124499,0.20996737480163574,2019-08-07 13:55:23:737,-64.22249949403614,63.90690741434387,0,-18.592430114746094,17.093040466308594,-56.07716751098633
0.1980721354484558,0.32231414318084717,9.77467155456543,-0.0008604111071317767,-0.00246402556023749,-0.06677562679707764,0.21999669075012207,2019-08-07 13:55:23:747,-66.513444457221,66.19148158406945,0,-18.592430114746094,17.093040466308594,-56.07716751098633
0.21483539044857025,0.31752464175224304,9.808197975158691,-0.006987177626851173,-0.0021976444326482656,-0.05771866533815211,0.2299971580505371,2019-08-07 13:55:23:757,-68.75684580850537,68.43449120298467,0,-19.342124938964844,16.94310188293457,-57.72649383544922
0.25315138697624207,0.24568216502666473,9.767487525939941,-0.002192316810096481,0.0028635972516213265,-0.058784191929103606,0.23996305465698242,2019-08-07 13:55:23:767,-70.9536183981291,70.6382109605377,0,-19.342124938964844,16.94310188293457,-57.72649383544922
0.3106253743171692,0.2816033959388733,9.853697776794434,-0.004856128085988727,-0.0037959311981836125,-0.06384543387344753,0.24999403953552246,2019-08-07 13:55:23:777,-73.09629643320342,72.79544232062673,0,-19.342124938964844,16.94310188293457,-57.72649383544922
0.2914673686027527,0.34147214889526367,9.738750457763672,-6.126766340918298e-05,-0.00033297644199582136,-0.05984971435886591,0.2599923610687256,2019-08-07 13:55:23:787,-75.19989813134005,74.8994048101253,0,-19.342124938964844,16.94310188293457,-57.72649383544922
0.2770988941192627,0.29597190022468567,9.789039611816406,-0.008585464392386522,-0.00246402556023749,-0.04999361315821325,0.26999449729919434,2019-08-07 13:55:23:797,-77.26208748895782,76.97160223052947,0,-19.342124938964844,16.94310188293457,-57.72649383544922
0.2842831313610077,0.3271036446094513,9.688460350036621,-0.0016595545549180318,-0.002996787815415939,-0.044399609998988177,0.2800107002258301,2019-08-07 13:55:23:807,-79.2815459981853,78.9944296030178,0,-19.342124938964844,16.94310188293457,-57.72649383544922
0.2699146270751953,0.3462616503238678,9.74593448638916,-0.0016595545549180318,0.0004661670057904337,-0.04013751195756059,0.2899913787841797,2019-08-07 13:55:23:817,-81.26444818848537,80.97477512554357,0,-19.342124938964844,16.94310188293457,-57.72649383544922
0.3106253743171692,0.3797881305217743,9.81538200378418,-0.005122509213577951,-0.004062312325772837,-0.03241245769702712,0.29999470710754395,2019-08-07 13:55:23:827,-83.20062502711066,82.91383987659465,0,-19.342124938964844,16.94310188293457,-57.72649383544922
0.3417571187019348,0.3390774130821228,9.805803298950195,-0.0013931734273288073,-6.659528596096748e-05,-0.026285691242326308,0.3099968433380127,2019-08-07 13:55:23:837,-85.09665321946686,84.81673638121968,0,-19.342124938964844,16.94310188293457,-57.72649383544922
0.24836188554763794,0.3055509030818939,9.721986770629883,-0.0005940299795425521,0.0009989292934781736,-0.0158968277864952,0.3199901580810547,2019-08-07 13:55:23:847,-86.96601301081614,86.6847320149493,0,-19.342124938964844,16.94310188293457,-57.72649383544922
0.27470412850379944,0.3079456388950348,9.817776679992676,-0.00272507906527493,-0.0005993576020943366,-0.014298541020959853,0.32996368408203125,2019-08-07 13:55:23:857,-88.79430242881321,88.51663229736643,0,-19.342124938964844,16.94310188293457,-57.72649383544922
0.2770988941192627,0.34865638613700867,9.789039611816406,-0.0024586979376857053,0.0031299783792105513,-0.00018034003963255039,0.3399960994720459,2019-08-07 13:55:23:867,-90.58775071857431,90.30688783292776,0,-19.342124938964844,16.94310188293457,-57.72649383544922
0.2507566213607788,0.3199194073677063,9.81538200378418,0.001803400363816213,0.001531691613675204,0.004614520598321043,0.34999585151672363,2019-08-07 13:55:23:877,-92.34758702956299,92.06240110762577,0,-19.342124938964844,16.94310188293457,-57.72649383544922
0.26033562421798706,0.31034040451049805,9.77467155456543,-0.004056984703221053,0.003662740634389001,0.007811094129391739,0.3600008487701416,2019-08-07 13:55:23:887,-94.07218018730039,93.78706224769228,0,-19.342124938964844,16.94310188293457,-57.72649383544922
0.24836188554763794,0.3654196560382843,9.762697219848633,0.0015370192362269886,0.0033963595067997765,0.015003385094449453,0.3699667453765869,2019-08-07 13:55:23:897,-95.76349145781509,95.46758908226226,0,-19.342124938964844,16.94310188293457,-57.72649383544922
0.2579408884048462,0.3606301546096802,9.846513748168945,0.0007378757884407334,0.0012653104860859794,0.0187327208806986,0.3799891471862793,2019-08-07 13:55:23:907,-97.41892196150745,97.11587146369082,0,-19.342124938964844,16.94310188293457,-57.72649383544922
0.10946640372276306,0.3606301546096802,9.834540367126465,-0.0005940299795425521,0.0007325481658889489,0.028855204769386432,0.3899970054626465,2019-08-07 13:55:23:917,-99.0582007279113,98.73188622261182,0,-19.342124938964844,16.94310188293457,-57.72649383544922
0.09988740086555481,0.41570937633514404,9.808197975158691,0.0034016871293515603,0.006859314685608345,0.030986253790100227,0.40000057220458984,2019-08-07 13:55:23:927,-100.66921989873873,100.30679848943599,0,-19.342124938964844,16.94310188293457,-57.72649383544922
0.12144014984369278,0.38936713337898254,9.868066787719727,0.00047149462834221814,0.003662740634389001,0.03418282732117092,0.40999770164489746,2019-08-07 13:55:23:937,-102.24379017689185,101.85520657558689,0,-19.342124938964844,16.94310188293457,-57.72649383544922
0.11186115443706512,0.3797881305217743,9.853697776794434,0.003135306001762336,0.001531691613675204,0.03285092220337345,0.4200148582458496,2019-08-07 13:55:23:947,-103.78676778670436,103.37219412227742,0,-19.342124938964844,16.94310188293457,-57.72649383544922
0.061571408063173294,0.3845776319503784,9.767487525939941,-0.0013931734273288073,-0.0016648821774698163,0.034715590616646676,0.4299955368041992,2019-08-07 13:55:23:957,-105.30287598431521,104.86043587695451,0,-19.342124938964844,16.94310188293457,-57.72649383544922
0.054387159645557404,0.3869723975658417,9.767487525939941,0.0028689248741731116,-0.002996787815415939,0.034449207928611496,0.43999695777893066,2019-08-07 13:55:23:967,-106.78875493128162,106.31624040184843,0,-19.342124938964844,16.94310188293457,-57.72649383544922
0.03762391209602356,0.3510511517524719,9.748329162597656,-0.0013931734273288073,0.0004661670057904337,0.027523299651588957,0.4499959945678711,2019-08-07 13:55:23:977,-108.24881889261665,107.74944956303851,0,-19.342124938964844,16.94310188293457,-57.72649383544922
0.03762391209602356,0.3869723975658417,9.793828964233398,0.003135306001762336,-0.0019312633050590406,0.028322441473910682,0.4599950313568115,2019-08-07 13:55:23:987,-109.67835609698777,109.14744655511902,0,-19.342124938964844,16.94310188293457,-57.72649383544922
0.03043966367840767,0.3845776319503784,9.839329719543457,-0.0011267922997395827,-0.002996787815415939,0.026191392453196884,0.4699971675872803,2019-08-07 13:55:23:997,-111.07956084707743,110.52036426246988,0,-19.342124938964844,16.94310188293457,-57.72649383544922
0.018465915694832802,0.3773933947086334,9.810592651367188,0.004467211899782784,0.00019978586194656375,0.01793357697778227,0.4799683094024658,2019-08-07 13:55:24:007,-112.4559245972709,111.86339658211847,0,-18.44249153137207,16.94310188293457,-57.42661666870117
0.008886916562914848,0.36302489042282104,9.77467155456543,0.001803400363816213,0.005793789655102798,0.01606890960480635,0.48996949195861816,2019-08-07 13:55:24:017,-113.80901785405833,113.18257692171645,0,-18.44249153137207,16.94310188293457,-57.42661666870117
0.020860664546489716,0.32231414318084717,9.822566032409668,0.002336162618994662,-0.0016648821774698163,0.011806811563378757,0.49996256828308105,2019-08-07 13:55:24:027,-115.12946968174353,114.4800263649679,0,-18.44249153137207,16.94310188293457,-57.42661666870117
0.0352291613817215,0.33668264746665955,9.801013946533203,0.003135306001762336,-0.0075252672445070825,0.003016233572711371,0.5099649429321289,2019-08-07 13:55:24:037,-116.41853494974221,115.74931613869953,0,-18.44249153137207,16.94310188293457,-57.42661666870117
-0.010271081700921059,0.3055509030818939,9.762697219848633,-0.0005940299795425521,0.0004661670057904337,0.0008851845519975746,0.5199873447418213,2019-08-07 13:55:24:047,-110.49163217702248,116.99881118166773,0,-18.44249153137207,16.94310188293457,-57.42661666870117
0.008886916562914848,0.29597190022468567,9.791434288024902,-0.0019259356825072562,-6.659528596096748e-05,-0.005774343897807364,0.5300297737121582,2019-08-07 13:55:24:057,-111.88072192428932,118.22529318260268,0,-18.44249153137207,16.94310188293457,-57.42661666870117
0.04480816051363945,0.2983666658401489,9.777066230773926,-0.0019259356825072562,0.0012653104860859794,-0.007905393438669812,0.5399844646453857,2019-08-07 13:55:24:067,-113.2385630581718,119.4269047805252,0,-18.44249153137207,16.94310188293457,-57.42661666870117
0.08551890403032303,0.2935771644115448,9.875250816345215,0.003668068256940785,-0.003263168943005164,-0.010302823586972834,0.5499849319458008,2019-08-07 13:55:24:077,-114.56203615463475,120.60225056282148,0,-18.44249153137207,16.94310188293457,-57.42661666870117
0.10228215157985687,0.28399816155433655,9.839329719543457,0.002336162618994662,-0.007791648372096307,-0.01536406553131675,0.5600094795227051,2019-08-07 13:55:24:087,-115.8544980584125,121.75582454739974,0,-18.44249153137207,16.94310188293457,-57.42661666870117
0.05678191035985947,0.3007614016532898,9.810592651367188,0.0015370192362269886,-0.006193361606560959,-0.020425307475660667,0.5699539184570312,2019-08-07 13:55:24:097,-117.12731757970353,122.88473070873397,0,-18.44249153137207,16.94310188293457,-57.42661666870117
0.10946640372276306,0.28399816155433655,9.808197975158691,0.004200830512119234,-0.003529550070594388,-0.021224451378576994,0.5799858570098877,2019-08-07 13:55:24:107,-118.36999436601592,123.99149887357765,0,-18.44249153137207,16.94310188293457,-57.42661666870117
0.13101914525032043,0.2887876629829407,9.789039611816406,0.006331879792907356,-0.004328693453362062,-0.02974864746143218,0.5899643898010254,2019-08-07 13:55:24:117,-119.58483281347452,125.07432519173912,0,-18.44249153137207,16.94310188293457,-57.42661666870117
0.16933514177799225,0.2887876629829407,9.822566032409668,0.003668068256940785,-0.0008657387296835611,-0.02815035965559953,0.5999841690063477,2019-08-07 13:55:24:127,-120.7728961444124,126.13709429009214,0,-18.44249153137207,16.94310188293457,-57.42661666870117
0.23399338126182556,0.31752464175224304,9.755513191223145,0.004467211899782784,-0.006726123861739408,-0.02868312295107528,0.6099615097045898,2019-08-07 13:55:24:137,-121.92618968470137,127.17456539820165,0,-18.44249153137207,16.94310188293457,-57.42661666870117
0.23638813197612762,0.26962965726852417,9.78664493560791,0.006065498665318131,-0.0021976444326482656,-0.028416740263040103,0.6199896335601807,2019-08-07 13:55:24:147,-123.05875520514063,128.19609586378306,0,-18.44249153137207,16.94310188293457,-57.42661666870117
0.22201964259147644,0.30315616726875305,9.817776679992676,0.0007378757884407334,-0.00033297644199582136,-0.02815035965559953,0.6299729347229004,2019-08-07 13:55:24:157,-124.171484076867,129.19638764622005,0,-18.44249153137207,16.94310188293457,-57.42661666870117
0.25315138697624207,0.34386688470840454,9.810592651367188,0.001803400363816213,0.0017980727412644285,-0.02735121575268321,0.6399872303009033,2019-08-07 13:55:24:167,-125.25950294211366,130.1712972779136,0,-18.44249153137207,16.94310188293457,-57.42661666870117
0.26751989126205444,0.3462616503238678,9.872856140136719,0.0034016871293515603,-0.0005993576020943366,-0.02868312295107528,0.6499843597412109,2019-08-07 13:55:24:177,-126.32293373031231,131.12578865518842,0,-18.44249153137207,16.94310188293457,-57.42661666870117
0.24117763340473175,0.29118239879608154,9.868066787719727,-0.0029914601928641544,-0.0005993576020943366,-0.022556356496374465,0.6599829196929932,2019-08-07 13:55:24:187,-127.36813772130239,132.07114899672595,0,-18.44249153137207,16.94310188293457,-57.42661666870117
0.25554612278938293,0.2935771644115448,9.793828964233398,-0.0011267922997395827,-0.0005993576020943366,-0.026285691242326308,0.6699874401092529,2019-08-07 13:55:24:197,-128.39054518151173,132.99601962245714,0,-18.44249153137207,16.94310188293457,-57.42661666870117
0.32738861441612244,0.32231414318084717,9.789039611816406,0.006864642048085805,-0.001132119922291367,-0.02015892478762549,0.6799812316894531,2019-08-07 13:55:24:207,-129.38378880200364,133.8945303187634,0,-18.44249153137207,16.94310188293457,-57.42661666870117
0.29865163564682007,0.30315616726875305,9.796224594116211,0.004467211899782784,-0.00566059935138251,-0.019093400277268593,0.6899909973144531,2019-08-07 13:55:24:217,-130.35800747751966,134.77867848183223,0,-18.44249153137207,16.94310188293457,-57.42661666870117
0.30104637145996094,0.3271036446094513,9.817776679992676,0.004733593027372009,-0.0008657387296835611,-0.020958068690541815,0.699981689453125,2019-08-07 13:55:24:227,-131.31523501255515,135.642284570118,0,-18.44249153137207,16.94310188293457,-57.42661666870117
0.32499387860298157,0.3318931460380554,9.772276878356934,0.005266355282550457,-0.0037959311981836125,-0.013765778765781403,0.7099814414978027,2019-08-07 13:55:24:237,-132.24870360117305,136.4875784387253,0,-18.44249153137207,16.94310188293457,-57.42661666870117
0.31302013993263245,0.3606301546096802,9.812987327575684,0.004733593027372009,-0.001132119922291367,-0.012167492000246055,0.719987154006958,2019-08-07 13:55:24:247,-133.16655281817378,137.31307365603024,0,-18.44249153137207,16.94310188293457,-57.42661666870117
0.28667786717414856,0.34147214889526367,9.748329162597656,0.006864642048085805,-0.007258886116917857,-0.008171774566259036,0.7299635410308838,2019-08-07 13:55:24:257,-134.0654662724655,138.12284316925292,0,-18.89230728149414,16.793163299560547,-56.67692184448242
0.25315138697624207,0.3342879116535187,9.765092849731445,0.004999974154961233,-6.659528596096748e-05,-0.011901110352508182,0.7399964332580566,2019-08-07 13:55:24:267,-134.95441923591744,138.91835683738285,0,-18.89230728149414,16.793163299560547,-56.67692184448242
0.27949362993240356,0.34865638613700867,9.781855583190918,0.005266355282550457,-0.0019312633050590406,-0.0041760571322720175,0.7499909400939941,2019-08-07 13:55:24:277,-135.82151409481304,139.6962074876629,0,-18.89230728149414,16.793163299560547,-56.67692184448242
0.2507566213607788,0.34865638613700867,9.827356338500977,0.0028689248741731116,-0.0008657387296835611,-0.011368348097329731,0.7599844932556152,2019-08-07 13:55:24:287,-136.67536496665014,140.4600355626127,0,-18.89230728149414,16.793163299560547,-56.67692184448242
0.25315138697624207,0.38936713337898254,9.817776679992676,0.003135306001762336,-0.0019312633050590406,-0.008438155693848261,0.7699816226959229,2019-08-07 13:55:24:297,-137.51123268735836,141.2036523663557,0,-18.89230728149414,16.793163299560547,-56.67692184448242
0.22680914402008057,0.38936713337898254,9.789039611816406,0.0010042569160299579,0.0004661670057904337,-0.007905393438669812,0.779987096786499,2019-08-07 13:55:24:307,-138.3347241542852,141.93345939736312,0,-18.89230728149414,16.793163299560547,-56.67692184448242
0.23399338126182556,0.34386688470840454,9.789039611816406,-0.0029914601928641544,-0.0016648821774698163,-0.0068398684081642635,0.7899794578552246,2019-08-07 13:55:24:317,-139.1397092525493,142.65623174155877,0,-18.89230728149414,16.793163299560547,-56.67692184448242
0.2435723841190338,0.3797881305217743,9.74593448638916,0.002336162618994662,0.0012653104860859794,-0.004442438259861242,0.7999811172485352,2019-08-07 13:55:24:327,-139.9289926596572,143.35716267567798,0,-18.89230728149414,16.793163299560547,-56.67692184448242
0.2627303898334503,0.4109198749065399,9.789039611816406,0.0010042569160299579,-0.0037959311981836125,-0.007905393438669812,0.8099792003631592,2019-08-07 13:55:24:337,-140.69753368220782,144.04138113962222,0,-18.89230728149414,16.793163299560547,-56.67692184448242
0.18849314749240875,0.3726038932800293,9.824960708618164,0.0010042569160299579,-0.006992504989328633,-0.0068398684081642635,0.8199813365936279,2019-08-07 13:55:24:347,-141.45767404500717,144.71655237808676,0,-18.89230728149414,16.793163299560547,-56.67692184448242
0.16454564034938812,0.4037356376647949,9.753118515014648,0.0034016871293515603,0.0017980727412644285,-0.004708819387450467,0.8299925327301025,2019-08-07 13:55:24:357,-142.21020031050824,145.3729004184982,0,-18.89230728149414,16.793163299560547,-56.67692184448242
0.16215088963508606,0.3606301546096802,9.796224594116211,-0.004056984703221053,-6.659528596096748e-05,-0.008438155693848261,0.8399646282196045,2019-08-07 13:55:24:367,-142.94699311042083,146.0255482918329,0,-18.89230728149414,16.793163299560547,-56.67692184448242
0.15496665239334106,0.37499865889549255,9.772276878356934,0.00020511348449834825,-0.0019312633050590406,-0.005774343897807364,0.8499801158905029,2019-08-07 13:55:24:377,-143.6687970084874,146.660970492742,0,-18.89230728149414,16.793163299560547,-56.67692184448242
0.11904539912939072,0.3989461362361908,9.77467155456543,0.0020697814914054373,-0.0075252672445070825,-0.008438155693848261,0.8599879741668701,2019-08-07 13:55:24:387,-144.37723694271565,147.2798442195173,0,-18.89230728149414,16.793163299560547,-56.67692184448242
0.11904539912939072,0.4061304032802582,9.78664493560791,-0.0016595545549180318,-0.0037959311981836125,-0.013765778765781403,0.8699829578399658,2019-08-07 13:55:24:397,-145.0736235569113,147.88765227654383,0,-18.89230728149414,16.793163299560547,-56.67692184448242
0.1334138959646225,0.38936713337898254,9.791434288024902,-0.0029914601928641544,-0.004062312325772837,-0.010835585842151283,0.8799948692321777,2019-08-07 13:55:24:407,-145.75425459637523,148.48603633826548,0,-18.89230728149414,16.793163299560547,-56.67692184448242
0.10946640372276306,0.3989461362361908,9.832145690917969,0.001803400363816213,-0.0037959311981836125,-0.013765778765781403,0.8899731636047363,2019-08-07 13:55:24:417,-146.42428517204831,149.0688343738843,0,-18.89230728149414,16.793163299560547,-56.67692184448242
0.1334138959646225,0.3534458875656128,9.81538200378418,-0.0029914601928641544,-0.0019312633050590406,-0.018560639062387443,0.8999881744384766,2019-08-07 13:55:24:427,-147.07913873714625,149.64789401218874,0,-18.89230728149414,16.793163299560547,-56.67692184448242
0.12862439453601837,0.3654196560382843,9.784250259399414,0.002602543746583887,0.0017980727412644285,-0.014032159373221978,0.9099781513214111,2019-08-07 13:55:24:437,-147.72350115218103,150.21069879390976,0,-18.89230728149414,16.793163299560547,-56.67692184448242
0.11665065586566925,0.3534458875656128,9.84411907196045,-0.005122509213577951,0.0017980727412644285,-0.016429590041673648,0.919990062713623,2019-08-07 13:55:24:447,-148.35646373376883,150.76823893161267,0,-18.89230728149414,16.793163299560547,-56.67692184448242
0.13820339739322662,0.3869723975658417,9.808197975158691,-0.0019259356825072562,-0.001132119922291367,-0.021224451378576994,0.9299774169921875,2019-08-07 13:55:24:457,-148.97255400908276,151.30876670749015,0,-18.89230728149414,16.793163299560547,-56.67692184448242
0.15496665239334106,0.3726038932800293,9.805803298950195,0.002336162618994662,0.001531691613675204,-0.016429590041673648,0.9399690628051758,2019-08-07 13:55:24:467,-149.57585420875571,151.8377588068989,0,-18.89230728149414,16.793163299560547,-56.67692184448242
0.11186115443706512,0.3055509030818939,9.681276321411133,-6.126766340918298e-05,-0.0019312633050590406,-0.02069168808310124,0.9499611854553223,2019-08-07 13:55:24:477,-150.17001382101324,152.36488374792867,0,-18.89230728149414,16.793163299560547,-56.67692184448242
0.11186115443706512,0.3462616503238678,9.796224594116211,-6.126766340918298e-05,0.0017980727412644285,-0.017761495159471122,0.9599912166595459,2019-08-07 13:55:24:487,-150.7545417767841,152.87713339858584,0,-18.89230728149414,16.793163299560547,-56.67692184448242
0.1334138959646225,0.29118239879608154,9.796224594116211,-0.007253558754440398,-0.00246402556023749,-0.022556356496374465,0.9699983596801758,2019-08-07 13:55:24:497,-151.32246125002612,153.38961540203258,0,-18.89230728149414,16.793163299560547,-56.67692184448242
0.152571901679039,0.3007614016532898,9.726776123046875,-0.002192316810096481,-0.0019312633050590406,-0.01882701966982802,0.9799785614013672,2019-08-07 13:55:24:507,-151.87695668421821,153.88763009845422,0,-18.742368698120117,16.94310188293457,-57.72649383544922
0.13820339739322662,0.30315616726875305,9.772276878356934,-0.0032578413204533796,0.00019978586194656375,-0.018027875766911696,0.9899816513061523,2019-08-07 13:55:24:517,-152.42332485434724,154.37617006914766,0,-18.742368698120117,16.94310188293457,-57.72649383544922
0.11904539912939072,0.3127351403236389,9.762697219848633,-0.002192316810096481,-0.0013985010498805918,-0.0158968277864952,0.9999899864196777,2019-08-07 13:55:24:527,-152.96009995334887,154.85318332913633,0,-18.742368698120117,16.94310188293457,-57.72649383544922
0.09270315617322922,0.33668264746665955,9.769882202148438,-0.004589746958399502,0.0007325481658889489,-0.019626163572744344,1.0099756717681885,2019-08-07 13:55:24:537,-153.49043580545523,155.31921901324347,0,-18.742368698120117,16.94310188293457,-57.72649383544922
0.10946640372276306,0.3582353889942169,9.848908424377441,-0.0013931734273288073,-0.00246402556023749,-0.022556356496374465,1.0199954509735107,2019-08-07 13:55:24:547,-154.00650496866172,155.77195630268437,0,-18.742368698120117,16.94310188293457,-57.72649383544922
0.10467690229415894,0.3462616503238678,9.781855583190918,-0.005122509213577951,-0.0008657387296835611,-0.02228997588893389,1.0299713611602783,2019-08-07 13:55:24:557,-154.5136278062462,156.21883992640684,0,-18.742368698120117,16.94310188293457,-57.72649383544922
0.09749265760183334,0.3342879116535187,9.779460906982422,-6.126766340918298e-05,-0.0021976444326482656,-0.02228997588893389,1.039987564086914,2019-08-07 13:55:24:567,-155.01069588027005,156.65534239675983,0,-18.742368698120117,16.94310188293457,-57.72649383544922
0.13820339739322662,0.3247089087963104,9.793828964233398,-0.00272507906527493,-0.00246402556023749,-0.02415464222161251,1.049983263015747,2019-08-07 13:55:24:577,-155.49292975583333,157.08578674128614,0,-18.742368698120117,16.94310188293457,-57.72649383544922
0.07833465933799744,0.3606301546096802,9.762697219848633,-0.00032764881944403687,-0.00246402556023749,-0.02761759844071838,1.0599942207336426,2019-08-07 13:55:24:587,-155.97249161185775,157.50194475369852,0,-18.742368698120117,16.94310188293457,-57.72649383544922
0.1334138959646225,0.3534458875656128,9.808197975158691,-6.126766340918298e-05,-0.003529550070594388,-0.023621881006731363,1.0699777603149414,2019-08-07 13:55:24:597,-156.43547709597425,157.9106641227902,0,-18.742368698120117,16.94310188293457,-57.72649383544922
0.13580864667892456,0.3797881305217743,9.812987327575684,-0.008052702137208073,-0.0048614559686148365,-0.02761759844071838,1.0799691677093506,2019-08-07 13:55:24:607,-156.8881821010798,158.3126407467514,0,-18.742368698120117,16.94310188293457,-57.72649383544922
0.14299289882183075,0.3606301546096802,9.8034086227417,0.00020511348449834825,-0.0008657387296835611,-0.022023593200898715,1.0899989604949951,2019-08-07 13:55:24:617,-157.33321771557564,158.70413753628642,0,-18.742368698120117,16.94310188293457,-57.72649383544922
0.16933514177799225,0.3534458875656128,9.77467155456543,-0.0019259356825072562,-0.0048614559686148365,-0.026285691242326308,1.0999631881713867,2019-08-07 13:55:24:627,-157.76398371770335,159.08971479551812,0,-18.742368698120117,16.94310188293457,-57.72649383544922
0.14778240025043488,0.3606301546096802,9.719592094421387,-0.00032764881944403687,-0.00566059935138251,-0.023621881006731363,1.1099870204925537,2019-08-07 13:55:24:637,-158.18809621679796,159.46560701409135,0,-18.742368698120117,16.94310188293457,-57.72649383544922
0.15496665239334106,0.38218289613723755,9.748329162597656,-0.0016595545549180318,-0.0008657387296835611,-0.02468740551708826,1.119981050491333,2019-08-07 13:55:24:647,-158.60563368378322,159.83232357150393,0,-18.742368698120117,16.94310188293457,-57.72649383544922
0.15736140310764313,0.36781439185142517,9.769882202148438,-0.0029914601928641544,-0.0027304066878267143,-0.021490831986017565,1.129979133605957,2019-08-07 13:55:24:657,-159.01353276286238,160.19423566380868,0,-18.742368698120117,16.94310188293457,-57.72649383544922
0.11186115443706512,0.38218289613723755,9.789039611816406,0.00047149462834221814,-0.003263168943005164,-0.020958068690541815,1.1399881839752197,2019-08-07 13:55:24:667,-159.41833416631954,160.54536993371596,0,-18.742368698120117,16.94310188293457,-57.72649383544922
0.16215088963508606,0.3797881305217743,9.858488082885742,-0.008052702137208073,-0.001132119922291367,-0.01935978296530377,1.1499803066253662,2019-08-07 13:55:24:677,-159.8104861566419,160.8948571522217,0,-18.742368698120117,16.94310188293457,-57.72649383544922
0.25315138697624207,0.4061304032802582,9.789039611816406,0.002336162618994662,-0.0075252672445070825,-0.017228732904292672,1.1599924564361572,2019-08-07 13:55:24:687,-160.18041830010583,161.22813184751124,0,-18.742368698120117,16.94310188293457,-57.72649383544922
0.21004588901996613,0.42049887776374817,9.700433731079102,0.00047149462834221814,-0.001132119922291367,-0.02282273710381504,1.1699655055999756,2019-08-07 13:55:24:697,-160.5513670468864,161.55366258139426,0,-18.742368698120117,16.94310188293457,-57.72649383544922
0.1597561538219452,0.3917618989944458,9.832145690917969,0.00020511348449834825,-0.0016648821774698163,-0.022556356496374465,1.179985523223877,2019-08-07 13:55:24:707,-160.92078540517986,161.87683905542943,0,-18.742368698120117,16.94310188293457,-57.72649383544922
0.20286163687705994,0.36781439185142517,9.796224594116211,0.00047149462834221814,-0.0008657387296835611,-0.0158968277864952,1.189967393875122,2019-08-07 13:55:24:717,-161.27815807245403,162.1960330399745,0,-18.742368698120117,16.94310188293457,-57.72649383544922
0.16454564034938812,0.3606301546096802,9.74593448638916,-0.004856128085988727,-0.004595074841025611,-0.017228732904292672,1.1999943256378174,2019-08-07 13:55:24:727,-161.63066258784986,162.51246329681837,0,-18.742368698120117,16.94310188293457,-57.72649383544922
0.19088789820671082,0.36781439185142517,9.839329719543457,-0.004856128085988727,-0.00033297644199582136,-0.013499397118043528,1.209963083267212,2019-08-07 13:55:24:737,-161.97563440959718,162.8221154754037,0,-18.742368698120117,16.94310188293457,-57.72649383544922
0.2435723841190338,0.3462616503238678,9.781855583190918,-0.005122509213577951,0.0017980727412644285,-0.013499397118043528,1.2199766635894775,2019-08-07 13:55:24:747,-162.30860481509671,163.12800675066487,0,-18.742368698120117,16.94310188293457,-57.72649383544922
0.22201964259147644,0.3390774130821228,9.743539810180664,-0.0019259356825072562,-0.0027304066878267143,-0.006573487280575038,1.229987382888794,2019-08-07 13:55:24:757,-162.63479124750947,163.42666714710361,0,-18.89230728149414,17.39291763305664,-57.57655715942383
0.27230939269065857,0.33668264746665955,9.760302543640137,-0.0005940299795425521,-0.0048614559686148365,-0.009237299076615935,1.2399818897247314,2019-08-07 13:55:24:767,-162.94740482541107,163.7189543582422,0,-18.89230728149414,17.39291763305664,-57.57655715942383
0.2842831313610077,0.25765591859817505,9.820171356201172,-0.0024586979376857053,-0.0013985010498805918,0.0016843279347652483,1.2499630451202393,2019-08-07 13:55:24:777,-163.25450922168883,164.01589425755165,0,-18.89230728149414,17.39291763305664,-57.57655715942383
0.2962568700313568,0.3079456388950348,9.805803298950195,0.0012706381086377639,0.00019978586194656375,0.0032826149603749208,1.259967565536499,2019-08-07 13:55:24:787,-163.5549209332048,164.2988875887578,0,-18.89230728149414,17.39291763305664,-57.57655715942383
0.3154148757457733,0.2480769157409668,9.777066230773926,-0.0016595545549180318,0.003929121761978225,0.005946426236267168,1.2699646949768066,2019-08-07 13:55:24:797,-163.84907287015173,164.5847719279843,0,-18.89230728149414,17.39291763305664,-57.57655715942383
0.3034411370754242,0.2408926635980606,9.765092849731445,-0.003524222448042604,-0.0005993576020943366,0.013405098328914105,1.279968023300171,2019-08-07 13:55:24:807,-164.13615796033295,164.8667934176036,0,-18.89230728149414,17.39291763305664,-57.57655715942383
0.32738861441612244,0.2887876629829407,9.793828964233398,0.004733593027372009,-6.659528596096748e-05,0.015802528997365776,1.2899692058563232,2019-08-07 13:55:24:817,-164.415105937201,165.13301985134297,0,-18.89230728149414,17.39291763305664,-57.57655715942383
0.3106253743171692,0.30315616726875305,9.793828964233398,-0.00272507906527493,0.003662740634389001,0.026724155748672634,1.2999658584594727,2019-08-07 13:55:24:827,-164.692527571834,165.39642995683917,0,-18.89230728149414,17.39291763305664,-57.57655715942383
0.3369676172733307,0.29118239879608154,9.77467155456543,0.005799117537728906,0.004461884017156674,0.022462057707245044,1.3099498748779297,2019-08-07 13:55:24:837,-164.9616902186459,165.65112422650395,0,-18.89230728149414,17.39291763305664,-57.57655715942383
0.2914673686027527,0.3079456388950348,9.817776679992676,0.004467211899782784,0.005793789655102798,0.026990536356113207,1.3199567794799805,2019-08-07 13:55:24:847,-165.23170223779485,165.899660522057,0,-18.89230728149414,17.39291763305664,-57.57655715942383
0.2818883955478668,0.30315616726875305,9.784250259399414,0.004200830512119234,-0.0019312633050590406,0.026724155748672634,1.3300015926361084,2019-08-07 13:55:24:857,-165.4929737479559,166.14380417517168,0,-18.89230728149414,17.39291763305664,-57.57655715942383
0.25315138697624207,0.31034040451049805,9.714802742004395,-0.0008604111071317767,0.0031299783792105513,0.02406034343248309,1.3399608135223389,2019-08-07 13:55:24:867,-165.75501071175876,166.3848152906137,0,-18.89230728149414,17.39291763305664,-57.57655715942383
0.2699146270751953,0.3582353889942169,9.793828964233398,0.003668068256940785,0.0012653104860859794,0.02406034343248309,1.3499932289123535,2019-08-07 13:55:24:877,-166.00905021500088,166.61315645527816,0,-17.69279670715332,16.19340705871582,-58.17631149291992
0.21962489187717438,0.3199194073677063,9.750723838806152,0.001803400363816213,-6.659528596096748e-05,0.029654348672302752,1.359985113143921,2019-08-07 13:55:24:887,-166.26302565701724,166.8422977493065,0,-17.69279670715332,16.19340705871582,-58.17631149291992
0.2387828826904297,0.34865638613700867,9.73396110534668,0.004999974154961233,-0.0016648821774698163,0.022195675019209864,1.3699891567230225,2019-08-07 13:55:24:897,-166.5087252259996,167.06161568360983,0,-17.69279670715332,16.19340705871582,-58.17631149291992
0.15496665239334106,0.3390774130821228,9.868066787719727,0.003135306001762336,-0.0027304066878267143,0.01846634027325802,1.3800218105316162,2019-08-07 13:55:24:907,-166.75901878677098,167.2792577417082,0,-17.69279670715332,16.19340705871582,-58.17631149291992
0.12862439453601837,0.36302489042282104,9.812987327575684,0.005799117537728906,-0.003263168943005164,0.020863769901412393,1.389991283416748,2019-08-07 13:55:24:917,-167.00699243356078,167.4880532743844,0,-17.69279670715332,16.19340705871582,-58.17631149291992
0.14299289882183075,0.3510511517524719,9.812987327575684,0.004200830512119234,-0.0005993576020943366,0.01420424223183043,1.3999450206756592,2019-08-07 13:55:24:927,-167.2498207310785,167.69496769391938,0,-17.69279670715332,16.19340705871582,-58.17631149291992
0.07833465933799744,0.34386688470840454,9.808197975158691,0.006331879792907356,0.0007325481658889489,0.011540429915640882,1.4099881649017334,2019-08-07 13:55:24:937,-167.49608558197002,167.8973393036868,0,-17.69279670715332,16.19340705871582,-58.17631149291992
0.11425590515136719,0.32231414318084717,9.777066230773926,0.004200830512119234,0.0007325481658889489,0.005147282853499493,1.4199600219726562,2019-08-07 13:55:24:947,-167.73318334749746,168.09927742204795,0,-17.69279670715332,16.19340705871582,-58.17631149291992
0.10228215157985687,0.3199194073677063,9.812987327575684,0.004200830512119234,-0.0016648821774698163,0.007278331874213289,1.4299583435058594,2019-08-07 13:55:24:957,-167.96564140099903,168.29758801720135,0,-17.69279670715332,16.19340705871582,-58.17631149291992
0.10228215157985687,0.2887876629829407,9.829751014709473,0.002602543746583887,0.0004661670057904337,0.002483471317532922,1.439971923828125,2019-08-07 13:55:24:967,-168.19466744039983,168.49651684333634,0,-17.69279670715332,16.19340705871582,-58.17631149291992
0.07115040719509125,0.3606301546096802,9.779460906982422,0.0015370192362269886,-0.0021976444326482656,-0.0023113892391474454,1.449967622756958,2019-08-07 13:55:24:977,-168.4212036932998,168.68348587639622,0,-17.69279670715332,16.19340705871582,-58.17631149291992
0.13580864667892456,0.3462616503238678,9.765092849731445,0.0012706381086377639,0.001531691613675204,-0.005241581642628916,1.4599688053131104,2019-08-07 13:55:24:987,-168.63770389770494,168.8684864656951,0,-17.69279670715332,16.19340705871582,-58.17631149291992
0.20765113830566406,0.3534458875656128,9.8034086227417,0.004200830512119234,0.0041955028895674495,-0.009237299076615935,1.4699645042419434,2019-08-07 13:55:24:997,-168.84303596571337,169.0474627618215,0,-17.69279670715332,16.19340705871582,-58.17631149291992
0.19567739963531494,0.3318931460380554,9.789039611816406,0.008995691068799602,0.002597216124032102,-0.00950367968405651,1.479966163635254,2019-08-07 13:55:25:007,-169.04473066336308,169.22262470530433,0,-19.19218635559082,16.793163299560547,-57.876434326171875
0.21483539044857025,0.2792086601257324,9.743539810180664,0.0020697814914054373,-0.006193361606560959,-0.006573487280575038,1.4899711608886719,2019-08-07 13:55:25:017,-169.23509453904245,169.40418133815126,0,-19.19218635559082,16.793163299560547,-57.876434326171875
0.22201964259147644,0.3199194073677063,9.834540367126465,0.003668068256940785,-0.0005993576020943366,-0.00257777036673667,1.4999663829803467,2019-08-07 13:55:25:027,-169.4241910494046,169.57677537576086,0,-19.19218635559082,16.793163299560547,-57.876434326171875
0.18130889534950256,0.2983666658401489,9.741145133972168,0.006331879792907356,0.0004661670057904337,-0.008171774566259036,1.509965419769287,2019-08-07 13:55:25:037,-169.6146428484189,169.74659698657362,0,-19.19218635559082,16.793163299560547,-57.876434326171875
0.2699146270751953,0.2816033959388733,9.781855583190918,0.006331879792907356,0.0017980727412644285,-0.00018034003963255039,1.519967794418335,2019-08-07 13:55:25:047,-169.79174816385446,169.91512896059461,0,-19.19218635559082,16.793163299560547,-57.876434326171875
0.27230939269065857,0.2863928973674774,9.760302543640137,0.008729310461359028,-0.005394218223793286,-0.0033769137495043436,1.529973030090332,2019-08-07 13:55:25:057,-169.96092037287386,170.07830779277378,0,-19.19218635559082,16.793163299560547,-57.876434326171875
0.2890726327896118,0.3151299059391022,9.796224594116211,0.008196547686031928,0.002597216124032102,0.004614520598321043,1.539966106414795,2019-08-07 13:55:25:067,-170.12935476190637,170.2352927882912,0,-19.19218635559082,16.793163299560547,-57.876434326171875
0.2507566213607788,0.2816033959388733,9.805803298950195,0.006598260920496581,-0.0005993576020943366,0.007011950746624065,1.5499632358551025,2019-08-07 13:55:25:077,-170.29713395033073,170.3939836805719,0,-19.19218635559082,16.793163299560547,-57.876434326171875
0.19567739963531494,0.3606301546096802,9.81538200378418,0.002336162618994662,-0.0016648821774698163,0.008077475256980963,1.5599644184112549,2019-08-07 13:55:25:087,-170.46741462423785,170.54270857062522,0,-19.19218635559082,16.793163299560547,-57.876434326171875
0.1789141446352005,0.36302489042282104,9.836935043334961,0.0012706381086377639,-0.0005993576020943366,-0.0004467211834764202,1.5699715614318848,2019-08-07 13:55:25:097,-170.63688994135052,170.6888704341421,0,-19.19218635559082,16.793163299560547,-57.876434326171875
0.12144014984369278,0.38936713337898254,9.78664493560791,0.003135306001762336,-6.659528596096748e-05,0.003548996087964146,1.579972505569458,2019-08-07 13:55:25:107,-170.80989608151214,170.82776552989608,0,-19.19218635559082,16.793163299560547,-57.876434326171875
0.1453876495361328,0.4037356376647949,9.822566032409668,0.002602543746583887,-0.0013985010498805918,0.003548996087964146,1.589963674545288,2019-08-07 13:55:25:117,-170.97595368960498,170.96267626515404,0,-19.19218635559082,16.793163299560547,-57.876434326171875
0.10467690229415894,0.42049887776374817,9.834540367126465,0.004200830512119234,-0.0016648821774698163,-0.0017786268539318336,1.599963665008545,2019-08-07 13:55:25:127,-171.14330334932484,171.09209749380938,0,-19.19218635559082,16.793163299560547,-57.876434326171875
0.06875565648078918,0.46120962500572205,9.805803298950195,0.003668068256940785,-0.0016648821774698163,-0.003909676004682793,1.60996413230896,2019-08-07 13:55:25:137,-171.31146768920485,171.21433812448242,0,-19.19218635559082,16.793163299560547,-57.876434326171875
0.0352291613817215,0.4516306221485138,9.755513191223145,0.005266355282550457,-0.0027304066878267143,-0.011901110352508182,1.6199707984924316,2019-08-07 13:55:25:147,-171.47956607525865,171.3340801289683,0,-19.19218635559082,16.793163299560547,-57.876434326171875
0.01367641519755125,0.4396568834781647,9.762697219848633,0.0012706381086377639,0.0004661670057904337,-0.017228732904292672,1.629990577697754,2019-08-07 13:55:25:157,-171.6486317288116,171.45511291571705,0,-19.19218635559082,16.793163299560547,-57.876434326171875
0.02325541339814663,0.4564201235771179,9.812987327575684,-0.0005940299795425521,0.0012653104860859794,-0.01882701966982802,1.6404109001159668,2019-08-07 13:55:25:167,-171.8136837717198,171.57309796316486,0,-19.19218635559082,16.793163299560547,-57.876434326171875
-0.03900807723402977,0.48036763072013855,9.827356338500977,-0.0011267922997395827,0.0012653104860859794,-0.02522016673196941,1.6499605178833008,2019-08-07 13:55:25:177,-164.78263706796633,171.6862716416232,0,-19.19218635559082,16.793163299560547,-57.876434326171875
0.054387159645557404,0.4851571321487427,9.805803298950195,-0.008052702137208073,-6.659528596096748e-05,-0.02788397904815896,1.659982442855835,2019-08-07 13:55:25:187,-165.08059118092697,171.8004279699373,0,-19.19218635559082,16.793163299560547,-57.876434326171875
0.04480816051363945,0.47318339347839355,9.810592651367188,-0.0024586979376857053,-0.0016648821774698163,-0.034543506717740924,1.6699907779693604,2019-08-07 13:55:25:197,-165.37281001704338,171.910574244344,0,-19.19218635559082,16.793163299560547,-57.876434326171875
0.0352291613817215,0.4372621476650238,9.73396110534668,0.00047149462834221814,-0.0021976444326482656,-0.03694093634589529,1.679985761642456,2019-08-07 13:55:25:207,-165.65997318064885,172.0206567183073,0,-19.19218635559082,16.793163299560547,-57.876434326171875
0.11904539912939072,0.4324726462364197,9.810592651367188,-0.00911822664756497,0.0004661670057904337,-0.045198753901904504,1.6899874210357666,2019-08-07 13:55:25:217,-165.9331312268228,172.13488249145774,0,-19.19218635559082,16.793163299560547,-57.876434326171875
0.1405981481075287,0.3869723975658417,9.808197975158691,-0.004056984703221053,-0.003529550070594388,-0.040670273172441734,1.699981689453125,2019-08-07 13:55:25:227,-166.19606260251282,172.2492740391353,0,-19.19218635559082,16.793163299560547,-57.876434326171875
0.1717298924922943,0.37499865889549255,9.839329719543457,-0.007519939882029623,-0.01205374693367255,-0.044133227310953003,1.7099859714508057,2019-08-07 13:55:25:237,-166.44537218138532,172.36486054737676,0,-19.19218635559082,16.793163299560547,-57.876434326171875
0.16454564034938812,0.33668264746665955,9.801013946533203,-0.004856128085988727,0.002064453868853653,-0.04200217829023921,1.7199950218200684,2019-08-07 13:55:25:247,-166.6983884241437,172.48094370264846,0,-19.19218635559082,16.793163299560547,-57.876434326171875
0.2124406397342682,0.31752464175224304,9.767487525939941,-0.009917369510183993,0.0033963595067997765,-0.03720731903393047,1.7299880981445312,2019-08-07 13:55:25:257,-166.94140691108578,172.59965088229396,0,-17.542856216430664,16.64322280883789,-58.32625198364258
0.21962489187717438,0.36781439185142517,9.784250259399414,-0.015244993102265786,-0.00033297644199582136,-0.035875413916133,1.7399892807006836,2019-08-07 13:55:25:267,-167.1766739910508,172.71316136747453,0,-17.542856216430664,16.64322280883789,-58.32625198364258
0.3034411370754242,0.3606301546096802,9.824960708618164,-0.015244993102265786,-0.0021976444326482656,-0.028949503558515853,1.7499866485595703,2019-08-07 13:55:25:277,-167.39652682866128,172.8254133927089,0,-17.542856216430664,16.64322280883789,-58.32625198364258
0.3297833800315857,0.40134090185165405,9.78664493560791,-0.011515657316016642,-0.003263168943005164,-0.023621881006731363,1.759986400604248,2019-08-07 13:55:25:287,-167.60816443207707,172.92840441028864,0,-17.542856216430664,16.64322280883789,-58.32625198364258
0.41120487451553345,0.3989461362361908,9.647749900817871,-0.0056552714687564,0.002597216124032102,-0.019892544180184917,1.7699904441833496,2019-08-07 13:55:25:297,-167.80864857593124,173.025655017179,0,-17.542856216430664,16.64322280883789,-58.32625198364258
0.43754711747169495,0.4109198749065399,9.563933372497559,-0.0019259356825072562,0.001531691613675204,-0.010835585842151283,1.7799899578094482,2019-08-07 13:55:25:307,-168.00094683681994,173.11701861790482,0,-17.542856216430664,16.64322280883789,-58.32625198364258
0.3872573673725128,0.2744191586971283,9.652539253234863,-0.007786321009618847,0.00765845806837602,-0.007372630663342713,1.7899889945983887,2019-08-07 13:55:25:317,-168.19927850646482,173.22648052629629,0,-17.542856216430664,16.64322280883789,-58.32625198364258
0.35852035880088806,0.2552611529827118,9.755513191223145,-0.006987177626851173,-0.00033297644199582136,0.003016233572711371,1.7999868392944336,2019-08-07 13:55:25:327,-168.39301194026189,173.33589636213804,0,-17.542856216430664,16.64322280883789,-58.32625198364258
0.27949362993240356,0.26484015583992004,9.839329719543457,-0.008851844999827095,-0.003529550070594388,0.0048809017259102685,1.8099884986877441,2019-08-07 13:55:25:337,-168.59062768345083,173.44331298609595,0,-17.542856216430664,16.64322280883789,-58.32625198364258
0.2244143933057785,0.2863928973674774,9.86567211151123,-0.012581181826373541,0.0033963595067997765,0.012605954425997783,1.8199892044067383,2019-08-07 13:55:25:347,-168.79466067387665,173.5482558297731,0,-17.542856216430664,16.64322280883789,-58.32625198364258
0.1789141446352005,0.3342879116535187,9.762697219848633,-0.009384607255005544,0.0007325481658889489,0.014737004487008877,1.829986572265625,2019-08-07 13:55:25:357,-168.99818063147413,173.6433364002596,0,-17.542856216430664,16.64322280883789,-58.32625198364258
0.13580864667892456,0.3654196560382843,9.700433731079102,-0.013380324688992563,0.001531691613675204,0.01926548417617435,1.8399884700775146,2019-08-07 13:55:25:367,-169.20303515050495,173.73483738348506,0,-17.542856216430664,16.64322280883789,-58.32625198364258
0.09988740086555481,0.3773933947086334,9.662117958068848,-0.006454414851524075,0.006326551910281247,0.0187327208806986,1.8499901294708252,2019-08-07 13:55:25:377,-169.4106812834383,173.81902971931322,0,-17.542856216430664,16.64322280883789,-58.32625198364258
0.04480816051363945,0.3151299059391022,9.769882202148438,0.0020697814914054373,0.0004661670057904337,0.017667196370341698,1.8599913120269775,2019-08-07 13:55:25:387,-169.61747390055743,173.9045378347167,0,-17.542856216430664,16.64322280883789,-58.32625198364258
0.004097416531294584,0.2672349214553833,9.74593448638916,0.001803400363816213,-0.00246402556023749,0.020863769901412393,1.8699898719787598,2019-08-07 13:55:25:397,-169.82325930536447,173.99402131841885,0,-17.542856216430664,16.64322280883789,-58.32625198364258
-0.029429078102111816,0.24568216502666473,9.798619270324707,0.003668068256940785,-0.00246402556023749,0.021662913804328717,1.8799855709075928,2019-08-07 13:55:25:407,-162.82885278875546,174.08335647769212,0,-17.542856216430664,16.64322280883789,-58.32625198364258
0.01607116498053074,0.3007614016532898,9.836935043334961,-0.0005940299795425521,0.0031299783792105513,0.021662913804328717,1.8899884223937988,2019-08-07 13:55:25:417,-163.17216156636525,174.16699786870265,0,-17.542856216430664,16.64322280883789,-58.32625198364258
-0.005481582134962082,0.2025766670703888,9.839329719543457,-0.004323365830810277,0.002064453868853653,0.025658631238315736,1.8999896049499512,2019-08-07 13:55:25:427,-156.31051606032779,174.26249645539949,0,-17.542856216430664,16.64322280883789,-58.32625198364258
0.028044912964105606,0.2935771644115448,9.791434288024902,-0.0056552714687564,0.002330834996442878,0.025658631238315736,1.909989356994629,2019-08-07 13:55:25:437,-156.78233231131648,174.34607410880926,0,-17.542856216430664,16.64322280883789,-58.32625198364258
0.02325541339814663,0.44205164909362793,9.793828964233398,0.005799117537728906,-0.00033297644199582136,0.025125867942839983,1.9199883937835693,2019-08-07 13:55:25:447,-157.24377774974158,174.40421008378715,0,-17.542856216430664,16.64322280883789,-58.32625198364258
0.028044912964105606,0.3726038932800293,9.736355781555176,-0.003524222448042604,-0.003529550070594388,0.025125867942839983,1.9299890995025635,2019-08-07 13:55:25:457,-157.69361949425624,174.4742728260851,0,-17.542856216430664,16.64322280883789,-58.32625198364258
0.011281665414571762,0.3534458875656128,9.772276878356934,0.0034016871293515603,-0.0027304066878267143,0.025658631238315736,1.9399871826171875,2019-08-07 13:55:25:467,-158.13689136986795,174.54145002071036,0,-17.542856216430664,16.64322280883789,-58.32625198364258
0.04480816051363945,0.3151299059391022,9.781855583190918,0.008729310461359028,-0.00246402556023749,0.024326726120518262,1.9499914646148682,2019-08-07 13:55:25:477,-158.56752029563256,174.60881364797814,0,-17.542856216430664,16.64322280883789,-58.32625198364258
0.11904539912939072,0.2025766670703888,9.836935043334961,0.01059397783433495,-0.0048614559686148365,0.027523299651588957,1.959989070892334,2019-08-07 13:55:25:487,-158.97957378717305,174.6870952468616,0,-17.542856216430664,16.64322280883789,-58.32625198364258
0.11665065586566925,0.16665542125701904,9.85609245300293,0.0100612155791565,-0.008324410627274756,0.022728438314685614,1.9699888229370117,2019-08-07 13:55:25:497,-159.38174656227727,174.76832982759444,0,-17.542856216430664,16.64322280883789,-58.32625198364258
0.025650164112448692,0.08044443279504776,9.779460906982422,0.004999974154961233,-0.003529550070594388,0.032584541595932874,1.9799854755401611,2019-08-07 13:55:25:507,-159.78912488674396,174.8607307686098,0,-17.992673873901367,16.493284225463867,-56.67692184448242
0.09988740086555481,0.0780496820807457,9.90638256072998,0.004999974154961233,0.007924839195965244,0.03711301816420644,1.989987850189209,2019-08-07 13:55:25:517,-160.1862392011186,174.95167983877133,0,-17.992673873901367,16.493284225463867,-56.67692184448242
0.06636090576648712,0.2289189100265503,9.85609245300293,0.007397404303264255,-0.002996787815415939,0.04723550205289428,1.999990701675415,2019-08-07 13:55:25:527,-160.57311593106513,175.02188102205375,0,-17.992673873901367,16.493284225463867,-56.67692184448242
-0.010271081700921059,0.3702091574668884,9.892014503479004,0.001803400363816213,-0.009389935657780304,0.0491001725467621,2.009986162185669,2019-08-07 13:55:25:537,-153.75757339701718,175.0775653095521,0,-17.992673873901367,16.493284225463867,-56.67692184448242
0.028044912964105606,0.27681389451026917,9.801013946533203,0.007663785430853478,0.0012653104860859794,0.04590359693509681,2.0199873447418213,2019-08-07 13:55:25:547,-154.27985353518912,175.1393543458516,0,-17.992673873901367,16.493284225463867,-56.67692184448242
0.02325541339814663,0.4037356376647949,9.707618713378906,0.011126740089513398,0.0028635972516213265,0.05442779301795199,2.029986619949341,2019-08-07 13:55:25:557,-154.79311912241863,175.18268938110725,0,-17.992673873901367,16.493284225463867,-56.67692184448242
0.004097416531294584,0.6168683767318726,9.868066787719727,0.015388839171238292,0.01165417498221439,0.05469417570598716,2.039987564086914,2019-08-07 13:55:25:567,-155.303325354396,175.19885406792366,0,-17.992673873901367,16.493284225463867,-56.67692184448242
0.12862439453601837,0.3869723975658417,10.011751174926758,0.014856075875762542,0.0031299783792105513,0.05496055839402235,2.0499892234802246,2019-08-07 13:55:25:577,-155.78429545758343,175.2422642505901,0,-17.992673873901367,16.493284225463867,-56.67692184448242
0.049597661942243576,0.6432105898857117,9.839329719543457,0.008196547686031928,-0.014184795954386346,0.049899316449678426,2.060006618499756,2019-08-07 13:55:25:587,-156.25485471796532,175.2580049572597,0,-17.992673873901367,16.493284225463867,-56.67692184448242
-0.06056082621216774,0.5833418965339661,9.765092849731445,0.01352417075796507,0.002330834996442878,0.04750188474092945,2.0699894428253174,2019-08-07 13:55:25:597,-149.53817074626875,175.27689125826458,0,-17.992673873901367,16.493284225463867,-56.67692184448242
0.03043966367840767,0.4779728949069977,9.750723838806152,0.010860359482072824,0.011387794374773814,0.045104453032180476,2.0799875259399414,2019-08-07 13:55:25:607,-150.15022304617727,175.3091295611966,0,-17.992673873901367,16.493284225463867,-56.67692184448242
0.08791365474462509,0.42049887776374817,9.86567211151123,0.010860359482072824,0.008457601451143694,0.04137512036682324,2.0899899005889893,2019-08-07 13:55:25:617,-150.74175758554702,175.3480352868187,0,-17.992673873901367,16.493284225463867,-56.67692184448242
0.152571901679039,0.25047165155410767,9.920751571655273,0.005266355282550457,-0.009389935657780304,0.03604749573444414,2.0999910831451416,2019-08-07 13:55:25:627,-151.3040276509568,175.4091921125093,0,-19.19218635559082,16.19340705871582,-56.976802825927734
0.1334138959646225,0.35584065318107605,9.688460350036621,0.004200830512119234,-0.006726123861739408,0.03524835183152782,2.1099863052368164,2019-08-07 13:55:25:637,-151.8583934835412,175.45658201763592,0,-19.19218635559082,16.19340705871582,-56.976802825927734
0.1860983967781067,0.2528664171695709,9.700433731079102,0.006598260920496581,-6.659528596096748e-05,0.029121585376827002,2.1199893951416016,2019-08-07 13:55:25:647,-152.3992070376397,175.51387988392437,0,-19.19218635559082,16.19340705871582,-56.976802825927734
0.1860983967781067,0.20976091921329498,9.664512634277344,-0.004589746958399502,0.009256744313762716,0.020863769901412393,2.129990339279175,2019-08-07 13:55:25:657,-152.93435818588924,175.58131234146086,0,-19.19218635559082,16.19340705871582,-56.976802825927734
0.3106253743171692,0.13312892615795135,9.834540367126465,-0.0011267922997395827,-0.005394218223793286,0.012339573818557208,2.13999342918396,2019-08-07 13:55:25:667,-153.43645935982798,175.65480781581235,0,-19.19218635559082,16.19340705871582,-56.976802825927734
0.2315986305475235,0.42049887776374817,9.686065673828125,0.0015370192362269886,-0.010988222423315652,0.001950709062354473,2.1499905586242676,2019-08-07 13:55:25:677,-153.9341678818595,175.69113272771162,0,-19.19218635559082,16.19340705871582,-56.976802825927734
0.23399338126182556,0.21933990716934204,9.753118515014648,0.0020697814914054373,-0.006193361606560959,-0.00257777036673667,2.159987688064575,2019-08-07 13:55:25:687,-154.42452082852483,175.75038183698177,0,-19.19218635559082,16.19340705871582,-56.976802825927734
0.27949362993240356,0.3534458875656128,9.621407508850098,-0.004323365830810277,0.008723982578732917,-0.007106249535753488,2.169989824295044,2019-08-07 13:55:25:697,-154.90765145700672,175.7957255793658,0,-19.19218635559082,16.19340705871582,-56.976802825927734
0.37767836451530457,0.34386688470840454,9.942303657531738,-0.00032764881944403687,0.0028635972516213265,-0.0015122457263426093,2.17999005317688,2019-08-07 13:55:25:707,-155.36759738636147,175.84037792827954,0,-19.19218635559082,16.19340705871582,-56.976802825927734
0.30583587288856506,0.37499865889549255,9.939908981323242,0.0028689248741731116,-0.008324410627274756,-0.005507962770218141,2.1899900436401367,2019-08-07 13:55:25:717,-155.82032433893423,175.87874850347833,0,-19.19218635559082,16.19340705871582,-56.976802825927734
0.37288886308670044,0.14749743044376373,9.908777236938477,-0.0011267922997395827,-0.012320127541113125,0.00061880342440835,2.2000179290771484,2019-08-07 13:55:25:727,-156.25387786760433,175.9447516854193,0,-19.19218635559082,16.19340705871582,-56.976802825927734
0.35852035880088806,0.27681389451026917,9.693249702453613,0.0034016871293515603,-0.00566059935138251,0.001950709062354473,2.209988832473755,2019-08-07 13:55:25:737,-156.68326692802196,175.9912367017427,0,-19.19218635559082,16.19340705871582,-56.976802825927734
0.3489413857460022,0.3462616503238678,9.851303100585938,0.007663785430853478,0.0071256958131975705,0.003548996087964146,2.21998929977417,2019-08-07 13:55:25:747,-157.113030519567,176.02684755864877,0,-19.19218635559082,16.19340705871582,-56.976802825927734
0.4806526005268097,0.2217346578836441,9.834540367126465,-0.0016595545549180318,-0.003529550070594388,0.00674556961903484,2.2299888134002686,2019-08-07 13:55:25:757,-157.51282730279345,176.0814103679823,0,-18.14261245727539,16.043468475341797,-55.32747268676758
0.43036285042762756,0.27681389451026917,9.736355781555176,0.005799117537728906,-0.009389935657780304,0.012605954425997783,2.2399890422821045,2019-08-07 13:55:25:767,-157.90667980526126,176.1239551886905,0,-18.14261245727539,16.043468475341797,-55.32747268676758
0.3872573673725128,0.2217346578836441,9.767487525939941,0.003135306001762336,0.00019978586194656375,0.009942143150105534,2.2499840259552,2019-08-07 13:55:25:777,-158.30324932107433,176.1737071925106,0,-18.14261245727539,16.043468475341797,-55.32747268676758
0.4351523518562317,0.21694517135620117,9.808197975158691,0.003668068256940785,0.004461884017156674,0.017134434115163247,2.25998592376709,2019-08-07 13:55:25:787,-158.68888356353284,176.22283094343905,0,-18.14261245727539,16.043468475341797,-55.32747268676758
0.4782578647136688,0.23610316216945648,9.822566032409668,0.0071310231756750294,-0.0013985010498805918,0.029654348672302752,2.2699930667877197,2019-08-07 13:55:25:797,-159.05856980794678,176.2668285511894,0,-18.14261245727539,16.043468475341797,-55.32747268676758
0.5189685821533203,0.18820816278457642,9.829751014709473,0.011659502344691848,-0.003529550070594388,0.028056060866470108,2.2799909114837646,2019-08-07 13:55:25:807,-159.41497370396647,176.31300867370632,0,-18.14261245727539,16.043468475341797,-55.32747268676758
0.4423366189002991,0.1762344241142273,9.748329162597656,0.0071310231756750294,0.0033963595067997765,0.025125867942839983,2.2899868488311768,2019-08-07 13:55:25:817,-159.7766195017361,176.3620319761297,0,-18.14261245727539,16.043468475341797,-55.32747268676758
0.4782578647136688,0.1690501719713211,9.772276878356934,0.004467211899782784,0.003929121761978225,0.030187109887183903,2.299989938735962,2019-08-07 13:55:25:827,-160.12725728226297,176.412461063655,0,-18.14261245727539,16.043468475341797,-55.32747268676758
0.46867886185646057,0.23370841145515442,9.853697776794434,0.010327597226894376,0.005527408527513573,0.029121585376827002,2.309986114501953,2019-08-07 13:55:25:837,-160.47335158028002,176.4512415820571,0,-18.14261245727539,16.043468475341797,-55.32747268676758
0.5189685821533203,0.30315616726875305,9.942303657531738,0.01299140850278662,-0.00033297644199582136,0.03604749573444414,2.3199877738952637,2019-08-07 13:55:25:847,-160.80393726055817,176.47999097115732,0,-18.14261245727539,16.043468475341797,-55.32747268676758
0.5477055907249451,0.1953924149274826,9.966251373291016,0.005799117537728906,-0.0027304066878267143,0.04323978669950186,2.329988956451416,2019-08-07 13:55:25:857,-161.1234135286353,176.5246713062616,0,-18.14261245727539,16.043468475341797,-55.32747268676758
0.3609151244163513,0.2744191586971283,9.8848295211792,0.006598260920496581,0.00019978586194656375,0.05096483887944073,2.3399910926818848,2019-08-07 13:55:25:867,-161.45923634264165,176.55866783773578,0,-18.14261245727539,16.043468475341797,-55.32747268676758
0.40402060747146606,0.5306573510169983,9.822566032409668,0.009528453323978052,0.008457601451143694,0.06108732276812855,2.349989891052246,2019-08-07 13:55:25:877,-161.7876928680743,176.56029773420897,0,-19.492063522338867,17.093040466308594,-56.377044677734375
0.5117843747138977,0.5929208397865295,9.820171356201172,0.0010042569160299579,0.009789506568941165,0.06827961373318628,2.3599863052368164,2019-08-07 13:55:25:887,-162.09776770572535,176.559424063521,0,-19.492063522338867,17.093040466308594,-56.377044677734375
0.6027848124504089,0.6072893738746643,9.920751571655273,0.0020697814914054373,0.008990363706322143,0.07680380981604146,2.3699874877929688,2019-08-07 13:55:25:897,-162.39132069213954,176.55701455190737,0,-19.492063522338867,17.093040466308594,-56.377044677734375
0.5788373351097107,0.6623685956001282,9.827356338500977,0.0007378757884407334,0.003662740634389001,0.07493913932217364,2.379993200302124,2019-08-07 13:55:25:907,-162.6781348348351,176.5483410776692,0,-19.492063522338867,17.093040466308594,-56.377044677734375
0.4734683632850647,0.6671581268310547,9.748329162597656,-0.0011267922997395827,0.001531691613675204,0.07413999958044651,2.389988422393799,2019-08-07 13:55:25:917,-162.969819290121,176.53970434090255,0,-19.492063522338867,17.093040466308594,-56.377044677734375
0.49502110481262207,0.7078688740730286,9.719592094421387,0.0007378757884407334,0.004728265144745899,0.06854599642122144,2.399988889694214,2019-08-07 13:55:25:927,-163.25476657598153,176.52518703365288,0,-19.492063522338867,17.093040466308594,-56.377044677734375
0.37049412727355957,0.7437900900840759,9.743539810180664,-0.0024586979376857053,0.011121412727035939,0.06321837178884236,2.409987211227417,2019-08-07 13:55:25:937,-163.55236286356342,176.5087574769776,0,-19.492063522338867,17.093040466308594,-56.377044677734375
0.19328264892101288,0.7174478769302368,9.90638256072998,-0.0029914601928641544,0.0004661670057904337,0.05336227058818969,2.4199886322021484,2019-08-07 13:55:25:947,-163.8592223632988,176.4974165029346,0,-19.492063522338867,17.093040466308594,-56.377044677734375
0.21962489187717438,0.6935003399848938,9.700433731079102,0.002602543746583887,-6.659528596096748e-05,0.030719873182659653,2.4299890995025635,2019-08-07 13:55:25:957,-164.15606058840413,176.48422249032512,0,-19.492063522338867,17.093040466308594,-56.377044677734375
0.09030840545892715,0.6168683767318726,9.674092292785645,-0.004056984703221053,0.011920556629952265,0.01020852479784341,2.43998646736145,2019-08-07 13:55:25:967,-164.46893409054996,176.4838449304202,0,-19.492063522338867,17.093040466308594,-56.377044677734375
0.11665065586566925,0.5450258851051331,9.892014503479004,-0.013913086944171014,0.00765845806837602,-0.0068398684081642635,2.4499948024749756,2019-08-07 13:55:25:977,-164.77034673070432,176.4989133403844,0,-19.492063522338867,17.093040466308594,-56.377044677734375
0.12862439453601837,0.4396568834781647,9.863277435302734,-0.01657689822006326,-0.0037959311981836125,-0.030015028068872754,2.459986448287964,2019-08-07 13:55:25:987,-165.05786743113745,176.52718965614514,0,-19.492063522338867,17.093040466308594,-56.377044677734375
-0.010271081700921059,0.5953156352043152,9.848908424377441,-0.013646706336730438,-0.007791648372096307,-0.058784191929103606,2.469989538192749,2019-08-07 13:55:25:997,-158.15352876553058,176.53513033025038,0,-19.492063522338867,17.093040466308594,-56.377044677734375
-0.11324531584978104,0.46120962500572205,9.707618713378906,-0.020039854439169127,-0.007791648372096307,-0.08781973431618044,2.4799866676330566,2019-08-07 13:55:26:007,-151.39945164674364,176.56127522428437,0,-17.242979049682617,18.14261245727539,-58.92600631713867
-0.15874555706977844,0.3390774130821228,9.738750457763672,-0.027764906619107993,-0.0021976444326482656,-0.11259318282301888,2.489990472793579,2019-08-07 13:55:26:017,-144.78890540173327,176.6057639836513,0,-17.242979049682617,18.14261245727539,-58.92600631713867
-0.08690307289361954,0.48036763072013855,9.678881645202637,-0.022437284067323503,-0.00246402556023749,-0.13097348010652674,2.4999871253967285,2019-08-07 13:55:26:027,-138.30203268259214,176.6294172667577,0,-17.242979049682617,18.14261245727539,-58.92600631713867
-0.07253457605838776,0.3965514004230499,9.930330276489258,-0.032293385267976156,-0.006459742734150184,-0.15787798179526816,2.509986162185669,2019-08-07 13:55:26:037,-131.94073525756176,176.6692239140791,0,-17.242979049682617,18.14261245727539,-58.92600631713867
0.054387159645557404,0.1307341754436493,9.78664493560791,-0.03842015172267697,-0.011787365285934675,-0.17572550538032725,2.5199899673461914,2019-08-07 13:55:26:047,-132.88893133220722,176.74211378896908,0,-17.242979049682617,18.14261245727539,-58.92600631713867
-0.04619232565164566,0.3773933947086334,9.702829360961914,-0.027232143323632243,-0.013918414306648471,-0.18717991103156933,2.529987096786499,2019-08-07 13:55:26:057,-126.6287951051825,176.77800978593143,0,-17.242979049682617,18.14261245727539,-58.92600631713867
0.3633098602294922,-0.07760904729366302,9.683670997619629,-0.05733321438225517,-0.015783082719921696,-0.20289638975710386,2.539989471435547,2019-08-07 13:55:26:067,-127.64438286221457,169.6838334136936,0,-17.242979049682617,18.14261245727539,-58.92600631713867
0.3369676172733307,0.1690501719713211,9.468143463134766,-0.026965762716191666,0.013252461747749737,-0.21568269220376507,2.5499892234802246,2019-08-07 13:55:26:077,-128.65817076624901,169.88483988707463,0,-17.242979049682617,18.14261245727539,-58.92600631713867
0.30104637145996094,0.21215566992759705,9.85609245300293,-0.03548995879904685,-0.018180512348076064,-0.21461716145162432,2.5599923133850098,2019-08-07 13:55:26:087,-129.6398056775512,170.0824144044737,0,-17.242979049682617,18.14261245727539,-58.92600631713867
0.1789141446352005,-0.7816654443740845,10.081199645996094,-0.06159531242368276,-0.021909849174622513,-0.21781373706328963,2.56998872756958,2019-08-07 13:55:26:097,-130.61437684391737,163.20401277847697,0,-17.242979049682617,18.14261245727539,-58.92600631713867
0.19328264892101288,-0.16621479392051697,9.872856140136719,-0.03042871893529754,-0.022176229782063083,-0.2002325795215089,2.5799856185913086,2019-08-07 13:55:26:107,-131.56721032888277,156.37630317247334,0,-17.242979049682617,18.14261245727539,-58.92600631713867
0.07115040719509125,-0.06084579974412918,9.681276321411133,-0.020838996261490852,-0.007258886116917857,-0.19037646999847785,2.5899901390075684,2019-08-07 13:55:26:117,-132.52336692264575,149.66768533013837,0,-17.242979049682617,18.14261245727539,-58.92600631713867
0.24117763340473175,-0.3745580017566681,9.978224754333496,-0.05866511950005265,0.005793789655102798,-0.1855816149033583,2.5999886989593506,2019-08-07 13:55:26:127,-133.4484604800632,143.15026192945675,0,-17.542856216430664,17.242979049682617,-57.72649383544922
-0.8819599747657776,0.11397092789411545,10.485912322998047,-0.04614520390261583,-0.03363061878854839,-0.16906598811371829,2.6100046634674072,2019-08-07 13:55:26:137,-127.25673311335129,143.9007541082405,0,-17.542856216430664,17.242979049682617,-57.72649383544922
-1.2339881658554077,-0.733770489692688,10.636781692504883,-0.08077475777129614,-0.029368520747120798,-0.1722625637253836,2.6199891567230225,2019-08-07 13:55:26:147,-121.22748131026952,137.54694870985284,0,-17.542856216430664,17.242979049682617,-57.72649383544922
-0.16592980921268463,-0.3482157588005066,9.583091735839844,-0.01204841957119509,-0.005394218223793286,-0.17812294957264385,2.6299870014190674,2019-08-07 13:55:26:157,-115.21974286634163,131.24439366905656,0,-17.542856216430664,17.242979049682617,-57.72649383544922
-0.0030868323519825935,-0.6331909894943237,10.478727340698242,-0.05733321438225517,0.0031299783792105513,-0.14615721010074767,2.6399898529052734,2019-08-07 13:55:26:167,-109.31744355353095,125.120866872668,0,-17.542856216430664,17.242979049682617,-57.72649383544922
0.08312415331602097,-0.982824444770813,10.758913040161133,-0.059464263402968974,-0.004062312325772837,-0.16320560226645806,2.649989604949951,2019-08-07 13:55:26:177,-110.71996050421295,119.15622723288206,0,-17.542856216430664,17.242979049682617,-57.72649383544922
-0.2904568016529083,0.15947116911411285,9.834540367126465,0.015122457523500417,-0.012586509188851,-0.153349492743427,2.6599929332733154,2019-08-07 13:55:26:187,-104.93232567612279,120.34602875240851,0,-17.542856216430664,17.242979049682617,-57.72649383544922
0.12862439453601837,0.3079456388950348,9.642960548400879,0.009528453323978052,-0.0021976444326482656,-0.12511309425926648,2.669987916946411,2019-08-07 13:55:26:197,-106.41716170877758,121.49717853976081,0,-17.542856216430664,17.242979049682617,-57.72649383544922
0.6674430966377258,0.03733893856406212,9.700433731079102,0.006065498665318131,0.003929121761978225,-0.12031823916414694,2.6799888610839844,2019-08-07 13:55:26:207,-107.81230366642744,122.65941803823013,0,-17.542856216430664,17.242979049682617,-57.72649383544922
0.23399338126182556,0.3462616503238678,9.422642707824707,0.02737598939260475,0.025505994657151365,-0.1112612777052214,2.6899890899658203,2019-08-07 13:55:26:217,-109.24192871890808,123.7487667759932,0,-17.542856216430664,17.242979049682617,-57.72649383544922
0.35852035880088806,0.10678667575120926,9.817776679992676,-0.014179468591908889,0.01005588821667904,-0.08861888238028597,2.699990749359131,2019-08-07 13:55:26:227,-110.62091009761919,124.86929103111187,0,-17.542856216430664,17.242979049682617,-57.72649383544922
0.6482850909233093,0.48755186796188354,9.78664493560791,0.014856075875762542,-0.01977880015390871,-0.08062744335112272,2.7099854946136475,2019-08-07 13:55:26:237,-111.92159517279157,125.90652776900721,0,-17.542856216430664,17.242979049682617,-57.72649383544922
0.05917666107416153,0.7797113656997681,9.350800514221191,0.031371706826591766,-0.0016648821774698163,-0.07077134215047007,2.7199888229370117,2019-08-07 13:55:26:247,-113.27497628440744,126.87544517410517,0,-17.542856216430664,17.242979049682617,-57.72649383544922
0.21723014116287231,0.3534458875656128,9.65493392944336,0.0055327364101396825,0.01644903527882043,-0.06650924410904246,2.7299909591674805,2019-08-07 13:55:26:257,-114.5929367880947,127.89289825878937,0,-16.493284225463867,18.292551040649414,-58.47618865966797
0.2890726327896118,0.4564201235771179,9.841724395751953,0.015921601426416743,0.023108565028996997,-0.054788472414521984,2.73998761177063,2019-08-07 13:55:26:267,-115.88040080312086,128.87299836056297,0,-16.493284225463867,18.292551040649414,-58.47618865966797
0.22920389473438263,0.5881313681602478,9.839329719543457,0.017786268799392664,-0.014184795954386346,-0.04706342023458313,2.7499938011169434,2019-08-07 13:55:26:277,-117.12813422019163,129.81713123903003,0,-16.493284225463867,18.292551040649414,-58.47618865966797
0.22201964259147644,0.5953156352043152,9.70522403717041,0.008462928813621153,-0.011254603030756228,-0.03747370172196564,2.759986162185669,2019-08-07 13:55:26:287,-118.35304717843447,130.74583814881083,0,-16.493284225463867,18.292551040649414,-58.47618865966797
0.11425590515136719,0.5354468822479248,9.686065673828125,0.018319032094868414,0.005793789655102798,-0.0316133158747054,2.7699873447418213,2019-08-07 13:55:26:297,-119.57572334066275,131.6573521138694,0,-16.493284225463867,18.292551040649414,-58.47618865966797
0.11425590515136719,0.5665786266326904,9.59745979309082,0.01991731782010646,0.025239614049710795,-0.02282273710381504,2.779989242553711,2019-08-07 13:55:26:307,-120.78474231300652,132.54544958214169,0,-16.493284225463867,18.292551040649414,-58.47618865966797
0.11425590515136719,0.5929208397865295,9.753118515014648,0.008462928813621153,0.0017980727412644285,-0.017495114552030545,2.789987087249756,2019-08-07 13:55:26:317,-121.95663329812736,133.42021173393505,0,-16.493284225463867,18.292551040649414,-58.47618865966797
0.05678191035985947,0.40852513909339905,9.930330276489258,-0.005122509213577951,-0.010721840775577777,-0.009770061331794384,2.799994707107544,2019-08-07 13:55:26:327,-123.10492343931946,134.3075705713299,0,-16.493284225463867,18.292551040649414,-58.47618865966797
-0.05337657779455185,0.6048946380615234,9.702829360961914,0.008729310461359028,-0.006726123861739408,0.0014179468071760237,2.8100192546844482,2019-08-07 13:55:26:337,-117.04534276342775,135.14515919641389,0,-16.493284225463867,18.292551040649414,-58.47618865966797
-0.06535032391548157,0.6839213371276855,9.714802742004395,0.012192264599870297,0.010855031079298064,0.01074128705302186,2.819990396499634,2019-08-07 13:55:26:347,-111.11822172580094,135.954890342441,0,-16.493284225463867,18.292551040649414,-58.47618865966797
0.107071653008461,0.4899466335773468,9.822566032409668,0.010327597226894376,0.012453318885130711,0.01926548417617435,2.829989433288574,2019-08-07 13:55:26:357,-112.49035849112242,136.7728835700888,0,-16.493284225463867,18.292551040649414,-58.47618865966797
0.061571408063173294,0.4779728949069977,9.887224197387695,0.006598260920496581,-0.00033297644199582136,0.017667196370341698,2.8399901390075684,2019-08-07 13:55:26:367,-113.83322839361422,137.57836741947906,0,-16.493284225463867,18.292551040649414,-58.47618865966797
0.04720291122794151,0.5833418965339661,9.853697776794434,0.008995691068799602,-0.005394218223793286,0.028322441473910682,2.8499979972839355,2019-08-07 13:55:26:377,-115.1480432755567,138.35398556756064,0,-19.342124938964844,17.842735290527344,-58.626129150390625
-0.04858707636594772,0.46839389204978943,9.77467155456543,0.008995691068799602,0.002064453868853653,0.025658631238315736,2.8599910736083984,2019-08-07 13:55:26:387,-109.25193676486646,139.12698896323627,0,-19.342124938964844,17.842735290527344,-58.626129150390625
-0.04619232565164566,0.5114994049072266,9.702829360961914,0.0055327364101396825,0.009256744313762716,0.042440642796585534,2.8699867725372314,2019-08-07 13:55:26:397,-103.47754877028045,139.88099107933596,0,-19.342124938964844,17.842735290527344,-58.626129150390625
0.008886916562914848,0.4947361350059509,9.808197975158691,0.008462928813621153,0.011121412727035939,0.04004321108783657,2.879988193511963,2019-08-07 13:55:26:407,-105.01320506057625,140.6208663818747,0,-19.342124938964844,17.842735290527344,-58.626129150390625
0.004097416531294584,0.4252883791923523,9.915961265563965,0.002602543746583887,-0.004595074841025611,0.03977683256099059,2.8899922370910645,2019-08-07 13:55:26:417,-106.50988627917091,141.35786975311063,0,-19.342124938964844,17.842735290527344,-58.626129150390625
-0.08690307289361954,0.48036763072013855,9.808197975158691,0.0015370192362269886,-0.006992504989328633,0.04164149889366921,2.899986505508423,2019-08-07 13:55:26:427,-100.78591735332301,142.0737721100541,0,-19.342124938964844,17.842735290527344,-58.626129150390625
-0.14916656911373138,0.4444463849067688,9.652539253234863,0.0015370192362269886,0.002330834996442878,0.04936655107360807,2.9099857807159424,2019-08-07 13:55:26:437,-95.18921479427057,142.77870782117077,0,-19.342124938964844,17.842735290527344,-58.626129150390625
-0.12282431870698929,0.4061304032802582,9.808197975158691,-0.0008604111071317767,0.014850748513285082,0.05069846035259475,2.919989585876465,2019-08-07 13:55:26:447,-89.7081214598949,143.47619485717436,0,-19.342124938964844,17.842735290527344,-58.626129150390625
-0.12042956799268723,0.40852513909339905,9.870461463928223,0.002336162618994662,-0.0005993576020943366,0.0480346459558106,2.929990530014038,2019-08-07 13:55:26:457,-84.32760309070562,144.1579582311649,0,-19.342124938964844,17.842735290527344,-58.626129150390625
-0.19945630431175232,0.3342879116535187,9.892014503479004,0.004467211899782784,-0.008324410627274756,0.056825224726700964,2.939992904663086,2019-08-07 13:55:26:467,-79.05947815811936,144.83358012478817,0,-19.342124938964844,17.842735290527344,-58.626129150390625
-0.23777230083942413,0.3869723975658417,9.726776123046875,-0.0005940299795425521,-0.003529550070594388,0.052563126685273374,2.949988842010498,2019-08-07 13:55:26:477,-73.90431403974792,145.4916765826519,0,-19.342124938964844,17.842735290527344,-58.626129150390625
-0.20903530716896057,0.3342879116535187,9.650144577026367,0.003668068256940785,0.00765845806837602,0.048833789858726925,2.959987163543701,2019-08-07 13:55:26:487,-68.8553454659929,146.14010431199017,0,-19.342124938964844,17.842735290527344,-58.626129150390625
-0.1946668028831482,0.4516306221485138,9.77467155456543,0.001803400363816213,0.008723982578732917,0.05336227058818969,2.969991683959961,2019-08-07 13:55:26:497,-63.905957662461994,146.76338070690628,0,-19.342124938964844,17.842735290527344,-58.626129150390625
-0.1946668028831482,0.3510511517524719,9.887224197387695,0.0012706381086377639,-0.00246402556023749,0.048833789858726925,2.979987382888794,2019-08-07 13:55:26:507,-59.04901425549305,147.3867306798573,0,-19.64200210571289,16.343345642089844,-58.02637481689453
-0.2545355558395386,0.3462616503238678,9.789039611816406,0.0015370192362269886,-0.00805802949968553,0.045637218408250836,2.989992618560791,2019-08-07 13:55:26:517,-54.29329652456204,147.99761570866468,0,-19.64200210571289,16.343345642089844,-58.02637481689453
-0.2712987959384918,0.3151299059391022,9.767487525939941,-0.004323365830810277,-0.001132119922291367,0.04297340401146668,2.999969959259033,2019-08-07 13:55:26:527,-49.63861677613166,148.60312743211736,0,-19.64200210571289,16.343345642089844,-58.02637481689453
-0.24974605441093445,0.32231414318084717,9.877645492553711,-0.004323365830810277,0.002330834996442878,0.046702740838013124,3.009981155395508,2019-08-07 13:55:26:537,-45.076121785966855,149.1961164401455,0,-19.64200210571289,16.343345642089844,-58.02637481689453
-0.2545355558395386,0.3606301546096802,9.959067344665527,0.0015370192362269886,-0.0027304066878267143,0.04643635814997795,3.0199766159057617,2019-08-07 13:55:26:547,-40.60234805971776,149.76985456969362,0,-19.64200210571289,16.343345642089844,-58.02637481689453
-0.23058804869651794,0.34865638613700867,9.860882759094238,-0.002192316810096481,-0.010988222423315652,0.034449207928611496,3.029985189437866,2019-08-07 13:55:26:557,-36.21091727990845,150.33518965148693,0,-19.64200210571289,16.343345642089844,-58.02637481689453
-0.2210090607404709,0.32949841022491455,9.810592651367188,-0.003524222448042604,-0.006459742734150184,0.04110873767878806,3.0399763584136963,2019-08-07 13:55:26:567,-31.90888535773766,150.89199071553062,0,-19.64200210571289,16.343345642089844,-58.02637481689453
-0.22819329798221588,0.3726038932800293,9.784250259399414,0.0020697814914054373,0.002597216124032102,0.0365802569493253,3.0499773025512695,2019-08-07 13:55:26:577,-27.698886908021645,151.4293709229369,0,-19.64200210571289,16.343345642089844,-58.02637481689453
-0.09887681901454926,0.3510511517524719,9.915961265563965,0.002336162618994662,0.004994646272335123,0.03524835183152782,3.059981346130371,2019-08-07 13:55:26:587,-23.55914088776895,151.95891972722728,0,-19.64200210571289,16.343345642089844,-58.02637481689453
-0.13240331411361694,0.3797881305217743,9.817776679992676,-0.0005940299795425521,-0.006992504989328633,0.027256916963553784,3.069979429244995,2019-08-07 13:55:26:597,-19.499485512247706,152.47576862874578,0,-19.64200210571289,16.343345642089844,-58.02637481689453
-0.1946668028831482,0.3342879116535187,9.829751014709473,0.002336162618994662,-0.006726123861739408,0.021396533196888144,3.0799829959869385,2019-08-07 13:55:26:607,-15.52840830694495,152.9859860152404,0,-19.64200210571289,16.343345642089844,-58.02637481689453
-0.12521906197071075,0.34865638613700867,9.781855583190918,0.002602543746583887,-0.004595074841025611,0.020863769901412393,3.0899786949157715,2019-08-07 13:55:26:617,-11.629929365623621,153.48397881268528,0,-19.64200210571289,16.343345642089844,-58.02637481689453
-0.10606107115745544,0.35584065318107605,9.822566032409668,-0.004856128085988727,-0.0016648821774698163,0.015003385094449453,3.0999796390533447,2019-08-07 13:55:26:627,-7.808768627065734,153.9755314338628,0,-19.94188117980957,17.542856216430664,-57.126739501953125
-0.04140282794833183,0.3869723975658417,9.75790786743164,-0.0008604111071317767,-0.00246402556023749,0.012073192170819333,3.1099817752838135,2019-08-07 13:55:26:637,-4.0560715055601,154.4510838966798,0,-19.94188117980957,17.542856216430664,-57.126739501953125
0.04001866281032562,0.3534458875656128,9.841724395751953,-0.00032764881944403687,-0.010988222423315652,0.008343856384570188,3.120004415512085,2019-08-07 13:55:26:647,-7.564106710185019,154.9211110171752,0,-19.94188117980957,17.542856216430664,-57.126739501953125
0.011281665414571762,0.34386688470840454,9.726776123046875,-0.0005940299795425521,-0.005926980478971734,0.004081758343142595,3.1299784183502197,2019-08-07 13:55:26:657,-11.008176139184604,155.3825272386376,0,-19.94188117980957,17.542856216430664,-57.126739501953125
0.018465915694832802,0.3271036446094513,9.762697219848633,-0.0024586979376857053,-0.00246402556023749,-0.0023113892391474454,3.1399779319763184,2019-08-07 13:55:26:667,-14.38446166647831,155.83787711296435,0,-19.94188117980957,17.542856216430664,-57.126739501953125
0.06636090576648712,0.34865638613700867,9.755513191223145,-0.004323365830810277,0.00019978586194656375,-0.007639012311080588,3.149977445602417,2019-08-07 13:55:26:677,-17.689089750866174,156.282610081496,0,-19.94188117980957,17.542856216430664,-57.126739501953125
0.11425590515136719,0.3390774130821228,9.81538200378418,0.0015370192362269886,-0.00965631626522088,-0.00897091742887806,3.1599793434143066,2019-08-07 13:55:26:687,-20.91654649614566,156.71652417523563,0,-19.94188117980957,17.542856216430664,-57.126739501953125
0.152571901679039,0.3055509030818939,9.769882202148438,0.002336162618994662,-0.006992504989328633,-0.016429590041673648,3.169987678527832,2019-08-07 13:55:26:697,-24.076392212403952,157.14505426758302,0,-19.94188117980957,17.542856216430664,-57.126739501953125
0.11425590515136719,0.2552611529827118,9.760302543640137,-0.004323365830810277,-0.00033297644199582136,-0.0158968277864952,3.1799769401550293,2019-08-07 13:55:26:707,-27.18126391614935,157.57461584360215,0,-19.94188117980957,17.542856216430664,-57.126739501953125
0.12144014984369278,0.25047165155410767,9.796224594116211,-0.0029914601928641544,-0.00033297644199582136,-0.022023593200898715,3.189976453781128,2019-08-07 13:55:26:717,-30.223246919688233,157.99551054975734,0,-19.94188117980957,17.542856216430664,-57.126739501953125
0.20765113830566406,0.23849791288375854,9.820171356201172,-0.003524222448042604,-0.00246402556023749,-0.02069168808310124,3.199979782104492,2019-08-07 13:55:26:727,-33.19317077726249,158.40975499686203,0,-19.94188117980957,17.542856216430664,-57.126739501953125
0.24836188554763794,0.27202439308166504,9.8034086227417,0.0020697814914054373,-0.011254603030756228,-0.02335550039929079,3.2099790573120117,2019-08-07 13:55:26:737,-36.09396368588207,158.80860916162237,0,-19.94188117980957,17.542856216430664,-57.126739501953125
0.2387828826904297,0.23370841145515442,9.77467155456543,-0.002192316810096481,-0.0075252672445070825,-0.026019310634885735,3.2199854850769043,2019-08-07 13:55:26:747,-38.939868564483994,159.20627559714208,0,-19.94188117980957,17.542856216430664,-57.126739501953125
0.29386213421821594,0.21933990716934204,9.781855583190918,-6.126766340918298e-05,-0.0037959311981836125,-0.028416740263040103,3.229980230331421,2019-08-07 13:55:26:757,-41.724526169455956,159.5964937494614,0,-17.542856216430664,18.14261245727539,-58.32625198364258
0.4207838773727417,0.2408926635980606,9.760302543640137,-0.002192316810096481,0.0009989292934781736,-0.0316133158747054,3.239980936050415,2019-08-07 13:55:26:767,-44.4412247113139,159.9775185021987,0,-17.542856216430664,18.14261245727539,-58.32625198364258
0.4279681146144867,0.2408926635980606,9.779460906982422,-0.00032764881944403687,-0.006459742734150184,-0.028416740263040103,3.2499794960021973,2019-08-07 13:55:26:777,-47.098658097042374,160.3499310102631,0,-17.542856216430664,18.14261245727539,-58.32625198364258
0.4614945948123932,0.2792086601257324,9.719592094421387,-0.0005940299795425521,-0.00965631626522088,-0.025486549420004584,3.2599775791168213,2019-08-07 13:55:26:787,-49.69689573984924,160.71035692089183,0,-17.542856216430664,18.14261245727539,-58.32625198364258
0.4782578647136688,0.2624454200267792,9.760302543640137,-0.0056552714687564,-0.006193361606560959,-0.01935978296530377,3.269988775253296,2019-08-07 13:55:26:797,-52.243371021399504,161.0685235877761,0,-17.542856216430664,18.14261245727539,-58.32625198364258
0.5141791105270386,0.2935771644115448,9.721986770629883,0.0010042569160299579,0.0028635972516213265,-0.014032159373221978,3.2799782752990723,2019-08-07 13:55:26:807,-54.73956073300143,161.41199684375658,0,-17.542856216430664,18.14261245727539,-58.32625198364258
0.46867886185646057,0.2792086601257324,9.839329719543457,0.004733593027372009,-0.00566059935138251,-0.01296663486286508,3.289978504180908,2019-08-07 13:55:26:817,-57.187048614360464,161.74859025006648,0,-17.542856216430664,18.14261245727539,-58.32625198364258
0.49741584062576294,0.2887876629829407,9.769882202148438,-0.0008604111071317767,-0.00912355401004243,-0.0148313032761383,3.2999799251556396,2019-08-07 13:55:26:827,-59.57989216848695,162.0802394077617,0,-17.542856216430664,18.14261245727539,-58.32625198364258
0.49502110481262207,0.2887876629829407,9.767487525939941,0.003135306001762336,-0.00566059935138251,-0.005774343897807364,3.309978723526001,2019-08-07 13:55:26:837,-61.92709036474742,162.40300383837373,0,-17.542856216430664,18.14261245727539,-58.32625198364258
0.4806526005268097,0.3199194073677063,9.707618713378906,-0.00032764881944403687,-0.004062312325772837,-0.007372630663342713,3.31998610496521,2019-08-07 13:55:26:847,-64.22957455444227,162.71737731559415,0,-17.542856216430664,18.14261245727539,-58.32625198364258
0.49023160338401794,0.3127351403236389,9.791434288024902,-0.002192316810096481,-0.003529550070594388,-0.008171774566259036,3.329977035522461,2019-08-07 13:55:26:857,-66.48567788310683,163.02767191277403,0,-17.542856216430664,18.14261245727539,-58.32625198364258
0.4782578647136688,0.30315616726875305,9.805803298950195,0.0015370192362269886,-0.003529550070594388,-0.008704536821437486,3.3399815559387207,2019-08-07 13:55:26:867,-68.69813617229246,163.33083920994397,0,-17.542856216430664,18.14261245727539,-58.32625198364258
0.46867886185646057,0.2935771644115448,9.767487525939941,-0.0011267922997395827,-0.002996787815415939,-0.010835585842151283,3.3499789237976074,2019-08-07 13:55:26:877,-70.8675482269753,163.63042302642955,0,-18.14261245727539,19.042245864868164,-58.626129150390625
0.4806526005268097,0.3247089087963104,9.741145133972168,-0.00032764881944403687,-6.659528596096748e-05,-0.008438155693848261,3.3599894046783447,2019-08-07 13:55:26:887,-72.99366329347616,163.9198152060617,0,-18.14261245727539,19.042245864868164,-58.626129150390625
0.4471261203289032,0.32231414318084717,9.796224594116211,0.0020697814914054373,-0.004595074841025611,-0.011368348097329731,3.369978666305542,2019-08-07 13:55:26:897,-75.07894626542033,164.20256879655895,0,-18.14261245727539,19.042245864868164,-58.626129150390625
0.4351523518562317,0.3654196560382843,9.801013946533203,0.003668068256940785,-0.0013985010498805918,-0.009237299076615935,3.379981517791748,2019-08-07 13:55:26:907,-77.12573807957358,164.4737528389906,0,-18.14261245727539,19.042245864868164,-58.626129150390625
0.44473135471343994,0.3247089087963104,9.820171356201172,-0.0011267922997395827,-0.003263168943005164,-0.008704536821437486,3.389979600906372,2019-08-07 13:55:26:917,-79.12953114688315,164.74703387727013,0,-18.14261245727539,19.042245864868164,-58.626129150390625
0.4064153730869293,0.35584065318107605,9.78664493560791,0.003668068256940785,-0.00033297644199582136,-0.008171774566259036,3.399979829788208,2019-08-07 13:55:26:927,-81.09919381544628,165.00838659853528,0,-18.14261245727539,19.042245864868164,-58.626129150390625
0.4088101089000702,0.36781439185142517,9.77467155456543,0.0012706381086377639,0.0017980727412644285,-0.011901110352508182,3.4099860191345215,2019-08-07 13:55:26:937,-83.03032199513984,165.26440525652671,0,-18.14261245727539,19.042245864868164,-58.626129150390625
0.4135996103286743,0.3702091574668884,9.834540367126465,-0.0013931734273288073,-0.0019312633050590406,-0.014298541020959853,3.4199798107147217,2019-08-07 13:55:26:947,-84.92046779507906,165.51678270821935,0,-18.14261245727539,19.042245864868164,-58.626129150390625
0.3896521031856537,0.37499865889549255,9.810592651367188,-0.0024586979376857053,0.0007325481658889489,-0.012167492000246055,3.4299795627593994,2019-08-07 13:55:26:957,-86.77698077346975,165.76404757889222,0,-18.14261245727539,19.042245864868164,-58.626129150390625
0.41120487451553345,0.36302489042282104,9.78664493560791,0.00020511348449834825,0.001531691613675204,-0.016695970649114225,3.4399776458740234,2019-08-07 13:55:26:967,-88.59418147293846,166.00616447252574,0,-18.14261245727539,19.042245864868164,-58.626129150390625
0.37288886308670044,0.34147214889526367,9.832145690917969,-0.0016595545549180318,0.006859314685608345,-0.009237299076615935,3.4499855041503906,2019-08-07 13:55:26:977,-90.38271378355013,166.2471918926176,0,-18.14261245727539,19.042245864868164,-58.626129150390625
0.32499387860298157,0.34865638613700867,9.789039611816406,-0.0016595545549180318,0.004994646272335123,-0.015630446138757324,3.4599807262420654,2019-08-07 13:55:26:987,-92.13983248771144,166.4823825980038,0,-18.14261245727539,19.042245864868164,-58.626129150390625
0.30104637145996094,0.32231414318084717,9.78664493560791,-0.0024586979376857053,0.0009989292934781736,-0.013765778765781403,3.4699809551239014,2019-08-07 13:55:26:997,-93.86235842236448,166.71638949389268,0,-18.14261245727539,19.042245864868164,-58.626129150390625
0.2914673686027527,0.34386688470840454,9.73396110534668,-0.005921652596345625,-0.0021976444326482656,-0.014564921628400425,3.479978322982788,2019-08-07 13:55:27:007,-95.54957530637576,166.94492145599577,0,-17.242979049682617,17.542856216430664,-59.22588348388672
0.22680914402008057,0.32949841022491455,9.781855583190918,-0.003524222448042604,0.0004661670057904337,-0.013233016510602954,3.489980936050415,2019-08-07 13:55:27:017,-97.2122803571645,167.16941721035818,0,-17.242979049682617,17.542856216430664,-59.22588348388672
0.22920389473438263,0.3007614016532898,9.750723838806152,-0.004589746958399502,-0.0016648821774698163,-0.010835585842151283,3.4999797344207764,2019-08-07 13:55:27:027,-98.84016870372531,167.39327109171603,0,-17.242979049682617,17.542856216430664,-59.22588348388672
0.20765113830566406,0.2983666658401489,9.741145133972168,-0.004056984703221053,0.0012653104860859794,-0.004708819387450467,3.50998854637146,2019-08-07 13:55:27:037,-100.43965274249244,167.6125977863877,0,-17.242979049682617,17.542856216430664,-59.22588348388672
0.16215088963508606,0.3318931460380554,9.793828964233398,-0.004323365830810277,0.0009989292934781736,-0.007372630663342713,3.519979476928711,2019-08-07 13:55:27:047,-102.01244953299248,167.8239532755964,0,-17.242979049682617,17.542856216430664,-59.22588348388672
0.1597561538219452,0.2816033959388733,9.70522403717041,-0.0016595545549180318,0.0017980727412644285,-0.003643294877093568,3.5299816131591797,2019-08-07 13:55:27:057,-103.55434934199603,168.03516608593756,0,-17.242979049682617,17.542856216430664,-59.22588348388672
0.1334138959646225,0.32231414318084717,9.78664493560791,0.0007378757884407334,0.0007325481658889489,-0.00018034003963255039,3.5399813652038574,2019-08-07 13:55:27:067,-105.06805324058526,168.23632241894512,0,-17.242979049682617,17.542856216430664,-59.22588348388672
0.13820339739322662,0.28399816155433655,9.75790786743164,-0.0013931734273288073,-0.0005993576020943366,-0.0020450079815210586,3.549987554550171,2019-08-07 13:55:27:077,-106.55012665930302,168.43903693346792,0,-17.242979049682617,17.542856216430664,-59.22588348388672
0.10228215157985687,0.28399816155433655,9.829751014709473,0.0010042569160299579,-0.0005993576020943366,0.003016233572711371,3.5599825382232666,2019-08-07 13:55:27:087,-108.0068645162712,168.63659435313636,0,-17.242979049682617,17.542856216430664,-59.22588348388672
0.10467690229415894,0.32949841022491455,9.829751014709473,-0.0008604111071317767,0.002064453868853653,0.004614520598321043,3.5699777603149414,2019-08-07 13:55:27:097,-109.43568347980698,168.8259480403267,0,-17.242979049682617,17.542856216430664,-59.22588348388672
0.07593990862369537,0.26484015583992004,9.793828964233398,0.00047149462834221814,0.0033963595067997765,0.005413663981088718,3.5799808502197266,2019-08-07 13:55:27:107,-110.83999236790868,169.01818448888017,0,-17.242979049682617,17.542856216430664,-59.22588348388672
0.10467690229415894,0.32949841022491455,9.8034086227417,-0.0005940299795425521,0.003662740634389001,0.01313871668117623,3.589977502822876,2019-08-07 13:55:27:117,-112.21301328957621,169.19965382135365,0,-17.242979049682617,17.542856216430664,-59.22588348388672
0.07593990862369537,0.29118239879608154,9.798619270324707,0.0012706381086377639,0.002330834996442878,0.015003385094449453,3.5999879837036133,2019-08-07 13:55:27:127,-113.5611824168821,169.38090375120422,0,-17.842735290527344,17.842735290527344,-58.32625198364258
0.08312415331602097,0.26962965726852417,9.805803298950195,0.00047149462834221814,0.001531691613675204,0.011806811563378757,3.609981060028076,2019-08-07 13:55:27:137,-114.88110448012532,169.56151987278304,0,-17.842735290527344,17.842735290527344,-58.32625198364258
0.0807294100522995,0.33668264746665955,9.74593448638916,0.0055327364101396825,-0.00033297644199582136,0.015003385094449453,3.619978189468384,2019-08-07 13:55:27:147,-116.1738036257488,169.72761272746038,0,-17.842735290527344,17.842735290527344,-58.32625198364258
0.09030840545892715,0.29597190022468567,9.765092849731445,0.006598260920496581,0.0017980727412644285,0.017400815762901124,3.6299819946289062,2019-08-07 13:55:27:157,-117.44074033051533,169.8946330229024,0,-17.842735290527344,17.842735290527344,-58.32625198364258
0.03762391209602356,0.3079456388950348,9.762697219848633,0.004733593027372009,0.0007325481658889489,0.017667196370341698,3.6399800777435303,2019-08-07 13:55:27:167,-118.68792061179906,170.05794922785358,0,-17.842735290527344,17.842735290527344,-58.32625198364258
0.054387159645557404,0.32949841022491455,9.832145690917969,-0.0016595545549180318,-0.0021976444326482656,0.019798245391055496,3.6499931812286377,2019-08-07 13:55:27:177,-119.906587965569,170.21933533226334,0,-17.842735290527344,17.842735290527344,-58.32625198364258
0.07593990862369537,0.34147214889526367,9.805803298950195,0.006065498665318131,-0.0013985010498805918,0.015802528997365776,3.6599795818328857,2019-08-07 13:55:27:187,-121.09879778448311,170.37165884353678,0,-17.842735290527344,17.842735290527344,-58.32625198364258
0.07115040719509125,0.3199194073677063,9.805803298950195,0.00047149462834221814,-0.005926980478971734,0.014737004487008877,3.669977903366089,2019-08-07 13:55:27:197,-122.26517983691497,170.52658813476214,0,-17.842735290527344,17.842735290527344,-58.32625198364258
0.10228215157985687,0.3534458875656128,9.820171356201172,0.006864642048085805,0.002064453868853653,0.012605954425997783,3.679978370666504,2019-08-07 13:55:27:207,-123.40910061181833,170.6709759068584,0,-17.842735290527344,17.842735290527344,-58.32625198364258
0.08791365474462509,0.34865638613700867,9.851303100585938,0.0034016871293515603,-0.0005993576020943366,0.01420424223183043,3.689986228942871,2019-08-07 13:55:27:217,-124.53035584456818,170.8151056296904,0,-17.842735290527344,17.842735290527344,-58.32625198364258
0.08791365474462509,0.3582353889942169,9.784250259399414,0.002602543746583887,-0.004595074841025611,0.015536147349627901,3.6999807357788086,2019-08-07 13:55:27:227,-125.62687398851168,170.95540577769395,0,-17.842735290527344,17.842735290527344,-58.32625198364258
0.0352291613817215,0.34147214889526367,9.760302543640137,0.0012706381086377639,0.003662740634389001,0.008876618639748637,3.7099783420562744,2019-08-07 13:55:27:237,-126.71225655235335,171.09550992450042,0,-17.842735290527344,17.842735290527344,-58.32625198364258
0.05199240893125534,0.34147214889526367,9.777066230773926,-6.126766340918298e-05,0.00019978586194656375,0.005413663981088718,3.719980001449585,2019-08-07 13:55:27:247,-127.77202993558348,171.23362834206657,0,-17.842735290527344,17.842735290527344,-58.32625198364258
0.061571408063173294,0.37499865889549255,9.81538200378418,-0.00032764881944403687,0.0007325481658889489,0.007278331874213289,3.7299771308898926,2019-08-07 13:55:27:257,-128.80981236580044,171.36538104170427,0,-17.39291763305664,17.093040466308594,-57.876434326171875
0.028044912964105606,0.33668264746665955,9.834540367126465,-0.007253558754440398,-0.0019312633050590406,-0.00018034003963255039,3.739987373352051,2019-08-07 13:55:27:267,-129.82926283608202,171.5029356820928,0,-17.39291763305664,17.093040466308594,-57.876434326171875
0.05917666107416153,0.3247089087963104,9.808197975158691,-0.0016595545549180318,-0.0027304066878267143,-0.004975200515039691,3.7499794960021973,2019-08-07 13:55:27:277,-130.82423199826815,171.6358853919638,0,-17.39291763305664,17.093040466308594,-57.876434326171875
0.07354515790939331,0.3318931460380554,9.796224594116211,0.0010042569160299579,-0.005127837096204061,-0.00018034003963255039,3.7599782943725586,2019-08-07 13:55:27:287,-131.79626563085515,171.76379543108015,0,-17.39291763305664,17.093040466308594,-57.876434326171875
0.018465915694832802,0.32231414318084717,9.863277435302734,0.00020511348449834825,-0.00033297644199582136,-0.005774343897807364,3.769984245300293,2019-08-07 13:55:27:297,-132.75800787354473,171.8909711459576,0,-17.39291763305664,17.093040466308594,-57.876434326171875
0.042413413524627686,0.3510511517524719,9.832145690917969,-6.126766340918298e-05,-0.00965631626522088,-0.008704536821437486,3.779979705810547,2019-08-07 13:55:27:307,-133.69248500680686,172.0122892194646,0,-17.39291763305664,17.093040466308594,-57.876434326171875
0.06636090576648712,0.33668264746665955,9.810592651367188,0.0055327364101396825,-0.004328693453362062,-0.007905393438669812,3.7899837493896484,2019-08-07 13:55:27:317,-134.6084526732605,172.12962513265106,0,-17.39291763305664,17.093040466308594,-57.876434326171875
0.11186115443706512,0.33668264746665955,9.791434288024902,-0.00032764881944403687,-0.004595074841025611,-0.00950367968405651,3.7999801635742188,2019-08-07 13:55:27:327,-135.50061360071962,172.24782926008035,0,-17.39291763305664,17.093040466308594,-57.876434326171875
0.09030840545892715,0.30315616726875305,9.772276878356934,0.0012706381086377639,-0.0037959311981836125,-0.011634728704770307,3.80998158454895,2019-08-07 13:55:27:337,-136.37788018338244,172.36662184589488,0,-17.39291763305664,17.093040466308594,-57.876434326171875
0.107071653008461,0.34386688470840454,9.781855583190918,-0.0019259356825072562,-0.004595074841025611,-0.00950367968405651,3.819978713989258,2019-08-07 13:55:27:347,-137.23520056399403,172.4801040966236,0,-17.39291763305664,17.093040466308594,-57.876434326171875
0.09030840545892715,0.3654196560382843,9.834540367126465,0.00393444938453001,-0.004595074841025611,-0.013499397118043528,3.829989194869995,2019-08-07 13:55:27:357,-138.07739132699623,172.585731579502,0,-17.39291763305664,17.093040466308594,-57.876434326171875
0.1405981481075287,0.32949841022491455,9.781855583190918,0.003135306001762336,-0.0005993576020943366,-0.012700254255424506,3.8399784564971924,2019-08-07 13:55:27:367,-138.89903779824627,172.69367318860432,0,-17.39291763305664,17.093040466308594,-57.876434326171875
0.17651939392089844,0.3510511517524719,9.75790786743164,0.0010042569160299579,-0.003263168943005164,-0.016695970649114225,3.849979877471924,2019-08-07 13:55:27:377,-139.69849730087972,172.79802799119068,0,-17.69279670715332,17.093040466308594,-58.47618865966797
0.1597561538219452,0.2983666658401489,9.784250259399414,0.0015370192362269886,-0.0027304066878267143,-0.016429590041673648,3.8599817752838135,2019-08-07 13:55:27:387,-140.48428522397526,172.90627083701963,0,-17.69279670715332,17.093040466308594,-58.47618865966797
0.18130889534950256,0.31034040451049805,9.808197975158691,0.0010042569160299579,-6.659528596096748e-05,-0.011368348097329731,3.869978904724121,2019-08-07 13:55:27:397,-141.2533817907889,173.01133596263367,0,-17.69279670715332,17.093040466308594,-58.47618865966797
0.16933514177799225,0.3342879116535187,9.755513191223145,0.003135306001762336,-0.006726123861739408,-0.013499397118043528,3.8799855709075928,2019-08-07 13:55:27:407,-142.00464624650448,173.1100963685856,0,-17.69279670715332,17.093040466308594,-58.47618865966797
0.20046688616275787,0.27681389451026917,9.801013946533203,-0.0016595545549180318,-0.004595074841025611,-0.017495114552030545,3.889979362487793,2019-08-07 13:55:27:417,-142.73853986229847,173.21646975677373,0,-17.69279670715332,17.093040466308594,-58.47618865966797
0.1717298924922943,0.3247089087963104,9.801013946533203,-0.00272507906527493,0.002330834996442878,-0.01296663486286508,3.899982213973999,2019-08-07 13:55:27:427,-143.46500192646684,173.31572046950095,0,-17.69279670715332,17.093040466308594,-58.47618865966797
0.17412464320659637,0.3462616503238678,9.805803298950195,0.00047149462834221814,-0.0013985010498805918,-0.013499397118043528,3.9099795818328857,2019-08-07 13:55:27:437,-144.17457060352842,173.40869372345162,0,-17.69279670715332,17.093040466308594,-58.47618865966797
0.19088789820671082,0.3510511517524719,9.789039611816406,-6.126766340918298e-05,-0.0005993576020943366,-0.013233016510602954,3.919980049133301,2019-08-07 13:55:27:447,-144.86839992462814,173.49947742689326,0,-17.69279670715332,17.093040466308594,-58.47618865966797
0.16215088963508606,0.31034040451049805,9.75790786743164,-0.0008604111071317767,-0.004595074841025611,-0.011368348097329731,3.9299840927124023,2019-08-07 13:55:27:457,-145.5494103890919,173.59353878577517,0,-17.69279670715332,17.093040466308594,-58.47618865966797
0.19328264892101288,0.3079456388950348,9.77467155456543,-0.0011267922997395827,-6.659528596096748e-05,-0.013765778765781403,3.9400572776794434,2019-08-07 13:55:27:467,-146.21572833223001,173.68621583060727,0,-17.69279670715332,17.093040466308594,-58.47618865966797
0.21962489187717438,0.34147214889526367,9.8034086227417,0.0020697814914054373,-0.003263168943005164,-0.013765778765781403,3.949971914291382,2019-08-07 13:55:27:477,-146.86392958992374,173.77144087506971,0,-17.69279670715332,17.093040466308594,-58.47618865966797
0.2124406397342682,0.32231414318084717,9.808197975158691,0.0028689248741731116,-0.004062312325772837,-0.010036441939234959,3.959961414337158,2019-08-07 13:55:27:487,-147.49955633461806,173.85675965374435,0,-17.69279670715332,17.093040466308594,-58.47618865966797
0.22680914402008057,0.3127351403236389,9.863277435302734,-0.0013931734273288073,-0.005394218223793286,-0.008438155693848261,3.969965696334839,2019-08-07 13:55:27:497,-148.1201890211574,173.9440856599163,0,-17.69279670715332,17.093040466308594,-58.47618865966797
0.21723014116287231,0.3318931460380554,9.777066230773926,-0.00032764881944403687,-0.00033297644199582136,-0.012700254255424506,3.9799845218658447,2019-08-07 13:55:27:507,-148.73214177379538,174.0265038478953,0,-17.093040466308594,17.992673873901367,-58.47618865966797
0.20046688616275787,0.31034040451049805,9.767487525939941,-0.0008604111071317767,-0.003263168943005164,-0.003909676004682793,3.9899725914001465,2019-08-07 13:55:27:517,-149.33215350980586,174.11005961439267,0,-17.093040466308594,17.992673873901367,-58.47618865966797
0.16694039106369019,0.3462616503238678,9.791434288024902,-0.0016595545549180318,-0.005127837096204061,-0.0020450079815210586,3.9999802112579346,2019-08-07 13:55:27:527,-149.9230934211129,174.1882839991428,0,-17.093040466308594,17.992673873901367,-58.47618865966797
0.15017715096473694,0.3606301546096802,9.686065673828125,-0.00032764881944403687,-0.008324410627274756,-0.0015122457263426093,4.009981870651245,2019-08-07 13:55:27:537,-150.50219126073705,174.26205746310345,0,-17.093040466308594,17.992673873901367,-58.47618865966797
0.12383490055799484,0.32231414318084717,9.781855583190918,-0.00032764881944403687,-0.002996787815415939,-0.0017786268539318336,4.0199806690216064,2019-08-07 13:55:27:547,-151.07595882624358,174.33925576888865,0,-17.093040466308594,17.992673873901367,-58.47618865966797
0.08791365474462509,0.3199194073677063,9.805803298950195,0.003135306001762336,-0.003529550070594388,0.0014179468071760237,4.029980897903442,2019-08-07 13:55:27:557,-151.64218436792893,174.41333731041533,0,-17.093040466308594,17.992673873901367,-58.47618865966797
0.11186115443706512,0.3342879116535187,9.870461463928223,-0.0024586979376857053,-0.0016648821774698163,0.0014179468071760237,4.0399816036224365,2019-08-07 13:55:27:567,-152.19541977124402,174.48765674218194,0,-17.093040466308594,17.992673873901367,-58.47618865966797
0.10228215157985687,0.3390774130821228,9.848908424377441,-0.00032764881944403687,-6.659528596096748e-05,0.008343856384570188,4.049981355667114,2019-08-07 13:55:27:577,-152.73957393398348,174.5586516649614,0,-17.093040466308594,17.992673873901367,-58.47618865966797
0.11665065586566925,0.4133146405220032,9.812987327575684,-0.005921652596345625,-0.0016648821774698163,0.005946426236267168,4.0599822998046875,2019-08-07 13:55:27:587,-153.27022625171853,174.6225674707605,0,-17.093040466308594,17.992673873901367,-58.47618865966797
0.09988740086555481,0.4061304032802582,9.765092849731445,-0.0016595545549180318,-0.0021976444326482656,0.004081758343142595,4.069986343383789,2019-08-07 13:55:27:597,-153.7918660603551,174.68341713425457,0,-17.093040466308594,17.992673873901367,-58.47618865966797
0.0352291613817215,0.43486738204956055,9.767487525939941,-0.00911822664756497,-0.0021976444326482656,0.012605954425997783,4.079980850219727,2019-08-07 13:55:27:607,-154.31066239714818,174.74388114846505,0,-17.093040466308594,17.992673873901367,-58.47618865966797
-0.000692082685418427,0.34386688470840454,9.805803298950195,0.001803400363816213,0.0009989292934781736,0.009942143150105534,4.089984893798828,2019-08-07 13:55:27:617,-147.6250911508946,174.8078223549252,0,-17.093040466308594,17.992673873901367,-58.47618865966797
-0.005481582134962082,0.3151299059391022,9.822566032409668,-0.004056984703221053,-0.003529550070594388,0.01606890960480635,4.099984407424927,2019-08-07 13:55:27:627,-141.07124707640335,174.87719285659503,0,-17.542856216430664,18.742368698120117,-58.626129150390625
-0.005481582134962082,0.3845776319503784,9.796224594116211,-0.005122509213577951,-6.659528596096748e-05,0.021130150508852967,4.1099841594696045,2019-08-07 13:55:27:637,-134.6504259518846,174.93756224355286,0,-17.542856216430664,18.742368698120117,-58.626129150390625
0.020860664546489716,0.3462616503238678,9.812987327575684,0.0015370192362269886,-0.0019312633050590406,0.023793962825042515,4.119986057281494,2019-08-07 13:55:27:647,-135.55389681640438,174.99752972486016,0,-17.542856216430664,18.742368698120117,-58.626129150390625
0.006492166314274073,0.33668264746665955,9.793828964233398,-0.0008604111071317767,-0.006992504989328633,0.030719873182659653,4.129999160766602,2019-08-07 13:55:27:657,-136.43812784496927,175.05868522772064,0,-17.542856216430664,18.742368698120117,-58.626129150390625
-0.0892978236079216,0.36302489042282104,9.65493392944336,0.00047149462834221814,-0.00246402556023749,0.02938796598426758,4.1399829387664795,2019-08-07 13:55:27:667,-130.1185821781928,175.11418114437618,0,-17.542856216430664,18.742368698120117,-58.626129150390625
-0.12521906197071075,0.3510511517524719,9.748329162597656,0.005266355282550457,0.0031299783792105513,0.034449207928611496,4.14998197555542,2019-08-07 13:55:27:677,-123.93268652873782,175.1676925345823,0,-17.542856216430664,18.742368698120117,-58.626129150390625
-0.12761381268501282,0.29597190022468567,9.808197975158691,0.002602543746583887,0.001531691613675204,0.04084235499075289,4.159988164901733,2019-08-07 13:55:27:687,-117.8698019636713,175.2283078287938,0,-17.542856216430664,18.742368698120117,-58.626129150390625
-0.07492932677268982,0.2887876629829407,9.892014503479004,0.0034016871293515603,-0.0048614559686148365,0.04057597646390691,4.169983863830566,2019-08-07 13:55:27:697,-111.91835723132722,175.28838806840048,0,-17.542856216430664,18.742368698120117,-58.626129150390625
-0.13240331411361694,0.3127351403236389,9.789039611816406,0.001803400363816213,-0.005394218223793286,0.03844492744319312,4.179982662200928,2019-08-07 13:55:27:707,-106.09245993490423,175.34501115457024,0,-17.542856216430664,18.742368698120117,-58.626129150390625
-0.5802215337753296,0.19778716564178467,10.059646606445312,-0.011515657316016642,-0.00566059935138251,0.03684663963736047,4.189981698989868,2019-08-07 13:55:27:717,-100.43345373639936,175.42204888335553,0,-17.542856216430664,18.742368698120117,-58.626129150390625
-0.6448797583580017,0.09002342820167542,10.277568817138672,-0.025900238205834772,-0.009922697912958753,0.04537083572021565,4.1999828815460205,2019-08-07 13:55:27:727,-94.89102028340403,175.51811551039586,0,-17.542856216430664,18.742368698120117,-58.626129150390625
-0.5945900082588196,0.27681389451026917,10.107542037963867,-0.0061880337239348495,0.0009989292934781736,0.03631387842247932,4.209985971450806,2019-08-07 13:55:27:737,-89.46109340566625,175.57985365280052,0,-17.542856216430664,18.742368698120117,-58.626129150390625
-0.48443153500556946,0.4707886278629303,9.973435401916504,0.001803400363816213,-0.010988222423315652,0.03418282732117092,4.219984292984009,2019-08-07 13:55:27:747,-84.121318613667,175.61319216967127,0,-17.542856216430664,18.742368698120117,-58.626129150390625
-0.19227205216884613,0.32949841022491455,9.851303100585938,0.0015370192362269886,-0.004328693453362062,0.032584541595932874,4.229981899261475,2019-08-07 13:55:27:757,-78.85882474807691,175.66175212473922,0,-16.493284225463867,18.292551040649414,-58.17631149291992
-0.055771324783563614,0.31034040451049805,9.860882759094238,0.0028689248741731116,0.0028635972516213265,0.025392250630875163,4.239985704421997,2019-08-07 13:55:27:767,-73.6897377879427,175.71085336703968,0,-16.493284225463867,18.292551040649414,-58.17631149291992
0.05678191035985947,0.3534458875656128,9.78664493560791,0.011925883992429723,0.002597216124032102,0.023527582217601938,4.249983549118042,2019-08-07 13:55:27:777,-75.81075254736992,175.74857447134613,0,-16.493284225463867,18.292551040649414,-58.17631149291992
0.2842831313610077,0.27202439308166504,9.798619270324707,0.0028689248741731116,0.002330834996442878,0.023261201610161368,4.259988784790039,2019-08-07 13:55:27:787,-77.86261030891859,175.80018707142656,0,-16.493284225463867,18.292551040649414,-58.17631149291992
0.36570462584495544,0.2408926635980606,9.781855583190918,0.013257789110227194,0.0004661670057904337,0.030453490494624477,4.270002365112305,2019-08-07 13:55:27:797,-79.86279893302896,175.84851482613442,0,-16.493284225463867,18.292551040649414,-58.17631149291992
0.4399418532848358,0.26484015583992004,9.726776123046875,0.010860359482072824,-0.0019312633050590406,0.024326726120518262,4.279980421066284,2019-08-07 13:55:27:807,-81.81266649755912,175.8942666108839,0,-16.493284225463867,18.292551040649414,-58.17631149291992
0.4734683632850647,0.20976091921329498,9.834540367126465,0.009528453323978052,-0.002996787815415939,0.029121585376827002,4.289985179901123,2019-08-07 13:55:27:817,-83.71960394778844,175.94659098979662,0,-16.493284225463867,18.292551040649414,-58.17631149291992
0.5836268663406372,0.10918142646551132,9.817776679992676,0.010327597226894376,0.0052610273999243486,0.044571691817299336,4.299983263015747,2019-08-07 13:55:27:827,-85.58012541576615,176.0091183891919,0,-16.493284225463867,18.292551040649414,-58.17631149291992
0.7392855882644653,0.17383967339992523,9.901593208312988,0.014323313620584095,0.008723982578732917,0.05948903496229591,4.309988021850586,2019-08-07 13:55:27:837,-87.38802436171976,176.06077320043613,0,-16.493284225463867,18.292551040649414,-58.17631149291992
0.8781810402870178,0.10678667575120926,9.908777236938477,0.009262072716537477,0.005793789655102798,0.07067704128074603,4.319983005523682,2019-08-07 13:55:27:847,-89.14222152454487,176.1220106748078,0,-16.493284225463867,18.292551040649414,-58.17631149291992
1.0003132820129395,0.2600506544113159,9.820171356201172,0.021515605625939106,-0.00246402556023749,0.0815986732335394,4.329962968826294,2019-08-07 13:55:27:857,-90.84167101017991,176.15717546921636,0,-16.493284225463867,18.292551040649414,-58.17631149291992
0.9212865233421326,0.3318931460380554,9.810592651367188,0.025244940371890952,0.011121412727035939,0.09971258782901206,4.340006351470947,2019-08-07 13:55:27:867,-92.52381412910267,176.1810438267092,0,-16.493284225463867,18.292551040649414,-58.17631149291992
1.2062617540359497,0.09241817891597748,9.793828964233398,0.01352417075796507,0.0209775160082832,0.10637211341799943,4.349990606307983,2019-08-07 13:55:27:877,-94.14466813638424,176.23902814245005,0,-19.19218635559082,16.493284225463867,-57.27667999267578
1.1775248050689697,0.4947361350059509,9.78664493560791,0.011126740089513398,0.017514559789177327,0.11649459730668728,4.359976768493652,2019-08-07 13:55:27:887,-95.73437912222643,176.25012932659018,0,-19.19218635559082,16.493284225463867,-57.27667999267578
1.203866958618164,0.5953156352043152,9.812987327575684,0.01405693301314352,-0.004062312325772837,0.11995755560638774,4.369970798492432,2019-08-07 13:55:27:897,-97.27752884574312,176.24780537427634,0,-19.19218635559082,16.493284225463867,-57.27667999267578
1.1703405380249023,0.5258678793907166,9.587881088256836,0.020716461723022786,0.003662740634389001,0.11995755560638774,4.379976749420166,2019-08-07 13:55:27:907,-98.79484898751984,176.24842279255472,0,-19.19218635559082,16.493284225463867,-57.27667999267578
0.8925495743751526,0.8563433289527893,9.523222923278809,0.020982842330463356,0.026571519167508266,0.10797040122383207,4.389974594116211,2019-08-07 13:55:27:917,-100.32678229031092,176.20890887956855,0,-19.19218635559082,16.493284225463867,-57.27667999267578
0.8087332844734192,0.7892903685569763,9.731565475463867,0.011126740089513398,0.013252461747749737,0.08799181613449159,4.399983882904053,2019-08-07 13:55:27:927,-101.83268280294502,176.18573937608787,0,-19.19218635559082,16.493284225463867,-57.27667999267578
0.5381265878677368,0.6240525841712952,9.793828964233398,0.008729310461359028,-0.00246402556023749,0.06774685251830512,4.409970998764038,2019-08-07 13:55:27:937,-103.33174775288383,176.18421143777337,0,-19.19218635559082,16.493284225463867,-57.27667999267578
0.35852035880088806,0.7677375674247742,9.731565475463867,0.004733593027372009,0.002597216124032102,0.03924406718492024,4.419970750808716,2019-08-07 13:55:27:947,-104.82437353164052,176.16765325089256,0,-19.19218635559082,16.493284225463867,-57.27667999267578
0.2962568700313568,0.6336315870285034,9.640565872192383,0.003135306001762336,0.012453318885130711,0.0016843279347652483,4.429975986480713,2019-08-07 13:55:27:957,-106.29967906503414,176.16733102158778,0,-19.19218635559082,16.493284225463867,-57.27667999267578
0.18849314749240875,0.5689733624458313,9.714802742004395,-0.004056984703221053,0.009523125961500591,-0.03347798220738402,4.439979553222656,2019-08-07 13:55:27:967,-107.75680357639922,176.17922617827483,0,-19.19218635559082,16.493284225463867,-57.27667999267578
0.16694039106369019,0.46599912643432617,9.767487525939941,-0.00965098890274342,-0.0021976444326482656,-0.0641118124002935,4.4499733448028564,2019-08-07 13:55:27:977,-109.18085086001359,176.20642800182162,0,-19.19218635559082,16.493284225463867,-57.27667999267578
0.25315138697624207,0.3510511517524719,9.73396110534668,-0.009384607255005544,-0.013918414306648471,-0.11232680013498371,4.459970951080322,2019-08-07 13:55:27:987,-110.55962540168771,176.24625857144798,0,-19.19218635559082,16.493284225463867,-57.27667999267578
0.17412464320659637,0.3151299059391022,9.566328048706055,-0.013380324688992563,0.001531691613675204,-0.14242786911301203,4.46997857093811,2019-08-07 13:55:27:997,-111.92843813799378,176.29111754068103,0,-19.19218635559082,16.493284225463867,-57.27667999267578
0.32738861441612244,0.2025766670703888,9.611828804016113,-0.014179468591908889,0.009789506568941165,-0.17146341566127807,4.479975938796997,2019-08-07 13:55:28:007,-113.25634876205335,176.34910737114689,0,-16.64322280883789,17.542856216430664,-58.32625198364258
0.4614945948123932,-0.041687801480293274,9.810592651367188,-0.023502808577680397,-0.0013985010498805918,-0.20103172758561444,4.489982604980469,2019-08-07 13:55:28:017,-114.5365713405749,169.2402000849284,0,-16.64322280883789,17.542856216430664,-58.32625198364258
0.5764425992965698,-0.02492455393075943,9.791434288024902,-0.032293385267976156,-0.01951241954646814,-0.20849039291632893,4.499977111816406,2019-08-07 13:55:28:027,-115.76750502110153,162.27643578995833,0,-16.64322280883789,17.542856216430664,-58.32625198364258
0.4519156217575073,0.15468166768550873,9.609434127807617,-0.017376042122979583,-0.00566059935138251,-0.22953450875781012,4.509982347488403,2019-08-07 13:55:28:037,-116.99512401986715,162.62222476222246,0,-16.64322280883789,17.542856216430664,-58.32625198364258
0.2435723841190338,-0.18297803401947021,9.824960708618164,-0.02563385759839419,-0.0013985010498805918,-0.23006727413388045,4.51997971534729,2019-08-07 13:55:28:047,-118.22603370620216,155.8055086824287,0,-16.64322280883789,17.542856216430664,-58.32625198364258
0.2962568700313568,-0.14226728677749634,9.9854097366333,-0.03655548538999835,-0.010988222423315652,-0.23672679140048944,4.52997612953186,2019-08-07 13:55:28:057,-119.42135720208412,149.12624235022528,0,-16.64322280883789,17.542856216430664,-58.32625198364258
0.37049412727355957,-0.0656353011727333,9.796224594116211,-0.019507091143693377,0.0033963595067997765,-0.2329974670575106,4.539980411529541,2019-08-07 13:55:28:067,-120.59151993700581,142.56235298784796,0,-16.64322280883789,17.542856216430664,-58.32625198364258
0.20286163687705994,-0.4655584990978241,9.863277435302734,-0.03735462929291468,-0.01791413174063549,-0.22127669536299013,4.549976587295532,2019-08-07 13:55:28:077,-121.74606948147711,136.1861209523752,0,-16.64322280883789,17.542856216430664,-58.32625198364258
