ACCELEROMETER X (m/s²),ACCELEROMETER Y (m/s²),ACCELEROMETER Z (m/s²),GYROSCOPE X (rad/s),GYROSCOPE Y (rad/s),GYROSCOPE Z (rad/s),Time since start in ms ,YYYY-MO-DD HH-MI-SS_SSS,Pitch (Deg),Roll (Deg),Heading (Deg),MagX,MagY,MagZ
0.17726176977157593,-0.061973728239536285,9.909807205200195,0.001974417047728495,0.0031816564480000235,0.04047501769145769,0.0,2019-07-25 12:05:47:118,-3.579504609815911,-3.592833792412575,0,-43.33235549926758,34.63589859008789,-28.038583755493164
0.13655102252960205,-0.073947474360466,9.816411972045898,0.007834801984728598,-0.0002812985032435118,0.041806922809255166,0.010017156600952148,2019-07-25 12:05:47:129,-7.091817087691716,-7.116751824228103,0,-43.33235549926758,34.63589859008789,-28.038583755493164
0.1652880162000656,-0.1457899659872055,9.82120132446289,0.00969946987785317,0.005845467983966595,0.04899921377431288,0.019990921020507812,2019-07-25 12:05:47:138,-10.53397074520134,-10.56283954366779,0,-43.33235549926758,34.63589859008789,-28.038583755493164
0.12936677038669586,-0.18650071322917938,9.763727188110352,0.001974417047728495,0.011439472183488963,0.05139664132187265,0.030014514923095703,2019-07-25 12:05:47:149,-13.914547547027878,-13.930808087498923,0,-42.732601165771484,34.03614044189453,-28.038583755493164
0.1197877749800682,-0.12423721700906754,9.845149040222168,0.004638228453657903,0.008242898132269616,0.04740092596848023,0.0399937629699707,2019-07-25 12:05:47:158,-17.226933485427246,-17.240331189694533,0,-42.732601165771484,34.03614044189453,-28.038583755493164
0.1604985147714615,-0.20326395332813263,9.79964828491211,0.007302039729550149,0.004247180958356922,0.04899921377431288,0.049994707107543945,2019-07-25 12:05:47:168,-20.46601371407579,-20.47585990605347,0,-42.732601165771484,34.03614044189453,-28.038583755493164
0.06949803233146667,-0.17452695965766907,9.78049087524414,0.00623651521919325,0.007710135877091167,0.04606902085068276,0.059990644454956055,2019-07-25 12:05:47:178,-23.652878422879965,-23.64939707761255,0,-42.732601165771484,34.03614044189453,-28.038583755493164
0.05752428248524666,-0.20086920261383057,9.82120132446289,0.000642511344763791,0.008509279259858839,0.043405210615087814,0.0700080394744873,2019-07-25 12:05:47:188,-26.777895387782312,-26.753336835095013,0,-42.732601165771484,34.03614044189453,-28.038583755493164
0.11020877212285995,-0.18171121180057526,9.936149597167969,0.0017080359201392707,0.008775660907596714,0.042606066712171486,0.07999110221862793,2019-07-25 12:05:47:198,-29.83454702716733,-29.798273491277694,0,-42.732601165771484,34.03614044189453,-28.038583755493164
-0.031081456691026688,-0.119447723031044,9.847543716430664,0.004638228453657903,0.002116131807605963,0.03594653696199492,0.08999109268188477,2019-07-25 12:05:47:208,-25.642661091779473,-32.791013450475944,0,-42.732601165771484,34.03614044189453,-28.038583755493164
-0.043055206537246704,-0.15536896884441376,9.746964454650879,0.0027735605605333316,0.0031816564480000235,0.0330163440383648,0.09998250007629395,2019-07-25 12:05:47:218,-21.536654643657876,-35.71848456920402,0,-42.732601165771484,34.03614044189453,-28.038583755493164
-0.11250294744968414,-0.119447723031044,9.864306449890137,0.0017080359201392707,0.008242898132269616,0.017299856990451903,0.1100013256072998,2019-07-25 12:05:47:228,-17.52362730256954,-38.59120043227259,0,-42.732601165771484,34.03614044189453,-28.038583755493164
-0.11968719214200974,-0.11226347088813782,9.84993839263916,0.0003761301846652757,0.0007842261046412585,0.015701570224916552,0.11999988555908203,2019-07-25 12:05:47:238,-13.587518438830507,-41.40652772216506,0,-42.732601165771484,34.03614044189453,-28.038583755493164
-0.08855544775724411,-0.11705297231674194,9.814017295837402,-0.002287681383810586,-0.0010804419185204762,0.007443754749501942,0.13001227378845215,2019-07-25 12:05:47:249,-9.725500384396272,-44.163444220508524,0,-42.732601165771484,34.03614044189453,-28.038583755493164
-0.06460795551538467,-0.08352647721767426,9.83796501159668,-0.0028204436389890346,0.005845467983966595,-0.0026787288791115674,0.14000177383422852,2019-07-25 12:05:47:258,-5.941794509739647,-46.86886448315603,0,-42.732601165771484,34.03614044189453,-28.038583755493164
-0.12447669357061386,-0.07155272364616394,9.794858932495117,-0.00308682476657826,0.005312705728788145,-0.01599778551864712,0.15001869201660156,2019-07-25 12:05:47:269,-2.2405086790719233,-49.52138009911292,0,-43.78217315673828,35.38559341430664,-28.488401412963867
-0.09813445061445236,-0.09071072190999985,9.804438591003418,-0.00015663211927710938,0.003980799830767698,-0.019993502952634138,0.1599867343902588,2019-07-25 12:05:47:278,1.390604124620868,-52.120263114372115,0,-43.78217315673828,35.38559341430664,-28.488401412963867
-0.10292394459247589,-0.12184246629476547,9.830780029296875,-0.004152349276935158,-0.0005476796633420271,-0.023722839779180587,0.17000150680541992,2019-07-25 12:05:47:288,4.9511032237107795,-54.66132114449995,0,-43.78217315673828,35.38559341430664,-28.488401412963867
-0.05263420194387436,-0.12902672588825226,9.825990676879883,-0.004418730404524382,0.005312705728788145,-0.033578940979833244,0.18001198768615723,2019-07-25 12:05:47:299,8.442956767909807,-57.150564665696045,0,-43.78217315673828,35.38559341430664,-28.488401412963867
0.012024038471281528,-0.18171121180057526,9.885859489440918,-0.007082541680416628,0.008509279259858839,-0.04050484925685578,0.18998265266418457,2019-07-25 12:05:47:308,4.670727461044539,-59.58252758750914,0,-43.78217315673828,35.38559341430664,-28.488401412963867
0.04555053263902664,-0.09310547262430191,9.773306846618652,-0.00308682476657826,-0.0013468231111282822,-0.04609885657727005,0.20001912117004395,2019-07-25 12:05:47:319,0.9834126487269388,-61.978221224694956,0,-43.78217315673828,35.38559341430664,-28.488401412963867
0.0742875337600708,-0.1457899659872055,9.86670207977295,-0.006549779425238179,0.004247180958356922,-0.04902904950090017,0.20997357368469238,2019-07-25 12:05:47:328,-2.630001961338636,-64.31806509149173,0,-43.78217315673828,35.38559341430664,-28.488401412963867
0.14373527467250824,-0.11226347088813782,9.792464256286621,-0.0076153039355950775,0.006111849111555819,-0.05249200363941144,0.21998262405395508,2019-07-25 12:05:47:338,-6.164018108027475,-66.6142874247539,0,-43.78217315673828,35.38559341430664,-28.488401412963867
0.19402500987052917,-0.09071072190999985,9.787674903869629,-0.0060170171700597306,0.002116131807605963,-0.04743076169506752,0.2299799919128418,2019-07-25 12:05:47:348,-9.619212668195019,-68.86800414660394,0,-43.78217315673828,35.38559341430664,-28.488401412963867
0.26826226711273193,-0.11226347088813782,9.881070137023926,-0.0076153039355950775,0.004247180958356922,-0.05009457193066247,0.23998713493347168,2019-07-25 12:05:47:358,-12.998111955615641,-71.07334630235653,0,-43.78217315673828,35.38559341430664,-28.488401412963867
0.21557776629924774,-0.10268447548151016,9.751753807067871,-0.004685111532113607,0.002116131807605963,-0.04503332998631855,0.24998831748962402,2019-07-25 12:05:47:368,-16.3140099316207,-73.23718251156842,0,-43.78217315673828,35.38559341430664,-28.488401412963867
0.15091952681541443,-0.07155272364616394,9.83796501159668,-0.009746352956308874,0.005046324601198921,-0.04396780755655626,0.25998473167419434,2019-07-25 12:05:47:378,-19.572984655840173,-75.35863402238647,0,-43.78217315673828,35.38559341430664,-28.488401412963867
0.2706570029258728,-0.1529742181301117,9.833174705505371,-0.003619587021756709,0.008242898132269616,-0.03331256037239267,0.2699849605560303,2019-07-25 12:05:47:388,-22.754620211691705,-77.43160338736541,0,-43.78217315673828,35.38559341430664,-28.488401412963867
0.29460451006889343,-0.09550022333860397,9.766121864318848,0.0003761301846652757,0.006378230239145044,-0.03411170427530899,0.2799794673919678,2019-07-25 12:05:47:398,-25.868550035484294,-79.47197716352444,0,-43.78217315673828,33.586326599121094,-27.88864517211914
0.3185519874095917,-0.11705297231674194,9.749359130859375,-0.003619587021756709,-1.491734416091191e-05,-0.02478836428953748,0.2899918556213379,2019-07-25 12:05:47:408,-28.913742150350675,-81.46674525307634,0,-43.78217315673828,33.586326599121094,-27.88864517211914
0.2922097444534302,-0.24636945128440857,9.818806648254395,-0.005750636042470505,0.004779943473609696,-0.019194359049717818,0.29998207092285156,2019-07-25 12:05:47:418,-31.904055987299124,-83.40543772312526,0,-43.78217315673828,33.586326599121094,-27.88864517211914
0.18444602191448212,-0.1912902146577835,9.876280784606934,-0.0028204436389890346,0.004247180958356922,-0.014399498753111774,0.3099784851074219,2019-07-25 12:05:47:428,-34.84696056096846,-85.31355379937136,0,-43.78217315673828,33.586326599121094,-27.88864517211914
0.19641976058483124,-0.11465822160243988,9.835570335388184,-0.0014885378710057496,0.002116131807605963,-0.004010634517057691,0.319979190826416,2019-07-25 12:05:47:438,-37.72832834730167,-87.1930889394577,0,-43.78217315673828,33.586326599121094,-27.88864517211914
0.15570901334285736,-0.25355368852615356,9.854727745056152,-0.0025540625113998103,0.008775660907596714,-0.006940827180613486,0.32998013496398926,2019-07-25 12:05:47:448,-40.56058530568083,-89.0183160011346,0,-43.78217315673828,33.586326599121094,-27.88864517211914
0.10541927814483643,-0.17692171037197113,9.814017295837402,-0.0017549189985949741,0.0037144187031784726,-0.0002812985032435118,0.33999133110046387,2019-07-25 12:05:47:458,-43.3391529619531,-90.81630749415656,0,-43.78217315673828,33.586326599121094,-27.88864517211914
0.03118203580379486,-0.1529742181301117,9.871491432189941,-0.0049514926597028315,0.005845467983966595,0.003448037575589248,0.34998250007629395,2019-07-25 12:05:47:468,-46.072029524003945,-92.5794472078672,0,-43.78217315673828,33.586326599121094,-27.88864517211914
0.033576786518096924,-0.1266319751739502,9.86670207977295,0.002507179432944107,0.007443754749501942,0.001849750680016738,0.3599817752838135,2019-07-25 12:05:47:478,-48.750868706668264,-94.31455975027619,0,-43.78217315673828,33.586326599121094,-27.88864517211914
0.014418788254261017,-0.14818471670150757,9.86670207977295,-0.005484254914881281,0.006111849111555819,0.005046324601198921,0.3699803352355957,2019-07-25 12:05:47:488,-51.37760804108409,-96.0079807657475,0,-43.78217315673828,33.586326599121094,-27.88864517211914
0.06710328161716461,-0.16734270751476288,9.778096199035645,-0.00308682476657826,0.006644611366734268,-0.0018795853663067313,0.37999510765075684,2019-07-25 12:05:47:498,-53.945928481218225,-97.66647601373704,0,-43.78217315673828,33.586326599121094,-27.88864517211914
0.02399778738617897,-0.1529742181301117,9.778096199035645,-0.0020213001261841987,0.005845467983966595,0.0037144187031784726,0.39008188247680664,2019-07-25 12:05:47:509,-56.467508269978524,-99.29407578071232,0,-43.78217315673828,33.586326599121094,-27.88864517211914
0.07668227702379227,-0.10268447548151016,9.830780029296875,-0.004152349276935158,0.001316988424838289,0.006378230239145044,0.39998292922973633,2019-07-25 12:05:47:518,-58.92995205839063,-100.89391691431153,0,-43.33235549926758,34.336021423339844,-28.33846092224121
0.11499827355146408,-0.12184246629476547,9.806833267211914,-0.0020213001261841987,0.004779943473609696,0.0002514638006988733,0.409987211227417,2019-07-25 12:05:47:528,-61.340601316835155,-102.46066673305563,0,-43.33235549926758,34.336021423339844,-28.33846092224121
0.021603036671876907,-0.07155272364616394,9.787674903869629,-0.001222156743416525,0.0037144187031784726,-0.0018795853663067313,0.4199869632720947,2019-07-25 12:05:47:538,-63.71334565643922,-104.00239011800277,0,-43.33235549926758,34.336021423339844,-28.33846092224121
0.17726176977157593,-0.08352647721767426,9.634410858154297,0.004904609581247128,0.015435188577178679,0.0005178449445427432,0.42999792098999023,2019-07-25 12:05:47:548,-66.02667396398873,-105.51516488534568,0,-43.33235549926758,34.336021423339844,-28.33846092224121
0.09344552457332611,-0.15536896884441376,9.883464813232422,-0.0028204436389890346,-0.0010804419185204762,-0.0010804419185204762,0.4399833679199219,2019-07-25 12:05:47:558,-68.29470069737528,-106.98526780310266,0,-43.33235549926758,34.336021423339844,-28.33846092224121
-0.023897206410765648,-0.06915797293186188,9.761332511901855,-0.004685111532113607,0.006378230239145044,-0.0026787288791115674,0.44998860359191895,2019-07-25 12:05:47:568,-63.335195293788075,-108.43481183519698,0,-43.33235549926758,34.336021423339844,-28.33846092224121
0.014418788254261017,-0.1338162124156952,9.9888334274292,-0.001222156743416525,0.006910992494323493,-0.0002812985032435118,0.45998573303222656,2019-07-25 12:05:47:578,-65.67071666950933,-109.8500791237948,0,-43.33235549926758,34.336021423339844,-28.33846092224121
0.04555053263902664,-0.13621096312999725,9.847543716430664,-0.0038859681493459333,-0.0013468231111282822,0.0005178449445427432,0.46999573707580566,2019-07-25 12:05:47:588,-67.95124486178207,-111.23504412936165,0,-43.33235549926758,34.336021423339844,-28.33846092224121
0.02399778738617897,-0.09789497405290604,9.825990676879883,-0.00015663211927710938,0.006111849111555819,-0.004010634517057691,0.4799833297729492,2019-07-25 12:05:47:598,-70.19284886427334,-112.59883918775104,0,-43.33235549926758,34.336021423339844,-28.33846092224121
0.07668227702379227,-0.119447723031044,9.86191177368164,-0.001222156743416525,-0.004277015644646915,-0.006674446053024261,0.48998546600341797,2019-07-25 12:05:47:608,-72.37767983428283,-113.93229733829467,0,-43.33235549926758,34.336021423339844,-28.33846092224121
-0.035870954394340515,-0.16015847027301788,9.842754364013672,-0.004685111532113607,0.00557908685637737,-0.0018795853663067313,0.49999046325683594,2019-07-25 12:05:47:618,-67.33743661140188,-115.23237502936759,0,-43.33235549926758,34.336021423339844,-28.33846092224121
-0.028686705976724625,-0.12184246629476547,9.926569938659668,-0.0017549189985949741,0.0005178449445427432,-0.0032114911342900165,0.5099966526031494,2019-07-25 12:05:47:628,-62.3942903904031,-116.51267684007368,0,-43.33235549926758,34.336021423339844,-28.33846092224121
-0.03826570510864258,-0.10986872017383575,9.895438194274902,-0.003619587021756709,0.002116131807605963,-0.0032114911342900165,0.5199837684631348,2019-07-25 12:05:47:638,-57.552022495607,-117.76767098885298,0,-43.33235549926758,34.336021423339844,-28.33846092224121
-0.06700269877910614,-0.15057946741580963,9.823596000671387,-0.005750636042470505,0.003980799830767698,-0.007207208308202711,0.529984712600708,2019-07-25 12:05:47:648,-52.8110331670878,-118.99152467602333,0,-44.53186798095703,35.235652923583984,-26.539194107055664
-0.05502895265817642,-0.10747396945953369,9.840359687805176,0.0011752736649608213,0.005312705728788145,-0.002412347751522343,0.5399842262268066,2019-07-25 12:05:47:658,-48.16420352233443,-120.19983915651838,0,-44.53186798095703,35.235652923583984,-26.539194107055664
-0.002344459993764758,-0.13860571384429932,9.852333068847656,-0.0025540625113998103,0.0071773736219127166,-0.007473589435791935,0.5499837398529053,2019-07-25 12:05:47:668,-43.60522202332792,-121.37828830375875,0,-44.53186798095703,35.235652923583984,-26.539194107055664
-0.028686705976724625,-0.10507921874523163,9.828385353088379,0.004371847326068679,0.002116131807605963,-0.009604638456505731,0.5599973201751709,2019-07-25 12:05:47:678,-39.13765204562917,-122.5409296802351,0,-44.53186798095703,35.235652923583984,-26.539194107055664
-0.04066045582294464,-0.10986872017383575,9.835570335388184,-0.000955775550808719,0.001849750680016738,-0.009604638456505731,0.569983720779419,2019-07-25 12:05:47:688,-34.76067343703273,-123.67677517594679,0,-44.53186798095703,35.235652923583984,-26.539194107055664
-0.05502895265817642,-0.073947474360466,9.854727745056152,0.0017080359201392707,0.005845467983966595,-0.009071876201327283,0.5799875259399414,2019-07-25 12:05:47:698,-30.47514218348147,-124.79560058738298,0,-44.53186798095703,35.235652923583984,-26.539194107055664
0.004839789122343063,-0.1266319751739502,9.92896556854248,0.0003761301846652757,0.0015833695524275135,-0.016264167166384996,0.589984655380249,2019-07-25 12:05:47:708,-33.465969577767346,-125.88528573327865,0,-44.53186798095703,35.235652923583984,-26.539194107055664
-0.021502457559108734,-0.05957897752523422,9.82120132446289,-0.0028204436389890346,0.003448037575589248,-0.010936544614600505,0.600008487701416,2019-07-25 12:05:47:718,-29.20109972289711,-126.95904111381012,0,-44.53186798095703,35.235652923583984,-26.539194107055664
-0.05981845408678055,-0.05718422681093216,9.869096755981445,-0.000955775550808719,0.0023825130652323496,-0.019993502952634138,0.609978437423706,2019-07-25 12:05:47:728,-25.02535701137265,-128.01268556573336,0,-44.53186798095703,35.235652923583984,-26.539194107055664
-0.1148976981639862,-0.04999997839331627,9.840359687805176,-0.0038859681493459333,0.007710135877091167,-0.017329691676741896,0.6199827194213867,2019-07-25 12:05:47:738,-20.94256025129266,-129.04442647791112,0,-44.53186798095703,35.235652923583984,-26.539194107055664
-0.016712957993149757,-0.119447723031044,9.86670207977295,-0.005484254914881281,0.005845467983966595,-0.019194359049717818,0.6299889087677002,2019-07-25 12:05:47:748,-16.92893433574918,-130.0465846984481,0,-44.53186798095703,35.235652923583984,-26.539194107055664
0.055129531770944595,-0.119447723031044,9.883464813232422,-0.0006893944232194946,0.0015833695524275135,-0.014133118145671199,0.6399936676025391,2019-07-25 12:05:47:758,-20.184853331529897,-131.0314173090032,0,-44.53186798095703,35.235652923583984,-26.539194107055664
0.03836628422141075,-0.15057946741580963,9.787674903869629,0.0014416547925500459,0.0007842261046412585,-0.01759607332447977,0.6499848365783691,2019-07-25 12:05:47:768,-23.377104415887413,-131.9939696723822,0,-44.53186798095703,33.43638610839844,-28.038583755493164
0.04555053263902664,-0.08592122793197632,9.763727188110352,-0.0028204436389890346,0.003448037575589248,-0.01759607332447977,0.6599893569946289,2019-07-25 12:05:47:778,-26.506153291514195,-132.9424220405713,0,-44.53186798095703,33.43638610839844,-28.038583755493164
0.0742875337600708,-0.12423721700906754,9.792464256286621,-0.0049514926597028315,0.004247180958356922,-0.019194359049717818,0.6699869632720947,2019-07-25 12:05:47:788,-29.569721469923813,-133.86625653165092,0,-44.53186798095703,33.43638610839844,-28.038583755493164
0.06470853090286255,-0.1338162124156952,9.86670207977295,-0.0017549189985949741,0.005845467983966595,-0.017329691676741896,0.6799848079681396,2019-07-25 12:05:47:798,-32.574093435305365,-134.77240580989508,0,-44.53186798095703,33.43638610839844,-28.038583755493164
0.03118203580379486,-0.1529742181301117,9.835570335388184,-0.005750636042470505,-0.0002812985032435118,-0.02105902746299104,0.689995527267456,2019-07-25 12:05:47:808,-35.518820526420555,-135.65590408430646,0,-44.53186798095703,33.43638610839844,-28.038583755493164
0.040761034935712814,-0.1338162124156952,9.82120132446289,-0.005484254914881281,0.002116131807605963,-0.01573140491120655,0.6999998092651367,2019-07-25 12:05:47:818,-38.40487695161711,-136.5240928749813,0,-44.53186798095703,33.43638610839844,-28.038583755493164
0.06470853090286255,-0.14818471670150757,9.792464256286621,-0.0017549189985949741,0.0026488941928215744,-0.01653054777382557,0.7099852561950684,2019-07-25 12:05:47:828,-41.23069250704049,-137.3752877932525,0,-44.53186798095703,33.43638610839844,-28.038583755493164
0.062313780188560486,-0.16015847027301788,9.895438194274902,-0.0060170171700597306,0.001050607232230483,-0.01812883453936092,0.7199852466583252,2019-07-25 12:05:47:838,-43.99945258033275,-138.20585837605427,0,-44.53186798095703,33.43638610839844,-28.038583755493164
0.03118203580379486,-0.12902672588825226,9.840359687805176,-0.001222156743416525,0.004247180958356922,-0.01946074173775299,0.7299935817718506,2019-07-25 12:05:47:848,-46.718219148808885,-139.02603002114722,0,-44.53186798095703,33.43638610839844,-28.038583755493164
0.03836628422141075,-0.061973728239536285,9.78049087524414,-0.0060170171700597306,0.001316988424838289,-0.021325408070431612,0.7399842739105225,2019-07-25 12:05:47:858,-49.3800984633879,-139.8348730627786,0,-44.53186798095703,33.43638610839844,-28.038583755493164
0.09105078130960464,-0.10747396945953369,9.84993839263916,-0.005484254914881281,0.004513562346020471,-0.019194359049717818,0.7499842643737793,2019-07-25 12:05:47:868,-51.98443854718879,-140.62259346366076,0,-44.53186798095703,33.43638610839844,-28.038583755493164
0.02399778738617897,-0.13621096312999725,9.854727745056152,-0.0076153039355950775,0.0071773736219127166,-0.01759607332447977,0.7599837779998779,2019-07-25 12:05:47:878,-54.5459891894414,-141.39002810881374,0,-44.53186798095703,33.43638610839844,-28.038583755493164
0.08147177845239639,-0.10507921874523163,9.835570335388184,-0.0025540625113998103,0.005046324601198921,-0.013333974242754877,0.7699835300445557,2019-07-25 12:05:47:888,-57.04841100121691,-142.14855145090038,0,-44.53186798095703,33.43638610839844,-28.038583755493164
0.09584027528762817,-0.15057946741580963,9.802042961120605,-0.001222156743416525,0.005845467983966595,-0.015198642656028098,0.7799942493438721,2019-07-25 12:05:47:898,-59.49952459561445,-142.8872912196959,0,-44.981685638427734,33.88620376586914,-28.788278579711914
0.08626127988100052,-0.172132208943367,9.89064884185791,-0.007881685063184303,0.0005178449445427432,-0.012801211987576427,0.7899839878082275,2019-07-25 12:05:47:908,-61.89983072674808,-143.6051834173159,0,-44.981685638427734,33.88620376586914,-28.788278579711914
0.04315578565001488,-0.1266319751739502,9.816411972045898,-0.000955775550808719,0.002915275320410799,-0.008006351690970383,0.7999846935272217,2019-07-25 12:05:47:918,-64.25843340701428,-144.3177615227717,0,-44.981685638427734,33.88620376586914,-28.788278579711914
0.05991903319954872,-0.17692171037197113,9.804438591003418,-0.005217873787292057,0.004779943473609696,-0.007207208308202711,0.8099873065948486,2019-07-25 12:05:47:928,-66.56894628872865,-145.00779982287273,0,-44.981685638427734,33.88620376586914,-28.788278579711914
0.1006297767162323,-0.18889546394348145,9.828385353088379,-0.0094799723488683,0.004513562346020471,-0.005342540415078138,0.819993257522583,2019-07-25 12:05:47:938,-68.82837096735486,-145.6802965921811,0,-44.981685638427734,33.88620376586914,-28.788278579711914
0.03118203580379486,-0.16734270751476288,9.840359687805176,0.0011752736649608213,0.010640328280572637,0.0015833695524275135,0.8299787044525146,2019-07-25 12:05:47:948,-71.05413822909073,-146.3478643374285,0,-44.981685638427734,33.88620376586914,-28.788278579711914
0.033576786518096924,-0.20326395332813263,9.790069580078125,-0.005484254914881281,0.004779943473609696,0.00557908685637737,0.8399825096130371,2019-07-25 12:05:47:958,-73.23181031143324,-146.99403809954927,0,-44.981685638427734,33.88620376586914,-28.788278579711914
0.012024038471281528,-0.21284295618534088,9.883464813232422,-0.003353205894167484,0.0026488941928215744,0.005046324601198921,0.849982500076294,2019-07-25 12:05:47:968,-75.36726735548011,-147.6276007457352,0,-44.981685638427734,33.88620376586914,-28.788278579711914
-0.06700269877910614,-0.16734270751476288,9.806833267211914,0.00010974903269408318,0.003980799830767698,0.009574803770215738,0.8599908351898193,2019-07-25 12:05:47:978,-70.26998814069042,-148.25555852800983,0,-44.981685638427734,33.88620376586914,-28.788278579711914
-0.023897206410765648,-0.18410596251487732,9.926569938659668,-0.0025540625113998103,0.003980799830767698,0.011705852790929535,0.8699855804443359,2019-07-25 12:05:47:988,-65.26958108679459,-148.86776339425322,0,-44.981685638427734,33.88620376586914,-28.788278579711914
-0.05502895265817642,-0.16973745822906494,9.818806648254395,0.001974417047728495,0.0037144187031784726,0.01250499669384586,0.8799824714660645,2019-07-25 12:05:47:998,-60.372696610276186,-149.47170897374286,0,-44.981685638427734,33.88620376586914,-28.788278579711914
-0.1292661875486374,-0.15057946741580963,9.785280227661133,0.0030399416881225563,0.0005178449445427432,0.012238615046107985,0.8899860382080078,2019-07-25 12:05:48:008,-55.58067052413796,-150.06634995012047,0,-44.981685638427734,33.88620376586914,-28.788278579711914
-0.035870954394340515,-0.10507921874523163,9.888254165649414,0.003572703943301005,0.006378230239145044,0.013037758949024307,0.8999860286712646,2019-07-25 12:05:48:018,-50.87679542049918,-150.65485220856593,0,-44.53186798095703,34.336021423339844,-27.13895034790039
-0.04066045582294464,-0.15057946741580963,9.79964828491211,0.001974417047728495,0.0031816564480000235,0.013037758949024307,0.9099924564361572,2019-07-25 12:05:48:028,-46.26580173322527,-151.22525798158068,0,-44.53186798095703,34.336021423339844,-27.13895034790039
0.007234538905322552,-0.1529742181301117,9.833174705505371,-0.0020213001261841987,0.0031816564480000235,0.013037758949024307,0.9199714660644531,2019-07-25 12:05:48:038,-48.94142536272847,-151.78179473212796,0,-44.53186798095703,34.336021423339844,-27.13895034790039
0.002445039339363575,-0.1529742181301117,9.825990676879883,0.0022407983053548824,0.002915275320410799,0.013304139556464882,0.9299869537353516,2019-07-25 12:05:48:048,-51.56395117120068,-152.32958044590612,0,-44.53186798095703,34.336021423339844,-27.13895034790039
0.019208287820219994,-0.16494795680046082,9.82120132446289,0.003572703943301005,0.007710135877091167,0.006111849111555819,0.9399840831756592,2019-07-25 12:05:48:058,-54.13475895906326,-152.86575038373306,0,-44.53186798095703,34.336021423339844,-27.13895034790039
0.12218252569437027,-0.18171121180057526,9.893043518066406,-0.0017549189985949741,0.00557908685637737,0.016767094735273453,0.9499979019165039,2019-07-25 12:05:48:068,-56.64104902219138,-153.38640330647226,0,-44.53186798095703,34.336021423339844,-27.13895034790039
0.06949803233146667,-0.09550022333860397,9.79964828491211,-0.0017549189985949741,0.002116131807605963,0.006910992494323493,0.9599816799163818,2019-07-25 12:05:48:078,-59.1012877477516,-153.90652455030624,0,-44.53186798095703,34.336021423339844,-27.13895034790039
0.08386652916669846,-0.09550022333860397,9.794858932495117,-0.00042301326312097924,0.0015833695524275135,0.009308423162775165,0.9699850082397461,2019-07-25 12:05:48:088,-61.51033991426107,-154.41698409508612,0,-44.53186798095703,34.336021423339844,-27.13895034790039
0.1269720196723938,-0.08592122793197632,9.840359687805176,0.0009088924723530155,0.007443754749501942,0.006111849111555819,0.9799833297729492,2019-07-25 12:05:48:098,-63.86952692779917,-154.9191493468702,0,-44.53186798095703,34.336021423339844,-27.13895034790039
0.10781402885913849,-0.06676322966814041,9.828385353088379,0.0009088924723530155,0.001050607232230483,0.0071773736219127166,0.9899947643280029,2019-07-25 12:05:48:108,-66.18015718003458,-155.41349331615666,0,-44.53186798095703,34.336021423339844,-27.13895034790039
0.05991903319954872,-0.047605227679014206,9.871491432189941,0.0022407983053548824,-0.0005476796633420271,0.001316988424838289,0.9999957084655762,2019-07-25 12:05:48:118,-68.44929097057542,-155.90095564334442,0,-44.53186798095703,34.336021423339844,-27.13895034790039
0.05273478478193283,-0.06436847895383835,9.814017295837402,-0.0028204436389890346,0.006378230239145044,-0.0016132042387175067,1.0099754333496094,2019-07-25 12:05:48:128,-70.6777218370862,-156.37384030743004,0,-44.53186798095703,34.336021423339844,-27.13895034790039
0.10302452743053436,-0.08352647721767426,9.82120132446289,-0.0014885378710057496,0.006644611366734268,-0.006408064925435037,1.0199835300445557,2019-07-25 12:05:48:138,-72.85588113311489,-156.83578156679454,0,-44.53186798095703,34.336021423339844,-27.13895034790039
0.13176152110099792,-0.04521048069000244,9.835570335388184,0.0003761301846652757,0.008775660907596714,-0.006674446053024261,1.0299839973449707,2019-07-25 12:05:48:148,-74.98834100359308,-157.2940098286808,0,-43.18241882324219,35.08571243286133,-27.88864517211914
0.09105078130960464,-0.04999997839331627,9.845149040222168,-0.00015663211927710938,0.004513562346020471,-0.004277015644646915,1.0399961471557617,2019-07-25 12:05:48:158,-77.0805141656795,-157.7422219325681,0,-43.18241882324219,35.08571243286133,-27.88864517211914
0.1197877749800682,-0.1002897247672081,9.814017295837402,-0.0025540625113998103,0.007443754749501942,-0.009604638456505731,1.049985408782959,2019-07-25 12:05:48:168,-79.12909294864215,-158.1742351945373,0,-43.18241882324219,35.08571243286133,-27.88864517211914
0.12457727640867233,-0.07634222507476807,9.761332511901855,-0.001222156743416525,0.0071773736219127166,-0.009071876201327283,1.0599839687347412,2019-07-25 12:05:48:178,-81.13591684410531,-158.6011024627726,0,-43.18241882324219,35.08571243286133,-27.88864517211914
0.07189278304576874,-0.1984744668006897,9.80922794342041,0.003572703943301005,0.008775660907596714,-0.008272732818559609,1.0699849128723145,2019-07-25 12:05:48:188,-83.10972811797022,-159.00790401535568,0,-43.18241882324219,35.08571243286133,-27.88864517211914
0.09584027528762817,-0.19368496537208557,9.79964828491211,-0.0020213001261841987,0.0026488941928215744,-0.010137400711684182,1.0799829959869385,2019-07-25 12:05:48:198,-85.03781395712247,-159.40396571646627,0,-43.18241882324219,35.08571243286133,-27.88864517211914
0.03597153350710869,-0.172132208943367,9.80922794342041,-0.0017549189985949741,0.00797651700468039,-0.012002069124957404,1.0899949073791504,2019-07-25 12:05:48:208,-86.93733963479353,-159.79479339500486,0,-43.18241882324219,35.08571243286133,-27.88864517211914
0.10781402885913849,-0.15536896884441376,9.857122421264648,0.0033063228157117807,0.0071773736219127166,-0.010137400711684182,1.0999836921691895,2019-07-25 12:05:48:218,-88.79008525208354,-160.1826913979501,0,-43.18241882324219,35.08571243286133,-27.88864517211914
0.1461300253868103,-0.15536896884441376,9.818806648254395,0.00010974903269408318,0.009841185417953615,-0.009338257849065158,1.1099843978881836,2019-07-25 12:05:48:228,-90.60275672856253,-160.560968189825,0,-43.18241882324219,35.08571243286133,-27.88864517211914
0.07668227702379227,-0.21523770689964294,9.854727745056152,-0.00042301326312097924,0.006111849111555819,-0.007207208308202711,1.1199824810028076,2019-07-25 12:05:48:238,-92.38521623483075,-160.92448731680022,0,-43.18241882324219,35.08571243286133,-27.88864517211914
0.1389457732439041,-0.18889546394348145,9.895438194274902,-0.004418730404524382,0.006111849111555819,-0.006141683797845812,1.1299970149993896,2019-07-25 12:05:48:248,-94.12485949480202,-161.28164095977348,0,-43.18241882324219,35.08571243286133,-27.88864517211914
0.16289326548576355,-0.22960621118545532,9.895438194274902,-0.0028204436389890346,0.00557908685637737,-0.009604638456505731,1.140071153640747,2019-07-25 12:05:48:259,-95.82665645050756,-161.62782854177172,0,-43.18241882324219,35.08571243286133,-27.88864517211914
0.21557776629924774,-0.13621096312999725,9.854727745056152,0.000642511344763791,0.00557908685637737,-0.005875302670256588,1.1499998569488525,2019-07-25 12:05:48:268,-97.48817007953872,-161.97979245726737,0,-43.482295989990234,34.78583526611328,-27.58876609802246
0.22276201844215393,-0.09550022333860397,9.797253608703613,0.0022407983053548824,0.001050607232230483,-0.01067016296686263,1.159984827041626,2019-07-25 12:05:48:278,-99.1129452937093,-162.330283289075,0,-43.482295989990234,34.78583526611328,-27.58876609802246
0.18444602191448212,-0.1457899659872055,9.806833267211914,-0.001222156743416525,0.003980799830767698,-0.003744253389468466,1.1699855327606201,2019-07-25 12:05:48:288,-100.71137202453824,-162.66595722420996,0,-43.482295989990234,34.78583526611328,-27.58876609802246
0.179656520485878,-0.09789497405290604,9.816411972045898,-0.00015663211927710938,0.0071773736219127166,-0.002145966493895956,1.1799910068511963,2019-07-25 12:05:48:298,-102.28020707251466,-163.00112272440347,0,-43.482295989990234,34.78583526611328,-27.58876609802246
0.15570901334285736,-0.1529742181301117,9.873886108398438,-0.003353205894167484,0.006111849111555819,0.001849750680016738,1.1899611949920654,2019-07-25 12:05:48:308,-103.81995515601864,-163.3214710328278,0,-43.482295989990234,34.78583526611328,-27.58876609802246
0.16289326548576355,-0.15776371955871582,9.751753807067871,-0.0020213001261841987,0.001050607232230483,0.002915275320410799,1.1999659538269043,2019-07-25 12:05:48:318,-105.32500665767776,-163.63536912751383,0,-43.482295989990234,34.78583526611328,-27.58876609802246
0.18684077262878418,-0.1912902146577835,9.773306846618652,-0.0017549189985949741,0.005312705728788145,-0.004277015644646915,1.2099604606628418,2019-07-25 12:05:48:328,-106.79958363922492,-163.93925107814292,0,-43.482295989990234,34.78583526611328,-27.58876609802246
0.12457727640867233,-0.2056587040424347,9.814017295837402,-0.000955775550808719,0.0071773736219127166,0.013037758949024307,1.219970703125,2019-07-25 12:05:48:338,-108.25308092554475,-164.2359189959021,0,-43.482295989990234,34.78583526611328,-27.58876609802246
0.09105078130960464,-0.172132208943367,9.775701522827148,-0.0006893944232194946,0.0023825130652323496,0.012771377301286432,1.2299549579620361,2019-07-25 12:05:48:348,-109.67868224136701,-164.5306387404847,0,-43.482295989990234,34.78583526611328,-27.58876609802246
0.05752428248524666,-0.16015847027301788,9.847543716430664,-0.0028204436389890346,0.002915275320410799,0.017299856990451903,1.2400705814361572,2019-07-25 12:05:48:359,-111.0800706733271,-164.81978868170057,0,-43.482295989990234,34.78583526611328,-27.58876609802246
5.028974192100577e-05,-0.22002720832824707,9.768516540527344,0.003572703943301005,0.001050607232230483,0.015435188577178679,1.24997878074646,2019-07-25 12:05:48:368,-112.45904785959584,-165.09957418750594,0,-43.482295989990234,34.78583526611328,-27.58876609802246
-0.031081456691026688,-0.17692171037197113,9.828385353088379,-0.00308682476657826,0.010373947673132064,0.016767094735273453,1.2599906921386719,2019-07-25 12:05:48:378,-106.61932264954312,-165.3752218821504,0,-43.482295989990234,34.78583526611328,-27.58876609802246
-0.05502895265817642,-0.19368496537208557,9.89064884185791,-0.00042301326312097924,-0.0002812985032435118,0.017033475342714027,1.269984483718872,2019-07-25 12:05:48:388,-100.89315385118717,-165.6450428917216,0,-43.482295989990234,34.78583526611328,-27.58876609802246
-0.08855544775724411,-0.15057946741580963,9.814017295837402,0.0003761301846652757,0.0031816564480000235,0.015435188577178679,1.2799859046936035,2019-07-25 12:05:48:398,-95.28741725634796,-165.9147725068047,0,-42.732601165771484,34.63589859008789,-27.738706588745117
-0.031081456691026688,-0.1338162124156952,9.823596000671387,0.002507179432944107,0.005046324601198921,0.013037758949024307,1.2899858951568604,2019-07-25 12:05:48:408,-89.78812803096203,-166.18227623112904,0,-42.732601165771484,34.63589859008789,-27.738706588745117
-0.014318208210170269,-0.119447723031044,9.842754364013672,-0.00042301326312097924,0.004247180958356922,0.015168807969738105,1.2999849319458008,2019-07-25 12:05:48:418,-84.39641698377852,-166.44448751818737,0,-42.732601165771484,34.63589859008789,-27.738706588745117
-0.02629195712506771,-0.12423721700906754,9.86670207977295,0.00010974903269408318,0.003448037575589248,0.013836901811643333,1.3099985122680664,2019-07-25 12:05:48:428,-79.11348087392751,-166.70123136769928,0,-42.732601165771484,34.63589859008789,-27.738706588745117
5.028974192100577e-05,-0.04999997839331627,9.794858932495117,0.005437371836425577,0.006644611366734268,0.00797651700468039,1.3199834823608398,2019-07-25 12:05:48:438,-81.13493070564688,-166.96440570502872,0,-42.732601165771484,34.63589859008789,-27.738706588745117
-0.016712957993149757,-0.08352647721767426,9.842754364013672,-0.003353205894167484,0.0026488941928215744,0.006910992494323493,1.3299846649169922,2019-07-25 12:05:48:448,-75.91566537617769,-167.2135104408948,0,-42.732601165771484,34.63589859008789,-27.738706588745117
0.028787286952137947,-0.09550022333860397,9.871491432189941,0.004904609581247128,0.0002514638006988733,0.0002514638006988733,1.3399872779846191,2019-07-25 12:05:48:458,-77.99415158749466,-167.46090924527024,0,-42.732601165771484,34.63589859008789,-27.738706588745117
-0.19871392846107483,-0.16015847027301788,9.840359687805176,-0.0006893944232194946,-0.0029451100067007917,-0.004277015644646915,1.3499948978424072,2019-07-25 12:05:48:468,-72.85575082788864,-167.69265477123048,0,-42.732601165771484,34.63589859008789,-27.738706588745117
-0.1412399411201477,-0.2894749343395233,9.857122421264648,-0.0060170171700597306,0.006378230239145044,-0.015465023263468674,1.360015869140625,2019-07-25 12:05:48:479,-67.81864306888598,-167.9017735142816,0,-42.732601165771484,34.63589859008789,-27.738706588745117
-0.1292661875486374,-0.15057946741580963,10.017570495605469,-0.009213590701130425,0.002915275320410799,-0.020526266248109888,1.3699862957000732,2019-07-25 12:05:48:488,-62.878688301805845,-168.12135635108433,0,-42.732601165771484,34.63589859008789,-27.738706588745117
-0.009528708644211292,-0.03084198199212551,9.888254165649414,-0.007348922808005853,-0.002412347751522343,-0.01466588040084965,1.37998628616333,2019-07-25 12:05:48:498,-58.02086425584266,-168.3512286587635,0,-42.732601165771484,34.63589859008789,-27.738706588745117
0.040761034935712814,0.06255325675010681,9.706253051757812,-0.005217873787292057,0.004513562346020471,-0.014932261008290223,1.3899850845336914,2019-07-25 12:05:48:508,-60.458168825315525,-161.3886595139316,0,-42.732601165771484,34.63589859008789,-27.738706588745117
0.004839789122343063,0.012263513170182705,9.830780029296875,0.0017080359201392707,0.002116131807605963,-0.015465023263468674,1.3999900817871094,2019-07-25 12:05:48:518,-62.849630102312894,-154.5632753468543,0,-44.83174514770508,34.63589859008789,-28.038583755493164
-0.023897206410765648,-0.0068944841623306274,9.847543716430664,-0.005484254914881281,0.004513562346020471,-0.012002069124957404,1.4099838733673096,2019-07-25 12:05:48:528,-57.99795109387318,-155.06813006923196,0,-44.83174514770508,34.63589859008789,-28.038583755493164
-0.028686705976724625,-0.09071072190999985,9.823596000671387,-0.0025540625113998103,-0.0008140607909312516,-0.017862453931920343,1.4199867248535156,2019-07-25 12:05:48:538,-53.240881122269826,-155.5547519148666,0,-44.83174514770508,34.63589859008789,-28.038583755493164
-0.07658170163631439,-0.073947474360466,9.782885551452637,-0.006549779425238179,0.003980799830767698,-0.014932261008290223,1.4299821853637695,2019-07-25 12:05:48:548,-48.587267892028734,-156.0313192018483,0,-44.83174514770508,34.63589859008789,-28.038583755493164
-0.023897206410765648,-0.073947474360466,9.86191177368164,-0.004152349276935158,0.009574803770215738,-0.013067593635314302,1.4399967193603516,2019-07-25 12:05:48:558,-44.023683343817765,-156.49976564431145,0,-44.83174514770508,34.63589859008789,-28.038583755493164
-0.043055206537246704,-0.06436847895383835,9.87867546081543,-0.006283398297648954,0.006910992494323493,-0.012002069124957404,1.4499871730804443,2019-07-25 12:05:48:568,-39.5520808108012,-156.95877901211443,0,-44.83174514770508,34.63589859008789,-28.038583755493164
-0.043055206537246704,-0.09789497405290604,9.845149040222168,-0.004418730404524382,0.0023825130652323496,-0.010137400711684182,1.4599857330322266,2019-07-25 12:05:48:578,-35.16738811254004,-157.40572867278595,0,-44.83174514770508,34.63589859008789,-28.038583755493164
-0.03347620740532875,-0.10268447548151016,9.79964828491211,-0.0025540625113998103,0.004513562346020471,-0.006674446053024261,1.4699914455413818,2019-07-25 12:05:48:588,-30.87049066078633,-157.84417227358315,0,-44.83174514770508,34.63589859008789,-28.038583755493164
0.01681353710591793,-0.15536896884441376,9.828385353088379,-0.005484254914881281,0.007443754749501942,-0.005342540415078138,1.4799935817718506,2019-07-25 12:05:48:598,-33.85530106892574,-158.26609542762412,0,-44.83174514770508,34.63589859008789,-28.038583755493164
0.09105078130960464,-0.08352647721767426,9.924175262451172,0.000642511344763791,0.0015833695524275135,0.0026488941928215744,1.4899828433990479,2019-07-25 12:05:48:608,-36.76857007934007,-158.6914895697717,0,-44.83174514770508,34.63589859008789,-28.038583755493164
0.033576786518096924,-0.10507921874523163,9.814017295837402,0.001974417047728495,-0.0013468231111282822,0.008242898132269616,1.4999818801879883,2019-07-25 12:05:48:618,-39.628521995130185,-159.10649939214454,0,-44.83174514770508,34.63589859008789,-28.038583755493164
0.05273478478193283,-0.20326395332813263,9.857122421264648,-0.00015663211927710938,0.007710135877091167,0.010373947673132064,1.5099849700927734,2019-07-25 12:05:48:628,-42.43415162914886,-159.50065482456841,0,-44.83174514770508,34.63589859008789,-28.038583755493164
0.012024038471281528,-0.23918519914150238,9.84993839263916,-0.001222156743416525,0.00557908685637737,0.013037758949024307,1.5199849605560303,2019-07-25 12:05:48:638,-45.187202399350035,-159.88213478794628,0,-44.83174514770508,34.63589859008789,-28.038583755493164
0.06470853090286255,-0.2248167097568512,9.782885551452637,0.0017080359201392707,0.006644611366734268,0.011173090535751088,1.5299949645996094,2019-07-25 12:05:48:648,-47.879613518738516,-160.2591229026738,0,-44.53186798095703,34.93577575683594,-28.038583755493164
0.04555053263902664,-0.20805345475673676,9.818806648254395,0.0027735605605333316,-1.491734416091191e-05,0.019963669306641448,1.5399844646453857,2019-07-25 12:05:48:658,-50.51669688975635,-160.6312186652392,0,-44.53186798095703,34.93577575683594,-28.038583755493164
0.08147177845239639,-0.21044820547103882,9.782885551452637,-0.00042301326312097924,0.007710135877091167,0.02182833563932007,1.5499870777130127,2019-07-25 12:05:48:668,-53.10115036042613,-160.99370971763807,0,-44.53186798095703,34.93577575683594,-28.038583755493164
0.08865603059530258,-0.17692171037197113,9.86670207977295,-0.0025540625113998103,0.009841185417953615,0.02369300405259329,1.559983253479004,2019-07-25 12:05:48:678,-55.63435484659076,-161.35185654062528,0,-44.53186798095703,34.93577575683594,-28.038583755493164
0.09105078130960464,-0.16255322098731995,9.845149040222168,-0.000955775550808719,-0.002412347751522343,0.02076281112896317,1.570000171661377,2019-07-25 12:05:48:688,-58.10971347190516,-161.70536334595775,0,-44.53186798095703,34.93577575683594,-28.038583755493164
0.08147177845239639,-0.09789497405290604,9.835570335388184,-0.003353205894167484,0.004513562346020471,0.017832620285927653,1.5800838470458984,2019-07-25 12:05:48:699,-60.540582929355686,-162.05795240294248,0,-44.53186798095703,34.93577575683594,-28.038583755493164
0.09823502600193024,-0.11226347088813782,9.790069580078125,-0.0014885378710057496,0.007443754749501942,0.018099000893368224,1.5899841785430908,2019-07-25 12:05:48:708,-62.92241136793825,-162.402826148176,0,-44.53186798095703,34.93577575683594,-28.038583755493164
0.08386652916669846,-0.16015847027301788,9.79964828491211,-0.005484254914881281,0.0007842261046412585,0.020496430521522595,1.5999834537506104,2019-07-25 12:05:48:718,-65.25459681114036,-162.73296408585003,0,-44.53186798095703,34.93577575683594,-28.038583755493164
0.019208287820219994,-0.17692171037197113,9.84993839263916,0.0003761301846652757,0.004779943473609696,0.01250499669384586,1.6099836826324463,2019-07-25 12:05:48:728,-67.54995422990655,-163.0579356181709,0,-44.53186798095703,34.93577575683594,-28.038583755493164
0.014418788254261017,-0.18650071322917938,9.876280784606934,0.0003761301846652757,-0.0026787288791115674,0.01197223443866741,1.6199924945831299,2019-07-25 12:05:48:738,-69.79577674919886,-163.37535173503187,0,-44.53186798095703,34.93577575683594,-28.038583755493164
0.002445039339363575,-0.20805345475673676,9.83796501159668,-0.00308682476657826,0.006378230239145044,0.007710135877091167,1.6299829483032227,2019-07-25 12:05:48:748,-72.00315436739275,-163.68188287604855,0,-44.53186798095703,34.93577575683594,-28.038583755493164
0.04555053263902664,-0.20326395332813263,9.833174705505371,-0.00015663211927710938,0.0015833695524275135,0.004513562346020471,1.6399850845336914,2019-07-25 12:05:48:758,-74.15867230600318,-163.98447312331112,0,-44.53186798095703,34.93577575683594,-28.038583755493164
0.028787286952137947,-0.20805345475673676,9.876280784606934,-0.005750636042470505,-0.0005476796633420271,-0.002145966493895956,1.649986982345581,2019-07-25 12:05:48:768,-76.27185118600323,-164.27741781789666,0,-43.482295989990234,35.68547058105469,-26.689132690429688
-0.01910770870745182,-0.1793164610862732,9.823596000671387,-0.003353205894167484,-0.002412347751522343,-0.004010634517057691,1.659996747970581,2019-07-25 12:05:48:778,-71.14728720754155,-164.56906998546063,0,-43.482295989990234,35.68547058105469,-26.689132690429688
-0.03347620740532875,-0.15536896884441376,9.84993839263916,-0.005484254914881281,0.0015833695524275135,-0.008539113946148834,1.6699740886688232,2019-07-25 12:05:48:788,-66.12912302647938,-164.85654244874178,0,-43.482295989990234,35.68547058105469,-26.689132690429688
-0.04784470424056053,-0.14818471670150757,9.835570335388184,-0.005750636042470505,0.003448037575589248,-0.01173568747721953,1.6799840927124023,2019-07-25 12:05:48:798,-61.21405278380441,-165.1389161023648,0,-43.482295989990234,35.68547058105469,-26.689132690429688
0.026392536237835884,-0.08352647721767426,9.825990676879883,-0.003619587021756709,0.001050607232230483,-0.014932261008290223,1.6899878978729248,2019-07-25 12:05:48:808,-63.58728395397195,-165.42436391787018,0,-43.482295989990234,35.68547058105469,-26.689132690429688
0.047945283353328705,-0.07873697578907013,9.814017295837402,0.000642511344763791,-0.0008140607909312516,-0.012268449732397976,1.6999938488006592,2019-07-25 12:05:48:818,-65.90948271099666,-165.70704424324853,0,-43.482295989990234,35.68547058105469,-26.689132690429688
-0.014318208210170269,-0.09550022333860397,9.852333068847656,0.000642511344763791,0.004247180958356922,-0.019727122345193568,1.7099800109863281,2019-07-25 12:05:48:828,-60.99533987923644,-165.98215643513134,0,-43.482295989990234,35.68547058105469,-26.689132690429688
0.03836628422141075,-0.1529742181301117,9.840359687805176,-0.0038859681493459333,-1.491734416091191e-05,-0.01812883453936092,1.7199828624725342,2019-07-25 12:05:48:838,-63.37095694979399,-166.24251821682952,0,-43.482295989990234,35.68547058105469,-26.689132690429688
0.040761034935712814,-0.07873697578907013,9.859517097473145,-0.003353205894167484,0.003980799830767698,-0.019727122345193568,1.7299857139587402,2019-07-25 12:05:48:848,-65.70103626560629,-166.5066335387598,0,-43.482295989990234,35.68547058105469,-26.689132690429688
0.03597153350710869,-0.12423721700906754,9.89064884185791,-0.0025540625113998103,0.001050607232230483,-0.01892797844227724,1.7399837970733643,2019-07-25 12:05:48:858,-67.98343775274626,-166.76067386147724,0,-43.482295989990234,35.68547058105469,-26.689132690429688
0.03118203580379486,-0.1002897247672081,9.845149040222168,-0.0028204436389890346,0.0023825130652323496,-0.01759607332447977,1.7499945163726807,2019-07-25 12:05:48:868,-70.22147882197646,-167.01220229991313,0,-43.482295989990234,35.68547058105469,-26.689132690429688
0.002445039339363575,-0.073947474360466,9.86191177368164,-0.0014885378710057496,0.003448037575589248,-0.014133118145671199,1.7599856853485107,2019-07-25 12:05:48:878,-72.41869950019107,-167.26253093365938,0,-43.482295989990234,35.68547058105469,-26.689132690429688
0.09584027528762817,-0.06915797293186188,9.761332511901855,0.0003761301846652757,0.00557908685637737,-0.01067016296686263,1.7699897289276123,2019-07-25 12:05:48:888,-74.56220877645806,-167.5093730462181,0,-43.482295989990234,35.68547058105469,-26.689132690429688
0.01681353710591793,-0.06915797293186188,9.797253608703613,-0.001222156743416525,0.00557908685637737,-0.008272732818559609,1.7799835205078125,2019-07-25 12:05:48:898,-76.67212874691805,-167.7504109864712,0,-44.381927490234375,33.28644561767578,-27.58876609802246
-0.14363469183444977,-0.08831597119569778,9.787674903869629,0.005170990708836353,0.007710135877091167,-0.0016132042387175067,1.7899982929229736,2019-07-25 12:05:48:908,-71.55983696823898,-167.9879710359346,0,-44.381927490234375,33.28644561767578,-27.58876609802246
-0.10292394459247589,-0.2631326913833618,9.981649398803711,-0.014008452038033768,0.01250499669384586,0.0007842261046412585,1.8000690937042236,2019-07-25 12:05:48:919,-66.54752695995735,-168.1900889739438,0,-44.381927490234375,33.28644561767578,-27.58876609802246
-0.14602944254875183,-0.1984744668006897,9.89064884185791,0.002507179432944107,0.0005178449445427432,-0.0005476796633420271,1.8099830150604248,2019-07-25 12:05:48:928,-61.633782207866524,-168.40469098910157,0,-44.381927490234375,33.28644561767578,-27.58876609802246
-0.14602944254875183,-0.07873697578907013,9.794858932495117,-0.0028204436389890346,0.012238615046107985,0.009841185417953615,1.81998610496521,2019-07-25 12:05:48:938,-56.825063595932534,-168.625801643392,0,-44.381927490234375,33.28644561767578,-27.58876609802246
-0.24181942641735077,0.007474013604223728,10.017570495605469,0.002507179432944107,0.010373947673132064,0.012771377301286432,1.8299829959869385,2019-07-25 12:05:48:948,-52.122041961229975,-161.65554790720023,0,-44.381927490234375,33.28644561767578,-27.58876609802246
-0.11729244887828827,0.017053011804819107,10.03912353515625,-0.008414447318362751,0.012771377301286432,0.02262747954223639,1.8399903774261475,2019-07-25 12:05:48:958,-47.50016526179278,-154.81965527470686,0,-44.381927490234375,33.28644561767578,-27.58876609802246
0.13176152110099792,-0.1266319751739502,9.991229057312012,-0.003619587021756709,0.004247180958356922,0.028487865389496634,1.8499634265899658,2019-07-25 12:05:48:968,-50.13742917888647,-155.30671233700033,0,-44.381927490234375,33.28644561767578,-27.58876609802246
0.055129531770944595,-0.08113172650337219,9.82120132446289,0.016891760842910886,0.014103283459381206,0.02768872148658031,1.8599913120269775,2019-07-25 12:05:48:978,-52.73618933048299,-155.8006231881941,0,-44.381927490234375,33.28644561767578,-27.58876609802246
0.4478684961795807,-0.040420979261398315,9.818806648254395,0.013961568959578065,0.013570521204202757,0.0362129196500301,1.8699729442596436,2019-07-25 12:05:48:988,-55.23683855257458,-156.28771837502126,0,-44.381927490234375,33.28644561767578,-27.58876609802246
0.3233414888381958,-0.16015847027301788,9.787674903869629,0.023817671200528023,0.019963669306641448,0.03914311257366022,1.8800334930419922,2019-07-25 12:05:48:999,-57.70553700680711,-156.75666930796714,0,-44.381927490234375,33.28644561767578,-27.58876609802246
0.3113677501678467,-0.2583431899547577,9.811622619628906,0.016358998587732435,0.013570521204202757,0.04233968402413631,1.8899836540222168,2019-07-25 12:05:49:008,-60.12265516644177,-157.20051033983165,0,-44.381927490234375,33.28644561767578,-27.58876609802246
0.3808155059814453,-0.33258044719696045,9.897833824157715,0.0027735605605333316,0.0002514638006988733,0.042073301336101133,1.899984359741211,2019-07-25 12:05:49:018,-62.476276325429176,-157.61956777909194,0,-44.381927490234375,34.485958099365234,-27.58876609802246
0.232341006398201,-0.29905393719673157,9.550594329833984,0.011031376035947943,0.017832620285927653,0.033282724645805374,1.9099977016448975,2019-07-25 12:05:49:028,-64.80890551538144,-158.03750891423667,0,-44.381927490234375,34.485958099365234,-27.58876609802246
0.40476298332214355,-0.217632457613945,9.797253608703613,0.0003761301846652757,0.011173090535751088,0.029819770507294105,1.9199957847595215,2019-07-25 12:05:49:038,-67.07168451658444,-158.45151914550755,0,-44.381927490234375,34.485958099365234,-27.58876609802246
0.46942123770713806,-0.26073795557022095,9.840359687805176,0.0067692774743717005,0.005312705728788145,0.027955102094020884,1.9299890995025635,2019-07-25 12:05:49:048,-69.27860894271599,-158.85593117836095,0,-44.381927490234375,34.485958099365234,-27.58876609802246
0.39278924465179443,-0.16734270751476288,9.70146369934082,0.009433089270412597,0.006378230239145044,0.025024909170390765,1.9399855136871338,2019-07-25 12:05:49:058,-71.45024677041944,-159.2643431291542,0,-44.381927490234375,34.485958099365234,-27.58876609802246
0.41194725036621094,-0.10986872017383575,9.790069580078125,-0.0038859681493459333,0.006378230239145044,0.02129557442443892,1.9499938488006592,2019-07-25 12:05:49:068,-73.5766366967243,-159.6640130234681,0,-44.381927490234375,34.485958099365234,-27.58876609802246
0.2706570029258728,-0.07873697578907013,9.787674903869629,0.0033063228157117807,0.006378230239145044,0.010640328280572637,1.959986686706543,2019-07-25 12:05:49:078,-75.67700301881935,-160.06336980706897,0,-44.381927490234375,34.485958099365234,-27.58876609802246
0.21557776629924774,-0.04281572997570038,9.830780029296875,-0.002287681383810586,0.004513562346020471,0.007443754749501942,1.9700040817260742,2019-07-25 12:05:49:088,-77.74087713408095,-160.4558249029256,0,-44.381927490234375,34.485958099365234,-27.58876609802246
0.16768276691436768,-0.04999997839331627,9.778096199035645,-0.0020213001261841987,0.002915275320410799,0.0037144187031784726,1.9799888134002686,2019-07-25 12:05:49:098,-79.76804484627216,-160.83971562928002,0,-44.381927490234375,34.485958099365234,-27.58876609802246
0.1006297767162323,-0.02365773171186447,9.787674903869629,0.000642511344763791,0.008509279259858839,-0.007207208308202711,1.989995002746582,2019-07-25 12:05:49:108,-81.76568379716001,-161.22051252876187,0,-44.381927490234375,34.485958099365234,-27.58876609802246
0.11020877212285995,-0.09071072190999985,9.847543716430664,-0.0017549189985949741,0.007443754749501942,-0.006141683797845812,1.999990463256836,2019-07-25 12:05:49:118,-83.72172390463801,-161.58456202946007,0,-44.381927490234375,34.485958099365234,-27.58876609802246
0.09823502600193024,-0.1002897247672081,9.828385353088379,-0.0020213001261841987,0.004247180958356922,-0.005608921542667363,2.010003089904785,2019-07-25 12:05:49:128,-85.63822414245858,-161.9400417789868,0,-44.381927490234375,34.485958099365234,-27.58876609802246
0.08386652916669846,-0.18650071322917938,9.814017295837402,-0.0020213001261841987,0.0015833695524275135,-0.013866736497933324,2.0201072692871094,2019-07-25 12:05:49:139,-87.51656569972425,-162.2783203719786,0,-44.381927490234375,34.485958099365234,-27.58876609802246
0.12457727640867233,-0.23439571261405945,9.828385353088379,-0.006283398297648954,0.00904204151503729,-0.01573140491120655,2.0300090312957764,2019-07-25 12:05:49:148,-89.3567376105077,-162.6019369120661,0,-42.882537841796875,34.485958099365234,-28.488401412963867
0.11020877212285995,-0.2655274569988251,9.797253608703613,-0.003619587021756709,0.005845467983966595,-0.020792646855550465,2.0399839878082275,2019-07-25 12:05:49:158,-91.15998706240568,-162.91682159905173,0,-42.882537841796875,34.485958099365234,-28.488401412963867
0.09344552457332611,-0.24876420199871063,9.749359130859375,0.00010974903269408318,0.003448037575589248,-0.018395217227396093,2.0499918460845947,2019-07-25 12:05:49:168,-92.92774189116419,-163.2293140526373,0,-42.882537841796875,34.485958099365234,-28.488401412963867
0.11020877212285995,-0.22721146047115326,9.835570335388184,-0.00015663211927710938,0.0005178449445427432,-0.019727122345193568,2.0599987506866455,2019-07-25 12:05:49:178,-94.65663843591972,-163.53817267933024,0,-42.882537841796875,34.485958099365234,-28.488401412963867
0.1461300253868103,-0.20086920261383057,9.754148483276367,-0.004685111532113607,0.004779943473609696,-0.018395217227396093,2.0699894428253174,2019-07-25 12:05:49:188,-96.34902105615059,-163.84118624817495,0,-42.882537841796875,34.485958099365234,-28.488401412963867
0.10302452743053436,-0.17452695965766907,9.79964828491211,-0.007348922808005853,0.00557908685637737,-0.020259883560074715,2.0799918174743652,2019-07-25 12:05:49:198,-98.01312736533318,-164.13982909229966,0,-42.882537841796875,34.485958099365234,-28.488401412963867
0.05034003406763077,-0.16255322098731995,9.92896556854248,-0.007348922808005853,0.001050607232230483,-0.022657315268823686,2.089986562728882,2019-07-25 12:05:49:208,-99.64764465969336,-164.43414945337545,0,-42.882537841796875,34.485958099365234,-28.488401412963867
0.05034003406763077,-0.1529742181301117,9.852333068847656,-0.0017549189985949741,-1.491734416091191e-05,-0.025054744896978058,2.100005865097046,2019-07-25 12:05:49:218,-101.24882842321067,-164.7266883198305,0,-42.882537841796875,34.485958099365234,-28.488401412963867
0.10781402885913849,-0.15776371955871582,9.790069580078125,0.00010974903269408318,0.009308423162775165,-0.025321125504418632,2.109989643096924,2019-07-25 12:05:49:228,-102.81645105377049,-165.01375162646102,0,-42.882537841796875,34.485958099365234,-28.488401412963867
0.11499827355146408,-0.17452695965766907,9.802042961120605,0.0038390850708902298,0.005312705728788145,-0.026386650014775533,2.119990587234497,2019-07-25 12:05:49:238,-104.34966204395518,-165.295231381839,0,-42.882537841796875,34.485958099365234,-28.488401412963867
0.06949803233146667,-0.15776371955871582,9.828385353088379,-0.0006893944232194946,0.003448037575589248,-0.027984937820608177,2.1299915313720703,2019-07-25 12:05:49:248,-105.8565022430217,-165.57054714360945,0,-42.882537841796875,34.485958099365234,-28.488401412963867
0.055129531770944595,-0.18650071322917938,9.816411972045898,-0.00308682476657826,0.0037144187031784726,-0.027984937820608177,2.1400043964385986,2019-07-25 12:05:49:258,-107.33502506248183,-165.83563224310794,0,-42.882537841796875,34.485958099365234,-28.488401412963867
0.03836628422141075,-0.17452695965766907,9.84993839263916,-0.0025540625113998103,0.00904204151503729,-0.019993502952634138,2.1499903202056885,2019-07-25 12:05:49:268,-108.78893109988493,-166.0971856371894,0,-44.381927490234375,34.78583526611328,-28.788278579711914
0.06470853090286255,-0.16255322098731995,9.806833267211914,-0.005217873787292057,0.003448037575589248,-0.025853888799894382,2.159985065460205,2019-07-25 12:05:49:278,-110.20752653179798,-166.35332124377814,0,-44.381927490234375,34.78583526611328,-28.788278579711914
0.05273478478193283,-0.13142146170139313,9.806833267211914,-0.0049514926597028315,0.0023825130652323496,-0.027718557213167606,2.169989585876465,2019-07-25 12:05:49:288,-111.59855245277194,-166.60811779965817,0,-44.381927490234375,34.78583526611328,-28.788278579711914
0.055129531770944595,-0.16973745822906494,9.83796501159668,-0.003353205894167484,0.0037144187031784726,-0.02931684293840565,2.1799893379211426,2019-07-25 12:05:49:298,-112.96224563165839,-166.85430379453305,0,-44.381927490234375,34.78583526611328,-28.788278579711914
-0.016712957993149757,-0.15536896884441376,9.828385353088379,-0.002287681383810586,0.006378230239145044,-0.031181511351678872,2.1900007724761963,2019-07-25 12:05:49:308,-107.10853478470676,-167.09781837887118,0,-44.381927490234375,34.78583526611328,-28.788278579711914
-0.01910770870745182,-0.073947474360466,9.842754364013672,-0.0060170171700597306,0.007710135877091167,-0.03277979707691692,2.1999871730804443,2019-07-25 12:05:49:318,-101.37291199193224,-167.34387908972693,0,-44.381927490234375,34.78583526611328,-28.788278579711914
0.002445039339363575,-0.08352647721767426,9.797253608703613,-0.0028204436389890346,0.001316988424838289,-0.034644465490190145,2.209989070892334,2019-07-25 12:05:49:328,-102.94590740065811,-167.58564826642134,0,-44.381927490234375,34.78583526611328,-28.788278579711914
0.012024038471281528,-0.08831597119569778,9.811622619628906,-0.0049514926597028315,0.002116131807605963,-0.034644465490190145,2.219989061355591,2019-07-25 12:05:49:338,-104.48677315005818,-167.82084075794998,0,-44.381927490234375,34.78583526611328,-28.788278579711914
-0.050239454954862595,-0.1002897247672081,9.794858932495117,-0.005750636042470505,0.0031816564480000235,-0.036509133903463366,2.230010747909546,2019-07-25 12:05:49:348,-98.80470559657138,-168.04945532700742,0,-44.381927490234375,34.78583526611328,-28.788278579711914
-0.023897206410765648,-0.021262982860207558,9.782885551452637,-0.006549779425238179,0.005845467983966595,-0.039972088041974635,2.2400410175323486,2019-07-25 12:05:49:359,-93.2347028292101,-168.28228676630926,0,-44.381927490234375,34.78583526611328,-28.788278579711914
-0.031081456691026688,-0.002104985062032938,9.91938591003418,-0.00894721009368985,0.004247180958356922,-0.03331256037239267,2.2499866485595703,2019-07-25 12:05:49:368,-87.77597119938459,-168.51140132498665,0,-44.381927490234375,34.78583526611328,-28.788278579711914
-0.0957396999001503,0.06734275817871094,9.940938949584961,-0.0025540625113998103,0.003980799830767698,-0.033578940979833244,2.259986162185669,2019-07-25 12:05:49:378,-82.43372268126278,-161.54750190619052,0,-44.381927490234375,34.78583526611328,-28.788278579711914
-0.19152969121932983,0.07452700287103653,9.938544273376465,0.002507179432944107,0.0026488941928215744,-0.024521981601502308,2.269991159439087,2019-07-25 12:05:49:388,-77.20861698923134,-154.7265531625441,0,-44.381927490234375,34.78583526611328,-28.788278579711914
-0.34239891171455383,-0.04999997839331627,9.818806648254395,0.004904609581247128,0.018631762108249374,-0.02105902746299104,2.2799971103668213,2019-07-25 12:05:49:398,-72.11485647344519,-155.22894241281645,0,-43.93211364746094,34.63589859008789,-27.738706588745117
-0.2466089278459549,-0.119447723031044,9.885859489440918,0.0003761301846652757,0.005312705728788145,-0.01360035589049275,2.2899863719940186,2019-07-25 12:05:49:408,-67.10411886920369,-155.71072947133234,0,-43.93211364746094,34.63589859008789,-27.738706588745117
-0.2394246757030487,-0.20086920261383057,9.787674903869629,0.0027735605605333316,0.011705852790929535,-0.006141683797845812,2.2999911308288574,2019-07-25 12:05:49:418,-62.196638071013616,-156.17455902911004,0,-43.93211364746094,34.63589859008789,-27.738706588745117
-0.17237168550491333,-0.15776371955871582,9.914596557617188,0.0022407983053548824,0.010373947673132064,-0.0010804419185204762,2.3099822998046875,2019-07-25 12:05:49:428,-57.37844560121776,-156.63409236511907,0,-43.93211364746094,34.63589859008789,-27.738706588745117
-0.10292394459247589,-0.07873697578907013,9.89064884185791,0.0067692774743717005,0.010107566025394189,0.002116131807605963,2.319999933242798,2019-07-25 12:05:49:438,-52.64848626329945,-157.09609600624245,0,-43.93211364746094,34.63589859008789,-27.738706588745117
0.026392536237835884,-0.11705297231674194,9.77091121673584,0.007302039729550149,0.009841185417953615,0.008775660907596714,2.3299872875213623,2019-07-25 12:05:49:448,-55.197940098931326,-157.54454187288044,0,-43.93211364746094,34.63589859008789,-27.738706588745117
0.09344552457332611,-0.17692171037197113,9.83796501159668,0.0003761301846652757,0.001849750680016738,0.011173090535751088,2.3399858474731445,2019-07-25 12:05:49:458,-57.684135672927766,-157.97325677206928,0,-43.93211364746094,34.63589859008789,-27.738706588745117
0.14134052395820618,-0.24157994985580444,9.825990676879883,0.0011752736649608213,0.006644611366734268,0.0007842261046412585,2.3499927520751953,2019-07-25 12:05:49:468,-60.11770435748408,-158.38628441718936,0,-43.93211364746094,34.63589859008789,-27.738706588745117
0.09823502600193024,-0.27271169424057007,9.842754364013672,0.000642511344763791,0.006111849111555819,-0.0005476796633420271,2.3600010871887207,2019-07-25 12:05:49:478,-62.5073485628796,-158.78717821096456,0,-43.93211364746094,34.63589859008789,-27.738706588745117
0.08147177845239639,-0.24157994985580444,9.86191177368164,-0.001222156743416525,0.00797651700468039,-0.0013468231111282822,2.3699915409088135,2019-07-25 12:05:49:488,-64.85220963270827,-159.18268402958265,0,-43.93211364746094,34.63589859008789,-27.738706588745117
-0.007133959326893091,-0.17692171037197113,9.82120132446289,-0.002287681383810586,0.0007842261046412585,-0.017862453931920343,2.3800079822540283,2019-07-25 12:05:49:498,-59.956438880042484,-159.57710311398725,0,-43.93211364746094,34.63589859008789,-27.738706588745117
-0.016712957993149757,-0.08592122793197632,9.744569778442383,-0.007348922808005853,0.001849750680016738,-0.020792646855550465,2.3899807929992676,2019-07-25 12:05:49:508,-55.16031127432124,-159.97134219035365,0,-43.93211364746094,34.63589859008789,-27.738706588745117
-0.05981845408678055,0.05536900833249092,9.792464256286621,-0.006283398297648954,0.006910992494323493,-0.027452174525132426,2.3999722003936768,2019-07-25 12:05:49:518,-50.467982104467644,-153.17486947888034,0,-42.58266067504883,34.18608093261719,-27.58876609802246
-0.016712957993149757,0.05536900833249092,9.739779472351074,-0.006549779425238179,0.005845467983966595,-0.029050462330965077,2.4100115299224854,2019-07-25 12:05:49:529,-45.86388392349768,-146.5141942001226,0,-42.58266067504883,34.18608093261719,-27.58876609802246
-0.007133959326893091,0.012263513170182705,9.852333068847656,-0.006283398297648954,0.0002514638006988733,-0.03491084609763072,2.4200100898742676,2019-07-25 12:05:49:538,-41.34757716522939,-139.9818090615353,0,-42.58266067504883,34.18608093261719,-27.58876609802246
-0.05981845408678055,0.08171125501394272,9.804438591003418,-0.003619587021756709,0.001849750680016738,-0.030648748056203122,2.429987668991089,2019-07-25 12:05:49:548,-36.928653253970204,-133.58969500768413,0,-42.58266067504883,34.18608093261719,-27.58876609802246
5.028974192100577e-05,0.021842511370778084,9.802042961120605,0.0075684208571393735,0.001050607232230483,-0.03277979707691692,2.439985752105713,2019-07-25 12:05:49:558,-39.79066411118013,-127.32470346278473,0,-42.58266067504883,34.18608093261719,-27.58876609802246
2.8953027725219727,2.6824095249176025,7.186976909637451,0.06404122198664959,0.10041077712066837,0.03381548794128113,2.4500060081481934,2019-07-25 12:05:49:568,-42.212500736974725,-121.62358492984285,0,-42.58266067504883,34.18608093261719,-27.58876609802246
4.377652645111084,-0.23918519914150238,9.938544273376465,0.06111102906301946,0.17712854186636506,0.04100777890633884,2.4600107669830322,2019-07-25 12:05:49:578,-44.59231232331274,-122.79787055474138,0,-42.58266067504883,34.18608093261719,-27.58876609802246
0.007234538905322552,-0.6438978910446167,11.102392196655273,0.0451281634882606,-0.11429242940130074,0.04020863500342252,2.4700024127960205,2019-07-25 12:05:49:588,-47.235597945079775,-123.9008468528056,0,-42.58266067504883,34.18608093261719,-27.58876609802246
0.012024038471281528,-0.6103714108467102,8.820196151733398,0.04939026152968819,-0.005608921542667363,-0.005875302670256588,2.4800117015838623,2019-07-25 12:05:49:599,-49.88617150269487,-124.97141530565287,0,-42.58266067504883,34.18608093261719,-27.58876609802246
-0.17955593764781952,-2.2962751388549805,8.863301277160645,0.0027735605605333316,0.010107566025394189,-0.07140506629898964,2.489987850189209,2019-07-25 12:05:49:608,-45.31732111488476,-125.78304752894466,0,-42.58266067504883,34.18608093261719,-27.58876609802246
0.8334231972694397,-0.7205299139022827,10.980259895324707,-0.08406669119474308,0.07217437031412946,-0.06021705581935031,2.4999990463256836,2019-07-25 12:05:49:618,-47.96473509587258,-126.74504252006507,0,-42.58266067504883,34.18608093261719,-27.58876609802246
1.52311110496521,0.5726349353790283,10.29775619506836,0.031009962165585738,-0.036775516591498546,-0.03943932682709349,2.5099902153015137,2019-07-25 12:05:49:628,-50.41654016092449,-120.69119456027423,0,-42.58266067504883,34.18608093261719,-27.58876609802246
0.35207849740982056,0.30921247601509094,9.251251220703125,0.04406263689730909,-0.0298496062338814,-0.02159179075846679,2.5200016498565674,2019-07-25 12:05:49:638,-52.94784015670034,-114.74042673308016,0,-42.58266067504883,34.18608093261719,-27.58876609802246
0.646632730960846,-0.6343188881874084,9.677515983581543,-0.027327509457792297,0.0362129196500301,-0.036775516591498546,2.530012607574463,2019-07-25 12:05:49:649,-55.43278494153513,-115.95525455160887,0,-43.482295989990234,33.586326599121094,-28.188522338867188
0.5173162221908569,0.4026077091693878,9.773306846618652,0.03340739179374011,0.019430906011165698,-0.026120269407334955,2.5400102138519287,2019-07-25 12:05:49:658,-57.874438528476105,-110.10208206286265,0,-43.482295989990234,33.586326599121094,-28.188522338867188
0.49576348066329956,0.8408468961715698,9.56975269317627,0.018223665960708357,0.0002514638006988733,0.013836901811643333,2.550020933151245,2019-07-25 12:05:49:669,-60.25777967800316,-104.410711982256,0,-43.482295989990234,33.586326599121094,-28.188522338867188
0.7328436970710754,-0.172132208943367,9.9074125289917,-0.00015663211927710938,-0.031980655254595196,-0.005342540415078138,2.559981107711792,2019-07-25 12:05:49:678,-62.550130094316685,-105.90250291431248,0,-43.482295989990234,33.586326599121094,-28.188522338867188
-0.27534592151641846,-0.22960621118545532,9.287172317504883,0.012629662801483291,0.025557672465866516,-0.01892797844227724,2.569985866546631,2019-07-25 12:05:49:688,-57.74744905602626,-107.36322313593283,0,-43.482295989990234,33.586326599121094,-28.188522338867188
0.1724722683429718,-0.07155272364616394,10.254651069641113,-0.02572922165195965,0.015168807969738105,-1.491734416091191e-05,2.580007553100586,2019-07-25 12:05:49:698,-60.181764552746685,-108.79348482349498,0,-43.482295989990234,33.586326599121094,-28.188522338867188
0.18444602191448212,0.00028976472094655037,10.048702239990234,-0.00015663211927710938,-0.022390932580788513,-0.0018795853663067313,2.5900182723999023,2019-07-25 12:05:49:709,-62.54451214912649,-103.01756012768946,0,-43.482295989990234,33.586326599121094,-28.188522338867188
-0.3567674160003662,-0.15536896884441376,9.557779312133789,0.0017080359201392707,0.0037144187031784726,0.008509279259858839,2.6000053882598877,2019-07-25 12:05:49:718,-57.738459103668205,-104.5395406607643,0,-43.482295989990234,33.586326599121094,-28.188522338867188
-0.17237168550491333,-0.2559484541416168,10.060676574707031,-0.018536930686901935,0.00557908685637737,0.017033475342714027,2.6099886894226074,2019-07-25 12:05:49:728,-53.00644863192599,-106.00921240991327,0,-43.482295989990234,33.586326599121094,-28.188522338867188
-0.2394246757030487,-0.2751064598560333,9.943333625793457,0.013428806704399615,0.010640328280572637,-0.007207208308202711,2.6199896335601807,2019-07-25 12:05:49:738,-48.37988182543411,-107.46487268015035,0,-43.482295989990234,33.586326599121094,-28.188522338867188
-1.9301179647445679,-0.758845865726471,10.261835098266602,-0.02040159910017516,-0.033578940979833244,-0.0034778722618792413,2.6299877166748047,2019-07-25 12:05:49:748,-44.006476137604366,-108.8195373303854,0,-43.482295989990234,33.586326599121094,-28.188522338867188
-0.6585058569908142,-1.108479380607605,11.088024139404297,-0.09685298531902586,-0.03331256037239267,0.04473711573288529,2.639976978302002,2019-07-25 12:05:49:758,-39.57563659927844,-110.07464335399114,0,-43.482295989990234,33.586326599121094,-28.188522338867188
-0.883612334728241,-0.3469489514827728,10.213940620422363,0.014494331214756516,0.02182833563932007,0.006111849111555819,2.6499974727630615,2019-07-25 12:05:49:768,-35.29529300839066,-111.44239600966624,0,-44.381927490234375,34.18608093261719,-27.88864517211914
-0.11010819673538208,0.1152377501130104,9.794858932495117,-0.022532648120888954,-0.0032114911342900165,0.014636045714559657,2.6600182056427,2019-07-25 12:05:49:779,-31.000461346139335,-105.61435102625418,0,-44.381927490234375,34.18608093261719,-27.88864517211914
0.10541927814483643,0.4169762134552002,9.787674903869629,-0.007082541680416628,-0.005342540415078138,0.012238615046107985,2.6699891090393066,2019-07-25 12:05:49:788,-33.96511928010546,-99.94688773079423,0,-44.381927490234375,34.18608093261719,-27.88864517211914
-0.5866633653640747,0.18468549847602844,9.79964828491211,-0.0006893944232194946,0.003980799830767698,0.008509279259858839,2.6799979209899902,2019-07-25 12:05:49:798,-29.75657340481537,-94.36915606515224,0,-44.381927490234375,34.18608093261719,-27.88864517211914
-0.10052919387817383,0.08889549970626831,9.895438194274902,-0.016139501058747563,0.013304139556464882,0.0023825130652323496,2.6899912357330322,2019-07-25 12:05:49:808,-25.580548321362254,-88.88301073053715,0,-44.381927490234375,34.18608093261719,-27.88864517211914
-0.20350342988967896,0.014658262953162193,9.794858932495117,0.005170990708836353,0.00797651700468039,-0.01812883453936092,2.7000086307525635,2019-07-25 12:05:49:818,-21.49722870325211,-83.50997396224022,0,-44.381927490234375,34.18608093261719,-27.88864517211914
-0.22266143560409546,-0.05718422681093216,10.003202438354492,-0.008414447318362751,-0.00773997056338116,-0.009338257849065158,2.7099878787994385,2019-07-25 12:05:49:828,-17.488449906269683,-85.42850892643926,0,-44.381927490234375,34.18608093261719,-27.88864517211914
-0.17955593764781952,-0.22242195904254913,9.86191177368164,0.0017080359201392707,0.003980799830767698,-0.012002069124957404,2.720004081726074,2019-07-25 12:05:49:838,-13.5617811365171,-87.29505918044205,0,-44.381927490234375,34.18608093261719,-27.88864517211914
-0.07179220020771027,-0.2894749343395233,9.794858932495117,-0.007881685063184303,0.004779943473609696,-0.01653054777382557,2.730009078979492,2019-07-25 12:05:49:848,-9.701629716135802,-89.11087396733797,0,-44.381927490234375,34.18608093261719,-27.88864517211914
0.012024038471281528,-0.16734270751476288,10.022360801696777,-0.0060170171700597306,0.001050607232230483,-0.023456457091145407,2.740008592605591,2019-07-25 12:05:49:858,-13.106812229114318,-90.90614660490304,0,-44.381927490234375,34.18608093261719,-27.88864517211914
-0.04784470424056053,-0.1338162124156952,9.859517097473145,-0.002287681383810586,-0.005608921542667363,-0.017862453931920343,2.7499921321868896,2019-07-25 12:05:49:868,-9.247092440946114,-92.6711895148693,0,-44.381927490234375,34.18608093261719,-27.88864517211914
-0.04066045582294464,-0.119447723031044,9.763727188110352,-0.0060170171700597306,0.007710135877091167,-0.010137400711684182,2.760007858276367,2019-07-25 12:05:49:878,-5.471258700224945,-94.40036363380514,0,-44.381927490234375,34.18608093261719,-27.88864517211914
-0.01192345842719078,-0.14818471670150757,9.86191177368164,-0.007881685063184303,0.011173090535751088,-0.016796929421563446,2.7700109481811523,2019-07-25 12:05:49:888,-1.7694945984342625,-96.09071224920974,0,-44.381927490234375,34.18608093261719,-27.88864517211914
-0.07418695092201233,-0.13142146170139313,9.835570335388184,-0.00042301326312097924,0.0015833695524275135,-0.01653054777382557,2.7799723148345947,2019-07-25 12:05:49:898,1.8563665121396482,-97.75335075400425,0,-44.231990814208984,34.93577575683594,-27.13895034790039
-0.09095019847154617,-0.10747396945953369,9.823596000671387,-0.004418730404524382,-0.0005476796633420271,-0.01173568747721953,2.789991855621338,2019-07-25 12:05:49:908,5.408938330394754,-99.38326151644426,0,-44.231990814208984,34.93577575683594,-27.13895034790039
-0.0957396999001503,-0.12902672588825226,9.816411972045898,-0.0020213001261841987,0.002915275320410799,-0.013866736497933324,2.7999918460845947,2019-07-25 12:05:49:918,8.887946854505692,-100.97940030524269,0,-44.231990814208984,34.93577575683594,-27.13895034790039
-0.028686705976724625,-0.16494795680046082,9.864306449890137,-0.0060170171700597306,0.0071773736219127166,-0.014932261008290223,2.8100156784057617,2019-07-25 12:05:49:929,12.302815762776477,-102.53726583116187,0,-44.231990814208984,34.93577575683594,-27.13895034790039
0.062313780188560486,-0.12423721700906754,9.854727745056152,-0.0020213001261841987,0.004513562346020471,-0.01892797844227724,2.8200016021728516,2019-07-25 12:05:49:938,8.461474455244652,-104.07094151759115,0,-44.231990814208984,34.93577575683594,-27.13895034790039
0.02399778738617897,-0.08831597119569778,9.852333068847656,-0.000955775550808719,-0.0013468231111282822,-0.012534831380135851,2.8300087451934814,2019-07-25 12:05:49:948,4.695792900221432,-105.57871396481592,0,-44.231990814208984,34.93577575683594,-27.13895034790039
0.05034003406763077,-0.14818471670150757,9.732595443725586,-0.0025540625113998103,0.003980799830767698,-0.010137400711684182,2.8399956226348877,2019-07-25 12:05:49:958,1.005571743437831,-107.0482615472803,0,-44.231990814208984,34.93577575683594,-27.13895034790039
0.15091952681541443,-0.14100046455860138,9.873886108398438,-0.0028204436389890346,0.005845467983966595,-0.006674446053024261,2.8500051498413086,2019-07-25 12:05:49:968,-2.6003114123160684,-108.4893484107179,0,-44.231990814208984,34.93577575683594,-27.13895034790039
0.12936677038669586,-0.16973745822906494,9.888254165649414,-0.0014885378710057496,-0.003744253389468466,-0.006141683797845812,2.860013484954834,2019-07-25 12:05:49:979,-6.131210025991867,-109.89905657827802,0,-44.231990814208984,34.93577575683594,-27.13895034790039
0.11020877212285995,-0.1457899659872055,9.763727188110352,-0.0006893944232194946,-1.491734416091191e-05,-0.004543397032310465,2.869999885559082,2019-07-25 12:05:49:988,-9.595643405527284,-111.2835795747052,0,-44.231990814208984,34.93577575683594,-27.13895034790039
0.1197877749800682,-0.11705297231674194,9.778096199035645,-0.00894721009368985,0.003980799830767698,-0.005342540415078138,2.8800065517425537,2019-07-25 12:05:49:998,-12.99192976290172,-112.63916375994692,0,-44.231990814208984,34.93577575683594,-27.13895034790039
0.11739302426576614,-0.14339521527290344,9.768516540527344,-0.006283398297648954,0.009308423162775165,-0.003744253389468466,2.8899896144866943,2019-07-25 12:05:50:008,-16.323538618776492,-113.96603828314011,0,-44.231990814208984,34.93577575683594,-27.13895034790039
0.1389457732439041,-0.12423721700906754,9.787674903869629,-0.006283398297648954,-0.0005476796633420271,-0.006674446053024261,2.90000057220459,2019-07-25 12:05:50:018,-19.580493669949114,-115.26864094185002,0,-43.632232666015625,34.93577575683594,-27.13895034790039
0.17726176977157593,-0.061973728239536285,9.746964454650879,-0.00308682476657826,0.002116131807605963,-0.0002812985032435118,2.9099738597869873,2019-07-25 12:05:50:028,-22.769231095436414,-116.55425357465546,0,-43.632232666015625,34.93577575683594,-27.13895034790039
0.1461300253868103,-0.13142146170139313,9.852333068847656,-0.0020213001261841987,0.006644611366734268,-0.00480977815989969,2.9199914932250977,2019-07-25 12:05:50:038,-25.90058899308755,-117.80674694449921,0,-43.632232666015625,34.93577575683594,-27.13895034790039
0.22755150496959686,-0.12902672588825226,9.873886108398438,-0.000955775550808719,0.003980799830767698,0.002116131807605963,2.9299938678741455,2019-07-25 12:05:50:048,-28.958409101511954,-119.03510184435429,0,-43.632232666015625,34.93577575683594,-27.13895034790039
0.1652880162000656,-0.2056587040424347,9.885859489440918,-0.00308682476657826,0.005046324601198921,-1.491734416091191e-05,2.9400012493133545,2019-07-25 12:05:50:058,-31.962919003762117,-120.22882986889249,0,-43.632232666015625,34.93577575683594,-27.13895034790039
0.1988145112991333,-0.29426443576812744,9.94812297821045,-0.0049514926597028315,0.0005178449445427432,-0.004277015644646915,2.9499967098236084,2019-07-25 12:05:50:068,-34.90105303938298,-121.38758809490571,0,-43.632232666015625,34.93577575683594,-27.13895034790039
0.09105078130960464,-0.16015847027301788,9.83796501159668,-0.0028204436389890346,0.00797651700468039,-0.006674446053024261,2.9600086212158203,2019-07-25 12:05:50:078,-37.79691092256813,-122.53959733266137,0,-43.632232666015625,34.93577575683594,-27.13895034790039
0.07189278304576874,-0.14100046455860138,9.91938591003418,-0.0014885378710057496,0.010906709928310512,-0.006940827180613486,2.969992160797119,2019-07-25 12:05:50:088,-40.638781613613816,-123.67168327322595,0,-43.632232666015625,34.93577575683594,-27.13895034790039
0.07907702773809433,-0.04521048069000244,9.9074125289917,-0.006283398297648954,0.0037144187031784726,-0.01360035589049275,2.9800074100494385,2019-07-25 12:05:50:098,-43.41894875441239,-124.78948698945605,0,-43.632232666015625,34.93577575683594,-27.13895034790039
-0.04066045582294464,0.00028976472094655037,9.885859489440918,0.0003761301846652757,-0.004277015644646915,-0.012534831380135851,2.990010976791382,2019-07-25 12:05:50:108,-38.952880498772366,-118.69394210954803,0,-43.632232666015625,34.93577575683594,-27.13895034790039
-0.023897206410765648,-0.026052482426166534,9.895438194274902,0.001974417047728495,0.003980799830767698,-0.009071876201327283,2.999988555908203,2019-07-25 12:05:50:118,-34.57882043965172,-119.91815248091157,0,-43.632232666015625,34.93577575683594,-27.13895034790039
-0.05263420194387436,-0.061973728239536285,9.86191177368164,-0.0014885378710057496,0.010373947673132064,-0.012801211987576427,3.0099918842315674,2019-07-25 12:05:50:128,-30.29918675750381,-121.11175233099046,0,-43.632232666015625,34.93577575683594,-27.13895034790039
0.08865603059530258,-0.01647348329424858,9.909807205200195,-0.0014885378710057496,0.006644611366734268,-0.014133118145671199,3.0199930667877197,2019-07-25 12:05:50:138,-33.28668298161653,-122.28677647231113,0,-43.632232666015625,34.93577575683594,-27.13895034790039
0.10302452743053436,-0.10507921874523163,9.847543716430664,0.0022407983053548824,0.003448037575589248,-0.01067016296686263,3.0299975872039795,2019-07-25 12:05:50:148,-36.21089818929666,-123.43007257179819,0,-44.381927490234375,34.18608093261719,-28.788278579711914
0.18205127120018005,-0.08113172650337219,9.787674903869629,0.0027735605605333316,0.004513562346020471,-0.0008140607909312516,3.039987087249756,2019-07-25 12:05:50:158,-39.067900290381864,-124.55352836107808,0,-44.381927490234375,34.18608093261719,-28.788278579711914
0.2251567542552948,-0.15057946741580963,9.715832710266113,-0.0006893944232194946,0.003980799830767698,0.006378230239145044,3.0500125885009766,2019-07-25 12:05:50:169,-41.86223226134229,-125.644311322763,0,-44.381927490234375,34.18608093261719,-28.788278579711914
0.29460451006889343,-0.20326395332813263,9.806833267211914,0.0003761301846652757,0.003980799830767698,0.013304139556464882,3.0599923133850098,2019-07-25 12:05:50:178,-44.59280449742334,-126.7078881389196,0,-44.381927490234375,34.18608093261719,-28.788278579711914
0.2179725170135498,-0.22960621118545532,9.782885551452637,0.0009088924723530155,-0.0002812985032435118,0.02662319697622341,3.0700151920318604,2019-07-25 12:05:50:189,-47.27526217078645,-127.74735196236246,0,-44.381927490234375,34.18608093261719,-28.788278579711914
0.179656520485878,-0.22721146047115326,9.639200210571289,0.0009088924723530155,0.0026488941928215744,0.03115167562509158,3.080012798309326,2019-07-25 12:05:50:199,-49.90988868801718,-128.76590906932825,0,-44.381927490234375,34.18608093261719,-28.788278579711914
0.1724722683429718,-0.2822906970977783,9.742175102233887,0.0009088924723530155,0.00904204151503729,0.03914311257366022,3.0900015830993652,2019-07-25 12:05:50:208,-52.496477519987025,-129.75790572723025,0,-44.381927490234375,34.18608093261719,-28.788278579711914
0.09344552457332611,-0.23918519914150238,9.794858932495117,0.005437371836425577,-0.0002812985032435118,0.046335403538717936,3.1000120639801025,2019-07-25 12:05:50:219,-55.03545785153176,-130.7378268057811,0,-44.381927490234375,34.18608093261719,-28.788278579711914
0.03597153350710869,-0.24636945128440857,9.818806648254395,-0.0006893944232194946,-0.0002812985032435118,0.044204354518004134,3.1099891662597656,2019-07-25 12:05:50:228,-57.53039302531986,-131.69393725196102,0,-44.381927490234375,34.18608093261719,-28.788278579711914
-0.002344459993764758,-0.23200096189975739,9.732595443725586,-0.005484254914881281,0.005312705728788145,0.048732831086277704,3.1199939250946045,2019-07-25 12:05:50:238,-52.78304569811469,-132.62966702335947,0,-44.381927490234375,34.18608093261719,-28.788278579711914
-0.2849249243736267,0.04579000920057297,9.840359687805176,0.011830518898566966,0.0005178449445427432,0.048732831086277704,3.130045175552368,2019-07-25 12:05:50:249,-48.16084744852088,-126.38908278254355,0,-44.381927490234375,34.18608093261719,-28.788278579711914
-0.0957396999001503,-0.10268447548151016,9.916991233825684,-0.004418730404524382,-0.003744253389468466,0.04500349425973126,3.1400153636932373,2019-07-25 12:05:50:259,-43.606596822667385,-127.44696257020445,0,-44.381927490234375,34.18608093261719,-28.788278579711914
-0.3184514343738556,-0.1002897247672081,9.876280784606934,0.005437371836425577,0.010107566025394189,0.035413775747113775,3.1500096321105957,2019-07-25 12:05:50:268,-39.17707319701137,-128.48943872618221,0,-43.78217315673828,33.88620376586914,-29.08815574645996
-0.23463517427444458,-0.08113172650337219,9.830780029296875,0.0017080359201392707,0.0026488941928215744,0.03035253380276986,3.1599912643432617,2019-07-25 12:05:50:278,-34.82236118756684,-129.5111504215378,0,-43.78217315673828,33.88620376586914,-29.08815574645996
-0.30168816447257996,-0.08113172650337219,9.885859489440918,0.00969946987785317,0.011173090535751088,0.025557672465866516,3.169999837875366,2019-07-25 12:05:50:288,-30.567152235177893,-130.51697417993236,0,-43.78217315673828,33.88620376586914,-29.08815574645996
-0.18195068836212158,-0.07873697578907013,9.893043518066406,0.010498613780769495,0.014103283459381206,0.022094718327355243,3.1799745559692383,2019-07-25 12:05:50:298,-26.384781196855833,-131.50339480406478,0,-43.78217315673828,33.88620376586914,-29.08815574645996
0.012024038471281528,-0.1266319751739502,9.9074125289917,-0.0006893944232194946,0.00797651700468039,0.02422576734806904,3.1899940967559814,2019-07-25 12:05:50:308,-29.460182399250677,-132.45829329076216,0,-43.78217315673828,33.88620376586914,-29.08815574645996
0.08147177845239639,-0.15776371955871582,9.974465370178223,0.005170990708836353,0.00797651700468039,0.017566237597892477,3.1999876499176025,2019-07-25 12:05:50:318,-32.4660949972307,-133.39390589728077,0,-43.78217315673828,33.88620376586914,-29.08815574645996
0.11260352283716202,-0.10986872017383575,9.818806648254395,0.009166707622674722,0.005845467983966595,0.016767094735273453,3.210005760192871,2019-07-25 12:05:50:328,-35.40692031086945,-134.31836236925025,0,-43.78217315673828,33.88620376586914,-29.08815574645996
0.21318301558494568,-0.1912902146577835,9.818806648254395,0.0038390850708902298,0.006378230239145044,0.020496430521522595,3.2200071811676025,2019-07-25 12:05:50:338,-38.2774879103048,-135.21182913940655,0,-43.78217315673828,33.88620376586914,-29.08815574645996
0.22276201844215393,-0.172132208943367,9.842754364013672,0.009166707622674722,0.01197223443866741,0.02529129185842594,3.2299885749816895,2019-07-25 12:05:50:348,-41.09271800927446,-136.09269209758853,0,-43.78217315673828,33.88620376586914,-29.08815574645996
0.28023600578308105,-0.1984744668006897,9.814017295837402,0.008633945367496272,0.009841185417953615,0.02262747954223639,3.239987373352051,2019-07-25 12:05:50:358,-43.843676447004796,-136.95251427601968,0,-43.78217315673828,33.88620376586914,-29.08815574645996
0.26826226711273193,-0.18889546394348145,9.806833267211914,0.00623651521919325,0.00557908685637737,0.013037758949024307,3.2500107288360596,2019-07-25 12:05:50:368,-46.53860460552895,-137.79490450604894,0,-43.78217315673828,33.88620376586914,-29.08815574645996
0.20839351415634155,-0.2056587040424347,9.773306846618652,0.005170990708836353,0.005312705728788145,0.012238615046107985,3.260007381439209,2019-07-25 12:05:50:378,-49.18638425328919,-138.61779912101306,0,-43.78217315673828,33.88620376586914,-29.08815574645996
0.22755150496959686,-0.16494795680046082,9.869096755981445,0.000642511344763791,0.001316988424838289,0.01250499669384586,3.2700936794281006,2019-07-25 12:05:50:389,-51.776985771939444,-139.42665645021407,0,-43.78217315673828,33.88620376586914,-29.08815574645996
0.13176152110099792,-0.12184246629476547,9.830780029296875,0.000642511344763791,0.005046324601198921,0.002116131807605963,3.279999017715454,2019-07-25 12:05:50:398,-54.328895000756845,-140.2242789504814,0,-43.78217315673828,33.88620376586914,-28.488401412963867
0.10302452743053436,-0.16973745822906494,9.871491432189941,0.0011752736649608213,0.002915275320410799,-0.004010634517057691,3.2900073528289795,2019-07-25 12:05:50:408,-56.831996392307744,-141.00075208833704,0,-43.78217315673828,33.88620376586914,-28.488401412963867
0.07668227702379227,-0.18410596251487732,9.790069580078125,-0.004685111532113607,0.002915275320410799,-0.012002069124957404,3.3000006675720215,2019-07-25 12:05:50:418,-59.28801691069693,-141.75656128498716,0,-43.78217315673828,33.88620376586914,-28.488401412963867
0.012024038471281528,-0.17692171037197113,9.73020076751709,0.0014416547925500459,-1.491734416091191e-05,-0.01653054777382557,3.3100204467773438,2019-07-25 12:05:50:429,-61.7008321221053,-142.50140755813516,0,-43.78217315673828,33.88620376586914,-28.488401412963867
0.014418788254261017,-0.17692171037197113,9.854727745056152,0.00010974903269408318,0.002915275320410799,-0.030648748056203122,3.3199915885925293,2019-07-25 12:05:50:438,-64.06677105194102,-143.23087046551123,0,-43.78217315673828,33.88620376586914,-28.488401412963867
0.04315578565001488,-0.13860571384429932,9.71822738647461,-0.00308682476657826,0.0037144187031784726,-0.03517722878566589,3.3300113677978516,2019-07-25 12:05:50:449,-66.38243675698483,-143.94817392647428,0,-43.78217315673828,33.88620376586914,-28.488401412963867
0.055129531770944595,-0.16734270751476288,9.883464813232422,-0.005217873787292057,0.002116131807605963,-0.039172944139058315,3.3399946689605713,2019-07-25 12:05:50:458,-68.64958244236884,-144.64688519988908,0,-43.78217315673828,33.88620376586914,-28.488401412963867
-0.023897206410765648,-0.16973745822906494,9.9074125289917,-0.008148066190773526,0.001050607232230483,-0.04396780755655626,3.3500170707702637,2019-07-25 12:05:50:469,-63.67994603361073,-145.32973178916532,0,-43.78217315673828,33.88620376586914,-28.488401412963867
0.019208287820219994,-0.09789497405290604,9.797253608703613,-0.011078259114403648,0.004247180958356922,-0.04849628412482982,3.359985828399658,2019-07-25 12:05:50:478,-66.0064777936838,-146.00548645707767,0,-43.78217315673828,33.88620376586914,-28.488401412963867
0.08386652916669846,-0.07634222507476807,9.814017295837402,-0.0076153039355950775,-0.005875302670256588,-0.044500568771437404,3.3699965476989746,2019-07-25 12:05:50:488,-68.27325344518142,-146.67218238256947,0,-43.78217315673828,33.88620376586914,-28.488401412963867
0.012024038471281528,-0.05239472910761833,9.73020076751709,-0.00042301326312097924,0.00557908685637737,-0.05249200363941144,3.3799889087677,2019-07-25 12:05:50:498,-70.50950257520418,-147.33233098205565,0,-43.78217315673828,33.88620376586914,-28.488401412963867
0.1461300253868103,-0.05957897752523422,9.881070137023926,-0.005750636042470505,0.004513562346020471,-0.044500568771437404,3.3899998664855957,2019-07-25 12:05:50:508,-72.68490407954229,-147.97554251203863,0,-43.78217315673828,33.88620376586914,-28.488401412963867
0.06470853090286255,-0.03084198199212551,9.845149040222168,-0.007881685063184303,0.001849750680016738,-0.04689800048018638,3.399996757507324,2019-07-25 12:05:50:518,-74.82471273575499,-148.60801767449948,0,-43.482295989990234,35.08571243286133,-27.58876609802246
0.055129531770944595,-0.06676322966814041,9.845149040222168,-0.005750636042470505,-0.0010804419185204762,-0.04636523510411602,3.4099903106689453,2019-07-25 12:05:50:528,-76.92119552967485,-149.22485971278462,0,-43.482295989990234,35.08571243286133,-27.58876609802246
0.055129531770944595,-0.18171121180057526,9.86191177368164,-0.008414447318362751,0.0037144187031784726,-0.03943932682709349,3.419999361038208,2019-07-25 12:05:50:538,-78.9784533783887,-149.81452179835696,0,-43.482295989990234,35.08571243286133,-27.58876609802246
0.11739302426576614,-0.13860571384429932,9.761332511901855,-0.0060170171700597306,0.008242898132269616,-0.04583247388923488,3.430004358291626,2019-07-25 12:05:50:548,-80.98973450298503,-150.3985808305133,0,-43.482295989990234,35.08571243286133,-27.58876609802246
0.07668227702379227,-0.20805345475673676,9.787674903869629,-0.008148066190773526,0.0015833695524275135,-0.04236951975072361,3.440021514892578,2019-07-25 12:05:50:559,-82.96185281968509,-150.96167154538153,0,-43.482295989990234,35.08571243286133,-27.58876609802246
0.05991903319954872,-0.08831597119569778,9.897833824157715,-0.009213590701130425,0.0007842261046412585,-0.036775516591498546,3.4499876499176025,2019-07-25 12:05:50:568,-84.89611760969142,-151.527057759987,0,-43.482295989990234,35.08571243286133,-27.58876609802246
0.01681353710591793,-0.1338162124156952,9.909807205200195,-0.0025540625113998103,-0.0005476796633420271,-0.033578940979833244,3.459989547729492,2019-07-25 12:05:50:578,-86.7959434546779,-152.07960939973492,0,-43.482295989990234,35.08571243286133,-27.58876609802246
-0.002344459993764758,-0.13860571384429932,9.857122421264648,-0.003619587021756709,-0.004277015644646915,-0.0330461797649521,3.4699881076812744,2019-07-25 12:05:50:588,-81.45789594239413,-152.6198729057998,0,-43.482295989990234,35.08571243286133,-27.58876609802246
-0.043055206537246704,-0.119447723031044,9.854727745056152,-0.004685111532113607,-0.0032114911342900165,-0.03491084609763072,3.4800052642822266,2019-07-25 12:05:50:598,-76.23193814373386,-153.15095145434685,0,-43.482295989990234,35.08571243286133,-27.58876609802246
-0.09095019847154617,-0.10507921874523163,9.972070693969727,-0.0006893944232194946,0.0005178449445427432,-0.027185793917691856,3.4899942874908447,2019-07-25 12:05:50:608,-71.11804085597572,-153.67547128712118,0,-43.482295989990234,35.08571243286133,-27.58876609802246
-0.10771344602108002,-0.13860571384429932,9.775701522827148,-0.003353205894167484,0.002915275320410799,-0.026386650014775533,3.500007390975952,2019-07-25 12:05:50:618,-66.1099448527095,-154.183830189118,0,-43.482295989990234,35.08571243286133,-27.58876609802246
-0.10292394459247589,-0.1338162124156952,9.840359687805176,0.002507179432944107,0.001316988424838289,-0.0330461797649521,3.509990930557251,2019-07-25 12:05:50:628,-61.200469341613285,-154.6859770308568,0,-43.482295989990234,35.08571243286133,-27.58876609802246
-0.36874115467071533,0.024237262085080147,9.940938949584961,-0.0006893944232194946,0.008509279259858839,-0.02931684293840565,3.5200068950653076,2019-07-25 12:05:50:638,-56.42373171948282,-147.9946636593333,0,-43.482295989990234,35.08571243286133,-27.58876609802246
0.00962928868830204,-0.026052482426166534,9.833174705505371,0.008633945367496272,0.010906709928310512,-0.03864018292417716,3.5300183296203613,2019-07-25 12:05:50:649,-58.90026603527721,-148.63658784177684,0,-44.231990814208984,34.93577575683594,-28.33846092224121
-0.4022676646709442,0.17031699419021606,9.806833267211914,0.007834801984728598,0.00557908685637737,-0.03864018292417716,3.5399999618530273,2019-07-25 12:05:50:658,-54.17236572253766,-142.0881465518153,0,-44.231990814208984,34.93577575683594,-28.33846092224121
-0.09813445061445236,-0.002104985062032938,9.92896556854248,-0.003353205894167484,0.004247180958356922,-0.03784103902126084,3.5500142574310303,2019-07-25 12:05:50:669,-49.50263206692753,-142.84425516941025,0,-44.231990814208984,34.93577575683594,-28.33846092224121
-0.09095019847154617,-0.09310547262430191,9.734990119934082,-0.001222156743416525,0.0015833695524275135,-0.05222562095137627,3.5599894523620605,2019-07-25 12:05:50:678,-44.92417180903547,-143.57572632313645,0,-44.231990814208984,34.93577575683594,-28.33846092224121
-0.06700269877910614,-0.18171121180057526,9.71822738647461,-0.004685111532113607,0.017033475342714027,-0.040771231944890955,3.570000171661377,2019-07-25 12:05:50:688,-40.443163332983666,-144.28015448380594,0,-44.231990814208984,34.93577575683594,-28.33846092224121
0.026392536237835884,-0.2248167097568512,9.967281341552734,-0.010811877466665771,0.001849750680016738,-0.03491084609763072,3.5799880027770996,2019-07-25 12:05:50:698,-43.232303152342595,-144.96264564493288,0,-44.231990814208984,34.93577575683594,-28.33846092224121
0.21318301558494568,-0.4163966774940491,9.706253051757812,-0.018536930686901935,0.006378230239145044,-0.013866736497933324,3.5899903774261475,2019-07-25 12:05:50:708,-45.94607506838554,-145.60385233100882,0,-44.231990814208984,34.93577575683594,-28.33846092224121
0.18205127120018005,-0.2918696999549866,9.864306449890137,0.003572703943301005,0.013836901811643333,-0.008805495593886707,3.599984884262085,2019-07-25 12:05:50:718,-48.61377259068196,-146.25988425530196,0,-44.231990814208984,34.93577575683594,-28.33846092224121
-0.03826570510864258,-0.3900544345378876,9.888254165649414,-0.005217873787292057,-0.0032114911342900165,0.02529129185842594,3.6100196838378906,2019-07-25 12:05:50:729,-44.04412207387985,-146.88656790855933,0,-44.231990814208984,34.93577575683594,-28.33846092224121
0.05752428248524666,-0.028447231277823448,10.125334739685059,-0.0014885378710057496,0.011173090535751088,0.038610347197589864,3.6199886798858643,2019-07-25 12:05:50:738,-46.76298372493468,-147.54478387667274,0,-44.231990814208984,34.93577575683594,-28.33846092224121
-0.12447669357061386,0.10086925327777863,9.823596000671387,0.007302039729550149,0.005845467983966595,0.029287009292412958,3.6300110816955566,2019-07-25 12:05:50:749,-42.245532967575166,-141.00976338366817,0,-44.231990814208984,34.93577575683594,-28.33846092224121
0.09823502600193024,-0.29426443576812744,9.720622062683105,0.01715814249064876,-0.0013468231111282822,0.050597501580145525,3.6400082111358643,2019-07-25 12:05:50:758,-44.98828624353665,-141.7645208499803,0,-44.231990814208984,34.93577575683594,-28.33846092224121
-0.2202666848897934,-0.026052482426166534,9.608068466186523,0.002507179432944107,0.021561955031879496,0.050597501580145525,3.649993896484375,2019-07-25 12:05:50:768,-40.52687591500642,-142.52752902870438,0,-43.18241882324219,34.18608093261719,-28.788278579711914
0.32094675302505493,-0.02365773171186447,10.012781143188477,0.033141011186299536,0.027422340879139737,0.05992084156591704,3.6600029468536377,2019-07-25 12:05:50:778,-43.2950316684511,-143.29289641150697,0,-43.18241882324219,34.18608093261719,-28.788278579711914
-0.002344459993764758,0.4289499521255493,9.641594886779785,0.035538440814453905,-0.023722839779180587,0.061252746683714505,3.6699891090393066,2019-07-25 12:05:50:788,-38.81610776726167,-136.89791329761456,0,-43.18241882324219,34.18608093261719,-28.788278579711914
-0.32324090600013733,-0.3637121915817261,9.49072551727295,-0.0094799723488683,0.013570521204202757,0.059654458877881865,3.6799941062927246,2019-07-25 12:05:50:798,-34.486422459239584,-137.71073604293653,0,-43.18241882324219,34.18608093261719,-28.788278579711914
0.08147177845239639,0.23018573224544525,9.814017295837402,0.020354714981422155,0.02316024283771214,0.06951056007853453,3.6899893283843994,2019-07-25 12:05:50:808,-37.400179558383144,-131.3948172906709,0,-43.18241882324219,34.18608093261719,-28.788278579711914
0.2251567542552948,-0.23918519914150238,10.01038646697998,0.013961568959578065,-0.0008140607909312516,0.08442790738472031,3.6999857425689697,2019-07-25 12:05:50:818,-40.2259490891057,-132.3473825779629,0,-43.18241882324219,34.18608093261719,-28.788278579711914
0.29460451006889343,-0.06676322966814041,9.92896556854248,0.014760711822197087,0.013037758949024307,0.09188658103781319,3.7100017070770264,2019-07-25 12:05:50:828,-42.99477173870822,-133.30103115742327,0,-43.18241882324219,34.18608093261719,-28.788278579711914
0.27544650435447693,-0.40442293882369995,9.888254165649414,0.016891760842910886,-0.009604638456505731,0.10893497320352355,3.720008134841919,2019-07-25 12:05:50:838,-45.69756755532373,-134.19766026154477,0,-43.18241882324219,34.18608093261719,-28.788278579711914
0.1533142775297165,-0.7803986072540283,9.991229057312012,-0.010811877466665771,0.01197223443866741,0.11985659683393851,3.7299962043762207,2019-07-25 12:05:50:848,-48.372748012517185,-135.0183192054002,0,-43.18241882324219,34.18608093261719,-28.788278579711914
0.4287104904651642,-0.16973745822906494,9.984044075012207,0.016358998587732435,0.00904204151503729,0.12278678975756865,3.740011692047119,2019-07-25 12:05:50:859,-50.96120310287566,-135.9076729150136,0,-43.18241882324219,34.18608093261719,-28.788278579711914
0.12218252569437027,0.33555471897125244,10.031939506530762,0.02115385888433848,-0.0018795853663067313,0.11852469171614105,3.7500150203704834,2019-07-25 12:05:50:869,-53.52696748525049,-129.6397163046307,0,-43.18241882324219,34.18608093261719,-28.788278579711914
0.20120926201343536,0.08410600572824478,9.806833267211914,0.01369518731184019,0.002915275320410799,0.09162019834977801,3.760007381439209,2019-07-25 12:05:50:878,-56.03455606838819,-123.4644333687639,0,-43.18241882324219,34.18608093261719,-28.788278579711914
0.09823502600193024,0.14636950194835663,9.58172607421875,0.005970134091604027,0.01889814479628455,0.08282961957888765,3.769991874694824,2019-07-25 12:05:50:888,-58.512711880781,-117.41599525740854,0,-43.18241882324219,34.18608093261719,-28.788278579711914
0.31376248598098755,-0.1457899659872055,9.94812297821045,0.01209690054630484,0.00904204151503729,0.07430542349603246,3.7800097465515137,2019-07-25 12:05:50:898,-60.911413761485186,-118.65768766806008,0,-42.882537841796875,36.28522491455078,-27.58876609802246
0.232341006398201,-0.05718422681093216,9.751753807067871,0.015826236332553985,0.013304139556464882,0.05033111889211035,3.7900218963623047,2019-07-25 12:05:50:909,-63.273367901110745,-119.8867115564409,0,-42.882537841796875,36.28522491455078,-27.58876609802246
0.4622369706630707,-0.23200096189975739,9.708647727966309,-0.0014885378710057496,-0.007473589435791935,0.0372784420797924,3.799985647201538,2019-07-25 12:05:50:918,-65.54920249707932,-121.06076658682433,0,-42.882537841796875,36.28522491455078,-27.58876609802246
0.10302452743053436,-0.12902672588825226,9.70146369934082,0.0022407983053548824,0.002915275320410799,0.029553389899853535,3.809993267059326,2019-07-25 12:05:50:928,-67.82768804402717,-122.22557096395745,0,-42.882537841796875,36.28522491455078,-27.58876609802246
-0.043055206537246704,-0.4882391691207886,9.869096755981445,-0.0025540625113998103,0.017033475342714027,0.026889577583663987,3.82000994682312,2019-07-25 12:05:50:938,-62.88571368208852,-123.32297905022098,0,-42.882537841796875,36.28522491455078,-27.58876609802246
5.028974192100577e-05,-0.4786601662635803,10.091808319091797,-0.001222156743416525,0.006111849111555819,0.03248358282348365,3.829991579055786,2019-07-25 12:05:50:948,-65.23141918961079,-124.4015237693771,0,-42.882537841796875,36.28522491455078,-27.58876609802246
0.09584027528762817,-0.5505026578903198,10.015175819396973,0.0009088924723530155,-0.004543397032310465,0.030885295017651006,3.840008020401001,2019-07-25 12:05:50:958,-67.51326998991858,-125.45108042659953,0,-42.882537841796875,36.28522491455078,-27.58876609802246
0.019208287820219994,-0.20086920261383057,9.696674346923828,0.011564138291126394,0.003980799830767698,0.040741396218303666,3.849997043609619,2019-07-25 12:05:50:968,-69.76296739182996,-126.52481038515528,0,-42.882537841796875,36.28522491455078,-27.58876609802246
0.04315578565001488,-0.4092124402523041,9.816411972045898,0.012896043408923866,0.01197223443866741,0.04793368718336138,3.8600101470947266,2019-07-25 12:05:50:978,-71.9694015021723,-127.55382314024108,0,-42.882537841796875,36.28522491455078,-27.58876609802246
0.019208287820219994,-0.23439571261405945,9.818806648254395,0.011830518898566966,0.012238615046107985,0.06684674984293958,3.8699896335601807,2019-07-25 12:05:50:988,-74.13462961761583,-128.582025633185,0,-42.882537841796875,36.28522491455078,-27.58876609802246
0.07907702773809433,-0.3421594500541687,9.9074125289917,0.015559855725113413,-1.491734416091191e-05,0.08895638811418306,3.8799984455108643,2019-07-25 12:05:50:998,-76.24278259339094,-129.57957038010974,0,-42.882537841796875,36.28522491455078,-27.58876609802246
-0.021502457559108734,-0.2775011956691742,9.751753807067871,0.02248576608273055,0.007443754749501942,0.10653753733358538,3.8899905681610107,2019-07-25 12:05:51:008,-71.12463002825167,-130.56799475591183,0,-42.882537841796875,36.28522491455078,-27.58876609802246
-0.03826570510864258,-0.6630558967590332,9.909807205200195,0.01369518731184019,0.009308423162775165,0.1179919263400707,3.8999838829040527,2019-07-25 12:05:51:018,-66.1117854141078,-131.48776152212292,0,-43.78217315673828,35.68547058105469,-27.88864517211914
-0.06700269877910614,-0.23918519914150238,9.897833824157715,0.03394015508921586,0.02182833563932007,0.13530670119381624,3.9100100994110107,2019-07-25 12:05:51:028,-61.20959549658609,-132.44942747419773,0,-43.78217315673828,35.68547058105469,-27.88864517211914
0.11260352283716202,-0.8977413773536682,10.070255279541016,0.0027735605605333316,0.002116131807605963,0.14249899215887396,3.9199986457824707,2019-07-25 12:05:51:038,-63.57377757246161,-133.3001079456499,0,-43.78217315673828,35.68547058105469,-27.88864517211914
0.1341562718153,-0.28708019852638245,9.603279113769531,0.04539454201510657,0.006910992494323493,0.14383090559904985,3.929986000061035,2019-07-25 12:05:51:048,-65.89017041061015,-134.2253167529419,0,-43.78217315673828,35.68547058105469,-27.88864517211914
0.13176152110099792,0.04100050777196884,9.86191177368164,0.011564138291126394,0.008775660907596714,0.13930241654720868,3.9400177001953125,2019-07-25 12:05:51:059,-68.16200088166438,-127.95208832073283,0,-43.78217315673828,35.68547058105469,-27.88864517211914
0.04315578565001488,0.07452700287103653,9.797253608703613,0.025682339613801248,0.013037758949024307,0.1305118460986967,3.9499897956848145,2019-07-25 12:05:51:068,-70.40101352498907,-121.8161436423566,0,-43.78217315673828,35.68547058105469,-27.88864517211914
0.04555053263902664,0.23258048295974731,9.895438194274902,0.008900327015234149,0.005046324601198921,0.12305317244560382,3.960005760192871,2019-07-25 12:05:51:078,-72.59055645823933,-115.81175469179476,0,-43.78217315673828,35.68547058105469,-27.88864517211914
0.047945283353328705,0.43852895498275757,9.9984130859375,0.019821953766541004,0.010640328280572637,0.10280820466822814,3.97001314163208,2019-07-25 12:05:51:089,-74.73922931432995,-109.95688531515394,0,-43.78217315673828,35.68547058105469,-27.88864517211914
0.06949803233146667,0.47205546498298645,9.933754920959473,0.014760711822197087,0.012238615046107985,0.08203047151478213,3.9800124168395996,2019-07-25 12:05:51:099,-76.84329932992829,-104.22044849856871,0,-43.78217315673828,35.68547058105469,-27.88864517211914
0.1269720196723938,0.3786602020263672,9.857122421264648,-0.0006893944232194946,0.0002514638006988733,0.05752340985716806,3.990009069442749,2019-07-25 12:05:51:108,-78.89181448825063,-98.57965114274171,0,-43.78217315673828,35.68547058105469,-27.88864517211914
0.014418788254261017,0.3379494845867157,9.694279670715332,-0.00015663211927710938,0.010373947673132064,0.03461463184419745,3.9999887943267822,2019-07-25 12:05:51:118,-80.91808696935843,-93.0479016115104,0,-43.78217315673828,35.68547058105469,-27.88864517211914
0.08147177845239639,0.3571074604988098,9.840359687805176,-0.010279115211487323,0.014636045714559657,0.004779943473609696,4.010012626647949,2019-07-25 12:05:51:129,-82.8984757163508,-87.6227252443988,0,-43.78217315673828,35.68547058105469,-27.88864517211914
0.21078826487064362,0.3906339704990387,9.6320161819458,-0.013742070390295893,-0.005875302670256588,-0.024521981601502308,4.019986867904663,2019-07-25 12:05:51:138,-84.81214236522489,-82.30902251269644,0,-43.78217315673828,35.68547058105469,-27.88864517211914
-0.15321369469165802,0.34273895621299744,9.596095085144043,-0.03025770030082782,-0.005875302670256588,-0.039172944139058315,4.029990911483765,2019-07-25 12:05:51:148,-79.53089363481246,-77.08675624203802,0,-42.43272399902344,35.83540725708008,-28.33846092224121
0.09105078130960464,0.17271174490451813,9.902623176574707,-0.036917230051004384,0.0026488941928215744,-0.055155813875006385,4.0399861335754395,2019-07-25 12:05:51:158,-81.53122644922529,-71.9442859454418,0,-42.43272399902344,35.83540725708008,-28.33846092224121
-0.17237168550491333,0.07931650429964066,9.775701522827148,-0.015340357155831241,0.005312705728788145,-0.09031812895856783,4.050001859664917,2019-07-25 12:05:51:168,-76.32379314236852,-66.90607043143096,0,-42.43272399902344,35.83540725708008,-28.33846092224121
-0.004739209543913603,0.15834324061870575,9.864306449890137,-0.036917230051004384,-0.005875302670256588,-0.08658878797083218,4.059997797012329,2019-07-25 12:05:51:178,-71.19457018921939,-61.96562128910157,0,-42.43272399902344,35.83540725708008,-28.33846092224121
0.06710328161716461,0.0026845145039260387,9.902623176574707,-0.0049514926597028315,-0.002145966493895956,-0.10390356282457773,4.070014238357544,2019-07-25 12:05:51:189,-73.36170688233373,-57.12383468349661,0,-42.43272399902344,35.83540725708008,-28.33846092224121
-0.1412399411201477,-0.054789479821920395,9.58172607421875,-0.0076153039355950775,0.004247180958356922,-0.09857594235338785,4.079987287521362,2019-07-25 12:05:51:198,-68.31374131006747,-59.57054111728927,0,-42.43272399902344,35.83540725708008,-28.33846092224121
-0.004739209543913603,-0.11465822160243988,10.000807762145996,-0.04544142613385957,-0.0016132042387175067,-0.09830955966535267,4.090007781982422,2019-07-25 12:05:51:208,-63.347101844974105,-61.94042547621048,0,-42.43272399902344,35.83540725708008,-28.33846092224121
0.1724722683429718,-0.17692171037197113,9.991229057312012,-0.02173350421797263,-0.0008140607909312516,-0.09724403723559037,4.100015163421631,2019-07-25 12:05:51:219,-65.65992312505018,-64.26911521411284,0,-42.43272399902344,35.83540725708008,-28.33846092224121
-0.45734691619873047,0.09847450256347656,9.751753807067871,-0.005484254914881281,0.001050607232230483,-0.08152755018767747,4.110059976577759,2019-07-25 12:05:51:229,-60.80102009684779,-59.39221092260871,0,-42.43272399902344,35.83540725708008,-28.33846092224121
0.05034003406763077,-0.5840291380882263,9.86191177368164,-0.044109521016062095,0.001050607232230483,-0.0708723009229193,4.119988918304443,2019-07-25 12:05:51:238,-63.17973615327288,-61.71199252489014,0,-42.43272399902344,35.83540725708008,-28.33846092224121
0.2514989972114563,-0.562476396560669,9.519462585449219,-0.0049514926597028315,0.014369664066821781,-0.07726545214624989,4.130006551742554,2019-07-25 12:05:51:248,-65.49395678201134,-64.0073374435741,0,-42.43272399902344,35.83540725708008,-28.33846092224121
0.37123650312423706,-0.509791910648346,9.737384796142578,-0.000955775550808719,0.01250499669384586,-0.06421277117274272,4.140012979507446,2019-07-25 12:05:51:259,-67.74743696688904,-66.2667150392129,0,-42.43272399902344,35.83540725708008,-28.33846092224121
0.34728899598121643,-0.3948439359664917,9.869096755981445,-0.020934360315056307,-0.002412347751522343,-0.049828189242627295,4.150099992752075,2019-07-25 12:05:51:269,-69.95081429863764,-68.48370236033064,0,-43.482295989990234,33.586326599121094,-27.88864517211914
0.232341006398201,-0.5552921891212463,9.684700965881348,-0.004418730404524382,0.008775660907596714,-0.05142647704845994,4.159989595413208,2019-07-25 12:05:51:278,-72.12918529790021,-70.64594303178907,0,-43.482295989990234,33.586326599121094,-27.88864517211914
0.34010475873947144,-0.5816344022750854,9.847543716430664,-0.023065411416364704,0.001849750680016738,-0.04396780755655626,4.169992685317993,2019-07-25 12:05:51:288,-74.24807976660016,-72.75246526070829,0,-43.482295989990234,33.586326599121094,-27.88864517211914
0.39997348189353943,-0.4810549318790436,9.84993839263916,-0.0028204436389890346,0.0031816564480000235,-0.03890656561221234,4.179989337921143,2019-07-25 12:05:51:298,-76.31839776999854,-74.83991259300875,0,-43.482295989990234,33.586326599121094,-27.88864517211914
0.2850255072116852,-0.2655274569988251,9.763727188110352,-0.0017549189985949741,-0.007473589435791935,-0.030648748056203122,4.190001010894775,2019-07-25 12:05:51:308,-78.35438610888443,-76.91097197117634,0,-43.482295989990234,33.586326599121094,-27.88864517211914
0.27305176854133606,-0.3493436872959137,9.739779472351074,-0.00894721009368985,-0.002145966493895956,-0.03544361147370107,4.199989557266235,2019-07-25 12:05:51:318,-80.35397782522631,-78.92665067150223,0,-43.482295989990234,33.586326599121094,-27.88864517211914
0.14852477610111237,-0.15776371955871582,9.83796501159668,-0.00015663211927710938,0.004779943473609696,-0.04157037584780728,4.209987640380859,2019-07-25 12:05:51:328,-82.33228299389377,-80.92965515268806,0,-43.482295989990234,33.586326599121094,-27.88864517211914
0.11020877212285995,-0.11465822160243988,9.828385353088379,-0.006816160552827403,-0.006940827180613486,-0.039172944139058315,4.219986200332642,2019-07-25 12:05:51:338,-84.26889165728923,-82.89386765861458,0,-43.482295989990234,33.586326599121094,-27.88864517211914
-0.004739209543913603,0.050579506903886795,9.811622619628906,0.0009088924723530155,-0.005342540415078138,-0.04849628412482982,4.229992389678955,2019-07-25 12:05:51:348,-78.98106563832923,-77.64240817491346,0,-43.482295989990234,33.586326599121094,-27.88864517211914
-0.08376594632863998,-0.01647348329424858,9.816411972045898,-0.003353205894167484,-0.0002812985032435118,-0.05249200363941144,4.239989995956421,2019-07-25 12:05:51:358,-73.81106456722746,-79.68575461676939,0,-43.482295989990234,33.586326599121094,-27.88864517211914
-0.17955593764781952,0.012263513170182705,9.75893783569336,-0.011344639721844222,0.002915275320410799,-0.058885150701552834,4.249986886978149,2019-07-25 12:05:51:368,-68.75756115801569,-74.48711151257243,0,-43.482295989990234,33.586326599121094,-27.88864517211914
-0.20350342988967896,-0.04521048069000244,9.902623176574707,-0.010279115211487323,-0.0013468231111282822,-0.0706059182348841,4.259989976882935,2019-07-25 12:05:51:378,-63.80519923643131,-76.58636414212013,0,-43.482295989990234,33.586326599121094,-27.88864517211914
-0.18434543907642365,-0.06915797293186188,9.792464256286621,-0.007881685063184303,-0.004543397032310465,-0.08632240528279701,4.27006983757019,2019-07-25 12:05:51:389,-58.94809334940048,-78.64208321955337,0,-43.482295989990234,33.586326599121094,-27.88864517211914
-0.2130824327468872,-0.11705297231674194,9.775701522827148,-0.01640588166618814,-0.0034778722618792413,-0.09671127185952001,4.279987335205078,2019-07-25 12:05:51:398,-54.19216851250664,-80.6463852873078,0,-44.08205032348633,35.08571243286133,-28.188522338867188
-0.1148976981639862,-0.20326395332813263,9.840359687805176,-0.01640588166618814,0.001316988424838289,-0.11136223647767063,4.290004014968872,2019-07-25 12:05:51:408,-49.522445158480714,-82.60056349657731,0,-44.08205032348633,35.08571243286133,-28.188522338867188
-0.08376594632863998,-0.2511589527130127,9.828385353088379,-0.01986883580469941,-0.0005476796633420271,-0.12361576522588305,4.299990177154541,2019-07-25 12:05:51:418,-44.94145540044279,-84.50813447284108,0,-44.08205032348633,35.08571243286133,-28.188522338867188
-0.15081894397735596,-0.13860571384429932,9.873886108398438,-0.019336074589818262,-0.013333974242754877,-0.12867701133141615,4.31000542640686,2019-07-25 12:05:51:428,-40.45262982495326,-86.39101319338478,0,-44.08205032348633,35.08571243286133,-28.188522338867188
-0.1747664362192154,-0.11705297231674194,9.842754364013672,-0.018536930686901935,-0.0013468231111282822,-0.1252140530317157,4.31999945640564,2019-07-25 12:05:51:438,-36.0631660041458,-88.23916375421307,0,-44.08205032348633,35.08571243286133,-28.188522338867188
-0.13645043969154358,-0.08113172650337219,9.914596557617188,-0.013742070390295893,-0.0013468231111282822,-0.1305416735029056,4.330005645751953,2019-07-25 12:05:51:448,-31.756915737365066,-90.05728266416295,0,-44.08205032348633,35.08571243286133,-28.188522338867188
-0.16518743336200714,-0.1266319751739502,9.86191177368164,-0.011078259114403648,-1.491734416091191e-05,-0.12414853060195341,4.339994192123413,2019-07-25 12:05:51:458,-27.540961395295966,-91.8352103762983,0,-44.08205032348633,35.08571243286133,-28.188522338867188
-0.007133959326893091,-0.054789479821920395,9.92896556854248,-0.01480759490065279,-0.004277015644646915,-0.11695623963689569,4.350006818771362,2019-07-25 12:05:51:468,-23.38856093651654,-93.5838579608883,0,-44.08205032348633,35.08571243286133,-28.188522338867188
-0.06700269877910614,-0.06436847895383835,9.945728302001953,-0.010012734604046749,0.0026488941928215744,-0.10603461600648073,4.360023260116577,2019-07-25 12:05:51:479,-19.32999923748813,-95.29913319075173,0,-44.08205032348633,35.08571243286133,-28.188522338867188
-0.05502895265817642,-0.12184246629476547,9.818806648254395,-0.008680828445951977,0.003448037575589248,-0.10177251796505313,4.370089054107666,2019-07-25 12:05:51:489,-15.351770211903231,-96.97402514263489,0,-44.08205032348633,35.08571243286133,-28.188522338867188
0.00962928868830204,-0.13142146170139313,9.955307006835938,-0.009746352956308874,0.003448037575589248,-0.09830955966535267,4.379992723464966,2019-07-25 12:05:51:498,-18.64554383722117,-98.61399827301966,0,-44.08205032348633,35.08571243286133,-28.188522338867188
-0.007133959326893091,-0.10747396945953369,9.933754920959473,-0.008680828445951977,0.001316988424838289,-0.09458022699999544,4.389989137649536,2019-07-25 12:05:51:508,-14.674195125491691,-100.22444852708497,0,-44.08205032348633,35.08571243286133,-28.188522338867188
-0.04544995352625847,-0.033236730843782425,9.89064884185791,-0.012676545879938996,-0.003744253389468466,-0.08871984115273518,4.399988412857056,2019-07-25 12:05:51:518,-10.783874707872503,-101.80899146639247,0,-43.78217315673828,34.18608093261719,-27.88864517211914
-0.021502457559108734,-0.033236730843782425,9.828385353088379,-0.0076153039355950775,0.004779943473609696,-0.07939649700577447,4.409998893737793,2019-07-25 12:05:51:528,-6.973390978812402,-103.36465603534273,0,-43.78217315673828,34.18608093261719,-27.88864517211914
0.1269720196723938,0.01944776251912117,9.840359687805176,-0.008414447318362751,0.003980799830767698,-0.07646630408214436,4.419979572296143,2019-07-25 12:05:51:538,-10.42136890937157,-97.6949120429907,0,-43.78217315673828,34.18608093261719,-27.88864517211914
0.2059987634420395,0.10086925327777863,9.804438591003418,-0.009746352956308874,0.003980799830767698,-0.0706059182348841,4.430002927780151,2019-07-25 12:05:51:548,-13.791108943127515,-92.14731735941432,0,-43.78217315673828,34.18608093261719,-27.88864517211914
0.18205127120018005,0.1152377501130104,9.818806648254395,-0.005750636042470505,0.004779943473609696,-0.06261448752809928,4.439995527267456,2019-07-25 12:05:51:558,-17.096724632265545,-86.71459276971916,0,-43.78217315673828,34.18608093261719,-27.88864517211914
0.17486701905727386,-0.12184246629476547,10.029544830322266,-0.012676545879938996,-0.0002812985032435118,-0.06128258241030181,4.450021982192993,2019-07-25 12:05:51:569,-20.334654541179166,-88.55924391673673,0,-43.78217315673828,34.18608093261719,-27.88864517211914
0.26826226711273193,-0.09310547262430191,10.113360404968262,-0.007348922808005853,-0.002412347751522343,-0.05275838216625742,4.459987163543701,2019-07-25 12:05:51:578,-23.496222741684782,-90.37339778229894,0,-43.78217315673828,34.18608093261719,-27.88864517211914
0.1461300253868103,-0.07634222507476807,9.893043518066406,-0.005217873787292057,0.0023825130652323496,-0.047697140221913494,4.47000527381897,2019-07-25 12:05:51:588,-26.610713413056416,-92.15415211356616,0,-43.78217315673828,34.18608093261719,-27.88864517211914
0.17007751762866974,-0.19368496537208557,9.893043518066406,-0.01773778678398561,-0.0010804419185204762,-0.029583223545846225,4.4800050258636475,2019-07-25 12:05:51:598,-29.65819427981883,-93.87867782591152,0,-43.78217315673828,34.18608093261719,-27.88864517211914
0.232341006398201,-0.2918696999549866,9.9074125289917,-0.007881685063184303,0.006644611366734268,-0.023190076483704837,4.490004777908325,2019-07-25 12:05:51:608,-32.641893037050934,-95.56293022052242,0,-43.78217315673828,34.18608093261719,-27.88864517211914
0.014418788254261017,-0.12902672588825226,9.818806648254395,-0.00308682476657826,0.0026488941928215744,-0.013067593635314302,4.500004529953003,2019-07-25 12:05:51:618,-35.588859729171425,-97.23488105925861,0,-43.78217315673828,34.18608093261719,-27.88864517211914
0.21318301558494568,-0.18171121180057526,9.92896556854248,-0.008414447318362751,0.001050607232230483,0.002116131807605963,4.510005950927734,2019-07-25 12:05:51:628,-38.45307256722174,-98.86448886565277,0,-43.78217315673828,34.18608093261719,-27.88864517211914
0.12457727640867233,-0.19607971608638763,9.833174705505371,-0.002287681383810586,0.004513562346020471,0.01596795083235713,4.519991159439087,2019-07-25 12:05:51:638,-41.27202480672966,-100.46306920544482,0,-43.78217315673828,34.18608093261719,-27.88864517211914
