ACCELEROMETER X (m/s²),ACCELEROMETER Y (m/s²),ACCELEROMETER Z (m/s²),GYROSCOPE X (rad/s),GYROSCOPE Y (rad/s),GYROSCOPE Z (rad/s),Time since start in ms ,YYYY-MO-DD HH-MI-SS_SSS,Pitch (Deg),Roll (Deg),Heading (Deg),MagX,MagY,MagZ
0.1191699281334877,0.10172896832227707,9.613494873046875,-0.002703768575067792,0.021299036533856022,0.0018076624618576407,0.0,2019-08-06 14:12:54:698,-3.585795833222863,3.5878744971025625,0,-42.882537841796875,29.987789154052734,-40.483516693115234
0.1455121785402298,0.05143922194838524,9.608705520629883,0.0004928051185493561,0.01570503337463096,0.0007421378864821609,0.009998559951782227,2019-08-06 14:12:54:708,-7.1055448276611255,7.109705854331455,0,-42.882537841796875,29.987789154052734,-40.483516693115234
0.07606443762779236,0.06820247322320938,9.694916725158691,-0.003502911957835466,0.0183688436102259,-0.0003233867214026093,0.0200040340423584,2019-08-06 14:12:54:718,-10.564763210663198,10.561418460664001,0,-42.882537841796875,29.987789154052734,-40.483516693115234
0.07845918089151382,0.099334217607975,9.654206275939941,-0.0016382440647108938,0.01810246300278533,0.0031395680998037635,0.02999734878540039,2019-08-06 14:12:54:728,-13.954313074275166,13.939319190868785,0,-42.882537841796875,29.987789154052734,-40.483516693115234
0.11198568344116211,0.06580772250890732,9.594337463378906,-0.0019046251923001184,0.018901606905701654,-0.001655292456876604,0.04000091552734375,2019-08-06 14:12:54:738,-17.272469236526653,17.253742901839278,0,-42.882537841796875,29.987789154052734,-40.483516693115234
0.12156467884778976,0.07299196720123291,9.572784423828125,-0.003502911957835466,0.01863522629826108,-0.0021880547120550534,0.04999399185180664,2019-08-06 14:12:54:748,-20.522925074624453,20.501896186779767,0,-42.882537841796875,29.987789154052734,-40.483516693115234
0.08564343303442001,0.05862347409129143,9.623074531555176,-0.0019046251923001184,0.01357398435391716,0.00020937558253977584,0.06000351905822754,2019-08-06 14:12:54:758,-23.709897458650435,23.685947930202587,0,-42.882537841796875,29.987789154052734,-40.483516693115234
0.07606443762779236,0.08736047148704529,9.529679298400879,-0.0019046251923001184,0.020233512023499125,-5.7005565367755386e-05,0.07000231742858887,2019-08-06 14:12:54:768,-26.837912905620747,26.802793744948065,0,-42.882537841796875,29.987789154052734,-40.483516693115234
0.10719618201255798,0.10412371903657913,9.62067985534668,0.0010255674062370958,0.020499892630939702,0.005004236253002661,0.08001565933227539,2019-08-06 14:12:54:779,-29.899913097817837,29.853759593905618,0,-42.882537841796875,29.987789154052734,-40.483516693115234
0.10719618201255798,0.06101822108030319,9.52488899230957,-0.004035674213013915,0.018901606905701654,0.001541281334268416,0.09000229835510254,2019-08-06 14:12:54:788,-32.89961792180319,32.85160655071201,0,-43.18241882324219,29.687911987304688,-40.78339385986328
0.16945967078208923,0.04664972424507141,9.551231384277344,-0.006965867136644035,0.017303320140166306,-0.0013889113292873795,0.10000133514404297,2019-08-06 14:12:54:798,-35.83101150995548,35.792888579450576,0,-43.18241882324219,29.687911987304688,-40.78339385986328
0.07606443762779236,0.0801762193441391,9.663784980773926,-0.0003063383292368989,0.016504176237249982,0.006336141890948784,0.11003327369689941,2019-08-06 14:12:54:809,-38.7146685413844,38.66769642084048,0,-43.18241882324219,29.687911987304688,-40.78339385986328
0.08803818374872208,0.09214996546506882,9.618284225463867,-0.004035674213013915,0.015172271119452508,-0.0005897678815011245,0.12002182006835938,2019-08-06 14:12:54:819,-41.538396108425296,41.48562757666362,0,-43.18241882324219,29.687911987304688,-40.78339385986328
0.09761717915534973,0.13046596944332123,9.608705520629883,-0.004834817595781589,0.014373127216536186,-0.0021880547120550534,0.13001298904418945,2019-08-06 14:12:54:829,-44.30405031552899,44.24306920872642,0,-43.18241882324219,29.687911987304688,-40.78339385986328
0.1191699281334877,0.05143922194838524,9.63265323638916,-0.0019046251923001184,0.01756970178790418,-0.0013889113292873795,0.14000988006591797,2019-08-06 14:12:54:839,-47.013655686718465,46.95315770387821,0,-43.18241882324219,29.687911987304688,-40.78339385986328
0.10959093272686005,0.1065184697508812,9.577573776245117,0.0012919485988449018,0.018901606905701654,-0.0013889113292873795,0.15001535415649414,2019-08-06 14:12:54:849,-49.67089009684822,49.60062477306439,0,-43.18241882324219,29.687911987304688,-40.78339385986328
0.08803818374872208,0.07299196720123291,9.579968452453613,-0.003502911957835466,0.019700750808617978,0.00020937558253977584,0.16000986099243164,2019-08-06 14:12:54:859,-52.27799770183168,52.201847253858475,0,-43.18241882324219,29.687911987304688,-40.78339385986328
0.07845918089151382,0.03946547582745552,9.527284622192383,-0.0024373874474785677,0.0215654192218912,0.005004236253002661,0.17000722885131836,2019-08-06 14:12:54:868,-54.83510687293661,54.75443176654867,0,-43.18241882324219,29.687911987304688,-40.78339385986328
0.08324868232011795,0.0801762193441391,9.642231941223145,-0.0013718629371216693,0.017836082395344753,0.0028731869722145387,0.18001556396484375,2019-08-06 14:12:54:879,-57.33853470872047,57.25058587783913,0,-43.18241882324219,29.687911987304688,-40.78339385986328
0.12156467884778976,0.07059722393751144,9.627863883972168,-0.004035674213013915,0.020499892630939702,0.00020937558253977584,0.19001364707946777,2019-08-06 14:12:54:889,-59.78880451934152,59.699437367464704,0,-43.18241882324219,29.687911987304688,-40.78339385986328
0.09043293446302414,0.03946547582745552,9.658995628356934,-0.0037692930854246903,0.015971413982071532,0.00047575672638364575,0.19998717308044434,2019-08-06 14:12:54:898,-62.1912442234903,62.102877424937745,0,-43.18241882324219,29.687911987304688,-40.78339385986328
0.10240668058395386,0.029886476695537567,9.59194278717041,-0.003236530830246241,0.01996713141605855,-0.001122530201698155,0.2099757194519043,2019-08-06 14:12:54:908,-64.54638431457079,64.45906468216145,0,-43.18241882324219,29.687911987304688,-40.78339385986328
0.0928276851773262,0.041860222816467285,9.589548110961914,0.0020910919816125757,0.01863522629826108,0.0007421378864821609,0.2199842929840088,2019-08-06 14:12:54:918,-66.85483703437228,66.76370612627075,0,-43.18241882324219,29.687911987304688,-40.78339385986328
0.10480143129825592,0.03228122740983963,9.639837265014648,-3.9957173202045016e-05,0.017036938492428433,0.004471473997824211,0.2300117015838623,2019-08-06 14:12:54:929,-69.11487516990648,69.02461715176402,0,-43.18241882324219,29.687911987304688,-40.78339385986328
0.10959093272686005,0.07538671791553497,9.615889549255371,-0.004302055340603139,0.025028373360402468,0.0010085190140713856,0.24000048637390137,2019-08-06 14:12:54:938,-71.33355603045133,71.2375541248203,0,-43.18241882324219,29.687911987304688,-40.78339385986328
0.11438042670488358,0.03707072511315346,9.639837265014648,-0.0005727194893354142,0.014373127216536186,0.001541281334268416,0.24997496604919434,2019-08-06 14:12:54:948,-73.5013387079392,73.40871711928689,0,-43.18241882324219,29.687911987304688,-40.78339385986328
0.12874892354011536,0.07538671791553497,9.601521492004395,-0.0008391006169246387,0.016237795629809405,-0.0013889113292873795,0.2600092887878418,2019-08-06 14:12:54:958,-75.62509581316408,75.53201853211571,0,-43.18241882324219,29.687911987304688,-40.78339385986328
0.09761717915534973,0.07299196720123291,9.517704963684082,-0.003502911957835466,0.01810246300278533,-5.7005565367755386e-05,0.2699851989746094,2019-08-06 14:12:54:968,-77.71098138784484,77.61455236640114,0,-43.18241882324219,29.687911987304688,-40.78339385986328
0.10719618201255798,0.056228723376989365,9.577573776245117,0.0020910919816125757,0.0183688436102259,0.0026068058446253144,0.2799956798553467,2019-08-06 14:12:54:978,-79.75426162332293,79.65435849506623,0,-43.18241882324219,29.687911987304688,-40.78339385986328
0.07606443762779236,0.06101822108030319,9.637442588806152,-0.0008391006169246387,0.015971413982071532,-0.000856149009090349,0.2899899482727051,2019-08-06 14:12:54:988,-81.75909511739965,81.65448708958871,0,-43.18241882324219,29.687911987304688,-40.78339385986328
0.10240668058395386,0.06341297179460526,9.642231941223145,-0.0008391006169246387,0.015172271119452508,-0.0021880547120550534,0.2999880313873291,2019-08-06 14:12:54:998,-83.72026089146281,83.61433230705734,0,-43.18241882324219,29.687911987304688,-40.78339385986328
0.07606443762779236,0.11370271444320679,9.596732139587402,-0.0003063383292368989,0.015172271119452508,-0.000856149009090349,0.30998826026916504,2019-08-06 14:12:55:008,-85.64529265322834,85.52864142526228,0,-43.18241882324219,29.687911987304688,-40.78339385986328
0.07127493619918823,0.0538339726626873,9.570389747619629,-0.0016382440647108938,0.01996713141605855,0.0010085190140713856,0.3199806213378906,2019-08-06 14:12:55:018,-87.53505576912931,87.412541995175,0,-43.18241882324219,29.687911987304688,-40.78339385986328
0.10719618201255798,0.034675974398851395,9.63265323638916,-0.0011054818095324445,0.021299036533856022,0.0018076624618576407,0.3299989700317383,2019-08-06 14:12:55:028,-89.38358427752448,89.26078793008152,0,-43.18241882324219,29.687911987304688,-40.78339385986328
0.11438042670488358,0.11609746515750885,9.567995071411133,-0.0013718629371216693,0.01863522629826108,-0.001655292456876604,0.3399808406829834,2019-08-06 14:12:55:038,-91.19265910124886,91.06243728702101,0,-42.43272399902344,29.537973403930664,-40.63345718383789
0.08085393160581589,0.06101822108030319,9.601521492004395,-0.0011054818095324445,0.010910172037727614,-0.0005897678815011245,0.3499882221221924,2019-08-06 14:12:55:048,-92.96528701817162,92.83452746457678,0,-42.43272399902344,29.537973403930664,-40.63345718383789
0.06888018548488617,0.041860222816467285,9.556020736694336,-0.004302055340603139,0.01863522629826108,-0.000856149009090349,0.3600120544433594,2019-08-06 14:12:55:059,-94.70821020627349,94.57523861042871,0,-42.43272399902344,29.537973403930664,-40.63345718383789
0.08564343303442001,0.04425497353076935,9.596732139587402,0.0010255674062370958,0.02289732433968867,-0.0027208169672335025,0.3699965476989746,2019-08-06 14:12:55:068,-96.41665674046484,96.27787456678966,0,-42.43272399902344,29.537973403930664,-40.63345718383789
0.11198568344116211,0.0801762193441391,9.589548110961914,0.0023574731092018,0.018901606905701654,-0.0027208169672335025,0.3799889087677002,2019-08-06 14:12:55:078,-98.08554745743218,97.94141382975721,0,-42.43272399902344,29.537973403930664,-40.63345718383789
0.1191699281334877,0.08257097005844116,9.618284225463867,0.0010255674062370958,0.014373127216536186,-5.7005565367755386e-05,0.3899881839752197,2019-08-06 14:12:55:088,-99.71770932007108,99.57217253479295,0,-42.43272399902344,29.537973403930664,-40.63345718383789
0.09522242844104767,0.07538671791553497,9.55362606048584,-0.0016382440647108938,0.013307602706179285,0.0028731869722145387,0.39998888969421387,2019-08-06 14:12:55:098,-101.31940672689586,101.17260690196247,0,-42.43272399902344,29.537973403930664,-40.63345718383789
0.09522242844104767,0.11609746515750885,9.59194278717041,-0.0019046251923001184,0.01810246300278533,0.003405949227392988,0.409989595413208,2019-08-06 14:12:55:108,-102.89180830387491,102.73635520620479,0,-42.43272399902344,29.537973403930664,-40.63345718383789
0.12874892354011536,-0.003640019567683339,9.64462661743164,-0.004568436468192365,0.0215654192218912,-0.0024544358396442778,0.4199976921081543,2019-08-06 14:12:55:118,-104.43079464393868,97.0846278347396,0,-42.43272399902344,29.537973403930664,-40.63345718383789
0.152696430683136,0.049044474959373474,9.64462661743164,-0.008297772774590158,0.014905889471714633,-0.004585484860358075,0.4299898147583008,2019-08-06 14:12:55:128,-105.93240085363139,98.74176368141522,0,-42.43272399902344,29.537973403930664,-40.63345718383789
0.11438042670488358,0.05862347409129143,9.611100196838379,-0.003236530830246241,0.016237795629809405,0.0026068058446253144,0.4399912357330322,2019-08-06 14:12:55:138,-107.40923488683566,100.36175648044133,0,-42.43272399902344,29.537973403930664,-40.63345718383789
0.11198568344116211,0.06580772250890732,9.596732139587402,-0.002171006319889343,0.018901606905701654,0.0018076624618576407,0.44998908042907715,2019-08-06 14:12:55:148,-108.85828987696212,101.94788233526275,0,-42.43272399902344,29.537973403930664,-40.63345718383789
0.10959093272686005,0.06820247322320938,9.558416366577148,-0.00723224826423326,0.020233512023499125,-0.0021880547120550534,0.4599943161010742,2019-08-06 14:12:55:158,-110.27935332833077,103.504811362961,0,-42.882537841796875,29.38803482055664,-40.78339385986328
0.13593317568302155,0.13765020668506622,9.608705520629883,0.0010255674062370958,0.01863522629826108,0.0012749002066791914,0.46999263763427734,2019-08-06 14:12:55:168,-111.66801811404567,105.01772460372163,0,-42.882537841796875,29.38803482055664,-40.78339385986328
0.13353842496871948,0.06820247322320938,9.589548110961914,-0.0008391006169246387,0.015172271119452508,-0.001655292456876604,0.47999000549316406,2019-08-06 14:12:55:178,-113.02721840162519,106.50969133518382,0,-42.882537841796875,29.38803482055664,-40.78339385986328
0.08324868232011795,0.02509697712957859,9.594337463378906,-0.0037692930854246903,0.018901606905701654,-0.0027208169672335025,0.4899904727935791,2019-08-06 14:12:55:188,-114.36734506132794,107.97861656811449,0,-42.882537841796875,29.38803482055664,-40.78339385986328
0.1263541728258133,0.08257097005844116,9.606310844421387,-0.0037692930854246903,0.021032655926415452,-0.006450152753482647,0.49999165534973145,2019-08-06 14:12:55:198,-115.67673772346221,109.41131147400306,0,-42.882537841796875,29.38803482055664,-40.78339385986328
0.08085393160581589,0.08496572077274323,9.587152481079102,-0.002970149702657017,0.017036938492428433,0.00020937558253977584,0.5099959373474121,2019-08-06 14:12:55:208,-116.96310935159055,110.81459833258958,0,-42.882537841796875,29.38803482055664,-40.78339385986328
0.12156467884778976,0.08257097005844116,9.639837265014648,-0.0003063383292368989,0.016504176237249982,0.00020937558253977584,0.5199861526489258,2019-08-06 14:12:55:218,-118.21865518729112,112.1886629940283,0,-42.882537841796875,29.38803482055664,-40.78339385986328
0.08564343303442001,0.034675974398851395,9.611100196838379,-0.004035674213013915,0.015438651726893083,0.001541281334268416,0.5299856662750244,2019-08-06 14:12:55:228,-119.45273958914895,113.54302130834043,0,-42.882537841796875,29.38803482055664,-40.78339385986328
0.07845918089151382,0.0801762193441391,9.58236312866211,0.0002264239747054862,0.020233512023499125,0.0018076624618576407,0.5399923324584961,2019-08-06 14:12:55:238,-120.66567105766559,114.86244593845602,0,-42.882537841796875,29.38803482055664,-40.78339385986328
0.14790692925453186,0.06341297179460526,9.685338020324707,-0.002703768575067792,0.021299036533856022,-5.7005565367755386e-05,0.5499894618988037,2019-08-06 14:12:55:248,-121.84681541443094,116.1592121816104,0,-42.882537841796875,29.38803482055664,-40.78339385986328
0.09522242844104767,0.099334217607975,9.599126815795898,-0.004302055340603139,0.01810246300278533,-0.0013889113292873795,0.5599980354309082,2019-08-06 14:12:55:258,-123.0086853278305,117.4265878030785,0,-42.882537841796875,29.38803482055664,-40.78339385986328
0.08085393160581589,0.034675974398851395,9.60391616821289,-0.004302055340603139,0.01863522629826108,-5.7005565367755386e-05,0.5699865818023682,2019-08-06 14:12:55:268,-124.14931622701287,118.67633144473818,0,-42.882537841796875,29.38803482055664,-40.78339385986328
0.0736696869134903,0.06580772250890732,9.60391616821289,-0.002703768575067792,0.021299036533856022,0.0010085190140713856,0.5799875259399414,2019-08-06 14:12:55:278,-125.26950049868843,119.8964712292984,0,-42.882537841796875,29.38803482055664,-40.78339385986328
0.06409068405628204,0.07299196720123291,9.613494873046875,0.0012919485988449018,0.020499892630939702,0.0023404247170360896,0.5899910926818848,2019-08-06 14:12:55:288,-126.36798584638375,121.08911574197971,0,-42.732601165771484,29.238094329833984,-41.233211517333984
0.14790692925453186,0.07778146862983704,9.63265323638916,0.001824710854023351,0.017303320140166306,-0.0021880547120550534,0.5999882221221924,2019-08-06 14:12:55:298,-127.43274527269551,122.25705634375312,0,-42.732601165771484,29.238094329833984,-41.233211517333984
0.09043293446302414,0.12328171730041504,9.551231384277344,-0.0016382440647108938,0.014639508864274061,-0.0024544358396442778,0.6099958419799805,2019-08-06 14:12:55:308,-128.48146726546855,123.39804580164231,0,-42.732601165771484,29.238094329833984,-41.233211517333984
0.08324868232011795,0.04664972424507141,9.60391616821289,-0.003236530830246241,0.01756970178790418,0.0012749002066791914,0.6199700832366943,2019-08-06 14:12:55:318,-129.51174509318687,124.5263314258446,0,-42.732601165771484,29.238094329833984,-41.233211517333984
0.11677517741918564,0.11130796372890472,9.611100196838379,-0.003502911957835466,0.01810246300278533,0.0007421378864821609,0.6299903392791748,2019-08-06 14:12:55:328,-130.517773062606,125.62450519048691,0,-42.732601165771484,29.238094329833984,-41.233211517333984
0.08564343303442001,0.07299196720123291,9.623074531555176,-0.010428821275155304,0.020499892630939702,-0.001655292456876604,0.6399893760681152,2019-08-06 14:12:55:338,-131.50872900480448,126.70917857577761,0,-42.732601165771484,29.238094329833984,-41.233211517333984
0.06169593706727028,0.0538339726626873,9.594337463378906,0.0004928051185493561,0.015172271119452508,-0.0024544358396442778,0.6499979496002197,2019-08-06 14:12:55:348,-132.47971228337522,127.76828837538274,0,-42.732601165771484,29.238094329833984,-41.233211517333984
0.07606443762779236,0.03707072511315346,9.560811042785645,-0.004568436468192365,0.0183688436102259,-0.002987198094822727,0.6599886417388916,2019-08-06 14:12:55:358,-133.43130597090703,128.81104228384828,0,-42.732601165771484,29.238094329833984,-41.233211517333984
0.07845918089151382,0.09693946689367294,9.608705520629883,-0.002970149702657017,0.019700750808617978,0.0010085190140713856,0.6699905395507812,2019-08-06 14:12:55:368,-134.36438721376462,129.82492906902874,0,-42.732601165771484,29.238094329833984,-41.233211517333984
0.0928276851773262,0.07538671791553497,9.587152481079102,-0.005900342106138487,0.020499892630939702,-0.00431910373276885,0.6799912452697754,2019-08-06 14:12:55:378,-135.27751595293086,130.82273325577802,0,-42.732601165771484,29.238094329833984,-41.233211517333984
0.09043293446302414,0.03228122740983963,9.58236312866211,-0.002970149702657017,0.021032655926415452,0.0007421378864821609,0.6899869441986084,2019-08-06 14:12:55:388,-136.1729561785889,131.80408524310428,0,-42.732601165771484,29.238094329833984,-41.233211517333984
0.152696430683136,0.04664972424507141,9.682943344116211,-0.005367579850960038,0.01357398435391716,-0.0019216735844658289,0.6999967098236084,2019-08-06 14:12:55:398,-137.03905710512552,132.7654997108212,0,-42.732601165771484,29.238094329833984,-41.233211517333984
0.0664854347705841,0.05862347409129143,9.522494316101074,0.0012919485988449018,0.01357398435391716,0.00047575672638364575,0.7099916934967041,2019-08-06 14:12:55:408,-137.89789333546028,133.70241012496808,0,-42.882537841796875,28.788278579711914,-39.58388137817383
0.10959093272686005,0.05143922194838524,9.589548110961914,-0.004035674213013915,0.021831799829331772,0.0018076624618576407,0.7199869155883789,2019-08-06 14:12:55:418,-138.739092995903,134.62448012722965,0,-42.882537841796875,28.788278579711914,-39.58388137817383
0.1263541728258133,0.07538671791553497,9.642231941223145,-0.006433104361316936,0.02209818043677235,0.0018076624618576407,0.7299909591674805,2019-08-06 14:12:55:428,-139.56170875198134,135.52664513360617,0,-42.882537841796875,28.788278579711914,-39.58388137817383
0.1263541728258133,0.08736047148704529,9.579968452453613,-0.002171006319889343,0.021831799829331772,0.00020937558253977584,0.7399930953979492,2019-08-06 14:12:55:438,-140.36762264239727,136.40688210539724,0,-42.882537841796875,28.788278579711914,-39.58388137817383
0.10240668058395386,0.07059722393751144,9.60391616821289,0.0012919485988449018,0.01756970178790418,0.0020740435894468653,0.7499904632568359,2019-08-06 14:12:55:448,-141.15791450700323,137.26959589192862,0,-42.882537841796875,28.788278579711914,-39.58388137817383
0.08564343303442001,0.07299196720123291,9.613494873046875,-0.0037692930854246903,0.01810246300278533,0.0012749002066791914,0.7599859237670898,2019-08-06 14:12:55:458,-141.93470779967333,138.11761908965542,0,-42.882537841796875,28.788278579711914,-39.58388137817383
0.1191699281334877,0.06580772250890732,9.577573776245117,-0.002703768575067792,0.01996713141605855,-0.0027208169672335025,0.7699909210205078,2019-08-06 14:12:55:468,-142.69297332885867,138.9489121412893,0,-42.882537841796875,28.788278579711914,-39.58388137817383
0.1000119298696518,0.099334217607975,9.630258560180664,0.0004928051185493561,0.016504176237249982,0.006069760763359559,0.7799899578094482,2019-08-06 14:12:55:478,-143.43647993490785,139.75783774158242,0,-42.882537841796875,28.788278579711914,-39.58388137817383
0.059301186352968216,0.07778146862983704,9.51291561126709,-0.0024373874474785677,0.017303320140166306,0.0031395680998037635,0.7899932861328125,2019-08-06 14:12:55:488,-144.17032609600682,140.5546807686694,0,-42.882537841796875,28.788278579711914,-39.58388137817383
0.09761717915534973,0.04425497353076935,9.579968452453613,-0.004302055340603139,0.021032655926415452,-0.0003233867214026093,0.7999882698059082,2019-08-06 14:12:55:498,-144.88704730470812,141.34070798336523,0,-42.882537841796875,28.788278579711914,-39.58388137817383
0.08803818374872208,0.0011494798818603158,9.599126815795898,-0.0016382440647108938,0.0194343681205828,0.006602523018538008,0.8099846839904785,2019-08-06 14:12:55:508,-145.5897053715328,142.1146761441275,0,-42.882537841796875,28.788278579711914,-39.58388137817383
0.12874892354011536,0.05862347409129143,9.62067985534668,-0.0013718629371216693,0.016770557884987856,0.0026068058446253144,0.8199913501739502,2019-08-06 14:12:55:518,-146.27199986593993,142.86617090019408,0,-42.882537841796875,28.788278579711914,-39.58388137817383
0.11438042670488358,0.06101822108030319,9.599126815795898,-0.004302055340603139,0.014373127216536186,0.00047575672638364575,0.8299930095672607,2019-08-06 14:12:55:528,-146.94097794570158,143.60397940318833,0,-42.882537841796875,28.788278579711914,-39.58388137817383
0.0928276851773262,0.0801762193441391,9.534468650817871,0.0020910919816125757,0.01410674660909561,-0.001122530201698155,0.8399984836578369,2019-08-06 14:12:55:538,-147.59892734827542,144.32108914515067,0,-43.03247833251953,30.737483978271484,-40.33357620239258
0.12874892354011536,0.03707072511315346,9.55362606048584,0.0010255674062370958,0.0183688436102259,-0.006982915528809746,0.8499882221221924,2019-08-06 14:12:55:548,-148.24181036363956,145.02964564971035,0,-43.03247833251953,30.737483978271484,-40.33357620239258
0.10959093272686005,0.07059722393751144,9.59194278717041,-0.0003063383292368989,0.018901606905701654,0.00047575672638364575,0.8599903583526611,2019-08-06 14:12:55:558,-148.87449777740323,145.72079093283523,0,-43.03247833251953,30.737483978271484,-40.33357620239258
0.0928276851773262,0.022702226415276527,9.606310844421387,-0.004568436468192365,0.01410674660909561,0.00020937558253977584,0.8699932098388672,2019-08-06 14:12:55:568,-149.49385813475087,146.40623292311915,0,-43.03247833251953,30.737483978271484,-40.33357620239258
0.06888018548488617,0.08257097005844116,9.56320571899414,-0.0019046251923001184,0.012508459843560263,0.0010085190140713856,0.8799839019775391,2019-08-06 14:12:55:578,-150.10274446021256,147.06928285450502,0,-43.03247833251953,30.737483978271484,-40.33357620239258
0.05451168864965439,0.07299196720123291,9.62067985534668,-0.005900342106138487,0.016237795629809405,-0.00431910373276885,0.8899941444396973,2019-08-06 14:12:55:588,-150.70332361229688,147.7225197456555,0,-43.03247833251953,30.737483978271484,-40.33357620239258
0.12156467884778976,0.06820247322320938,9.601521492004395,-0.002703768575067792,0.012774840451000838,-0.004052722605179625,0.8999996185302734,2019-08-06 14:12:55:598,-151.28192648209924,148.3614487005775,0,-43.03247833251953,30.737483978271484,-40.33357620239258
0.10719618201255798,0.10172896832227707,9.615889549255371,-0.004035674213013915,0.013840364961357736,-0.0019216735844658289,0.9099843502044678,2019-08-06 14:12:55:608,-151.85127350424602,148.98435980883386,0,-43.03247833251953,30.737483978271484,-40.33357620239258
0.09043293446302414,0.06101822108030319,9.596732139587402,-0.0003063383292368989,0.021831799829331772,0.004737855125413436,0.9199881553649902,2019-08-06 14:12:55:618,-152.41571323205932,149.59755879105015,0,-43.03247833251953,30.737483978271484,-40.33357620239258
0.11677517741918564,0.07299196720123291,9.594337463378906,-0.005101198723370813,0.015172271119452508,-0.0024544358396442778,0.9299862384796143,2019-08-06 14:12:55:628,-152.9619699958411,150.19975363397134,0,-43.03247833251953,30.737483978271484,-40.33357620239258
0.10480143129825592,0.04425497353076935,9.635047912597656,0.0007591862786478714,0.01357398435391716,-0.0032535792224119516,0.9399933815002441,2019-08-06 14:12:55:638,-153.4978940608264,150.79006867890575,0,-43.03247833251953,30.737483978271484,-40.33357620239258
0.1191699281334877,0.0801762193441391,9.594337463378906,0.0007591862786478714,0.01810246300278533,-0.005118247115536523,0.949986457824707,2019-08-06 14:12:55:648,-154.02386112446737,151.36426556171796,0,-43.03247833251953,30.737483978271484,-40.33357620239258
0.09043293446302414,0.03946547582745552,9.577573776245117,-0.003236530830246241,0.01410674660909561,-0.007515677783988195,0.9600083827972412,2019-08-06 14:12:55:658,-154.54050259670416,151.93407969453148,0,-43.78217315673828,28.788278579711914,-40.18363952636719
0.02816944010555744,0.034675974398851395,9.527284622192383,-0.0024373874474785677,0.0183688436102259,-0.001122530201698155,0.9699923992156982,2019-08-06 14:12:55:668,-155.05660200696167,152.49259379046882,0,-43.78217315673828,28.788278579711914,-40.18363952636719
0.06169593706727028,0.08257097005844116,9.58236312866211,-0.003236530830246241,0.021299036533856022,-0.004052722605179625,0.9799797534942627,2019-08-06 14:12:55:678,-155.56003636068053,153.03468284420228,0,-43.78217315673828,28.788278579711914,-40.18363952636719
0.12395942956209183,0.06820247322320938,9.685338020324707,-0.0061667232337277115,0.013041222098738713,-0.0005897678815011245,0.9899935722351074,2019-08-06 14:12:55:688,-156.04150298796205,153.5693873731244,0,-43.78217315673828,28.788278579711914,-40.18363952636719
0.0664854347705841,0.09214996546506882,9.599126815795898,-0.002171006319889343,0.014639508864274061,-0.005651009370714973,0.9999914169311523,2019-08-06 14:12:55:698,-156.52095451164865,154.08821812546884,0,-43.78217315673828,28.788278579711914,-40.18363952636719
0.10480143129825592,0.11609746515750885,9.589548110961914,-0.004035674213013915,0.020499892630939702,0.0020740435894468653,1.0099895000457764,2019-08-06 14:12:55:708,-156.98952099125358,154.59484681351196,0,-43.78217315673828,28.788278579711914,-40.18363952636719
0.07127493619918823,0.08257097005844116,9.560811042785645,-0.0011054818095324445,0.0194343681205828,-0.0027208169672335025,1.0199902057647705,2019-08-06 14:12:55:718,-157.45210117939712,155.09367431042705,0,-43.78217315673828,28.788278579711914,-40.18363952636719
0.08324868232011795,0.08257097005844116,9.635047912597656,-0.0003063383292368989,0.017036938492428433,-0.0013889113292873795,1.0299873352050781,2019-08-06 14:12:55:728,-157.9027219410092,155.58215269256914,0,-43.78217315673828,28.788278579711914,-40.18363952636719
0.0736696869134903,0.08975522220134735,9.647021293640137,-0.0005727194893354142,0.021032655926415452,-0.004585484860358075,1.0399940013885498,2019-08-06 14:12:55:738,-158.34773454339722,156.06017022213007,0,-43.78217315673828,28.788278579711914,-40.18363952636719
0.11438042670488358,0.07538671791553497,9.613494873046875,-0.0008391006169246387,0.017303320140166306,-0.004585484860358075,1.0499889850616455,2019-08-06 14:12:55:748,-158.77685742056522,156.530451924538,0,-43.78217315673828,28.788278579711914,-40.18363952636719
0.12156467884778976,0.05143922194838524,9.596732139587402,-0.004568436468192365,0.01810246300278533,-0.0005897678815011245,1.0599913597106934,2019-08-06 14:12:55:758,-159.19697231471415,156.99626652921933,0,-43.78217315673828,28.788278579711914,-40.18363952636719
0.1191699281334877,0.08496572077274323,9.639837265014648,-0.004302055340603139,0.01996713141605855,0.0026068058446253144,1.0699858665466309,2019-08-06 14:12:55:768,-159.61007287128228,157.448655608257,0,-43.78217315673828,28.788278579711914,-40.18363952636719
0.1383279263973236,0.06580772250890732,9.654206275939941,-0.004035674213013915,0.017303320140166306,-0.004052722605179625,1.0799901485443115,2019-08-06 14:12:55:778,-160.0111735178932,157.89413850005863,0,-43.78217315673828,28.788278579711914,-40.18363952636719
0.1000119298696518,0.08496572077274323,9.596732139587402,-0.004302055340603139,0.01570503337463096,-0.001122530201698155,1.0899872779846191,2019-08-06 14:12:55:788,-160.40782419347116,158.3285254105553,0,-42.13284683227539,28.938217163085938,-40.33357620239258
0.08564343303442001,0.11849221587181091,9.60391616821289,-0.002970149702657017,0.020766275318974875,0.0028731869722145387,1.09999418258667,2019-08-06 14:12:55:798,-160.80111750352526,158.7494863072397,0,-42.13284683227539,28.938217163085938,-40.33357620239258
0.059301186352968216,0.10412371903657913,9.56320571899414,-0.0037692930854246903,0.017303320140166306,0.005803379635770335,1.1100201606750488,2019-08-06 14:12:55:809,-161.18773048266797,159.1641423519163,0,-42.13284683227539,28.938217163085938,-40.33357620239258
0.13114367425441742,0.0538339726626873,9.560811042785645,-0.0061667232337277115,0.015172271119452508,-0.005118247115536523,1.1200063228607178,2019-08-06 14:12:55:818,-161.55676599162965,159.57786509168196,0,-42.13284683227539,28.938217163085938,-40.33357620239258
0.13593317568302155,0.06580772250890732,9.63265323638916,-0.0008391006169246387,0.012242078195822388,-0.004052722605179625,1.129992961883545,2019-08-06 14:12:55:828,-161.9163256465915,159.97894984573807,0,-42.13284683227539,28.938217163085938,-40.33357620239258
0.08803818374872208,0.12088696658611298,9.577573776245117,-0.0005727194893354142,0.012508459843560263,0.0026068058446253144,1.1399893760681152,2019-08-06 14:12:55:838,-162.27448700422866,160.3652294760846,0,-42.13284683227539,28.938217163085938,-40.33357620239258
0.10240668058395386,0.0801762193441391,9.548836708068848,-0.0011054818095324445,0.018901606905701654,0.005803379635770335,1.1499919891357422,2019-08-06 14:12:55:848,-162.62732434162655,160.7489243917123,0,-42.13284683227539,28.938217163085938,-40.33357620239258
0.09043293446302414,0.03707072511315346,9.618284225463867,-0.0024373874474785677,0.018901606905701654,-0.0019216735844658289,1.1599783897399902,2019-08-06 14:12:55:858,-162.97460284951978,161.1308960742718,0,-42.13284683227539,28.938217163085938,-40.33357620239258
0.1646701693534851,0.0801762193441391,9.587152481079102,-0.0016382440647108938,0.014373127216536186,-0.0013889113292873795,1.1699795722961426,2019-08-06 14:12:55:868,-163.30350177931192,161.49961520058088,0,-42.13284683227539,28.938217163085938,-40.33357620239258
0.11677517741918564,0.05862347409129143,9.560811042785645,-0.0024373874474785677,0.01996713141605855,0.007934428656484131,1.1799921989440918,2019-08-06 14:12:55:878,-163.63466196829123,161.86396695784208,0,-42.13284683227539,28.938217163085938,-40.33357620239258
0.0928276851773262,0.05862347409129143,9.627863883972168,0.0015583297264341264,0.014905889471714633,-0.000856149009090349,1.1899914741516113,2019-08-06 14:12:55:888,-163.9592896804832,162.21883535839717,0,-42.13284683227539,28.938217163085938,-40.33357620239258
0.0928276851773262,0.12088696658611298,9.599126815795898,0.0010255674062370958,0.020766275318974875,0.004471473997824211,1.1999881267547607,2019-08-06 14:12:55:898,-164.28067906783096,162.55945262080374,0,-42.13284683227539,28.938217163085938,-40.33357620239258
0.11438042670488358,0.04425497353076935,9.546442031860352,-0.002703768575067792,0.021032655926415452,0.001541281334268416,1.2099933624267578,2019-08-06 14:12:55:908,-164.59315237890738,162.90447037889095,0,-42.43272399902344,30.13772964477539,-40.33357620239258
0.13114367425441742,0.05862347409129143,9.584757804870605,-0.0037692930854246903,0.014905889471714633,0.0026068058446253144,1.2199935913085938,2019-08-06 14:12:55:918,-164.89398112083617,163.24148877027088,0,-42.43272399902344,30.13772964477539,-40.33357620239258
0.10719618201255798,0.056228723376989365,9.579968452453613,0.0010255674062370958,0.019167987513142228,0.003405949227392988,1.229985237121582,2019-08-06 14:12:55:928,-165.1940334839264,163.56935785474673,0,-42.43272399902344,30.13772964477539,-40.33357620239258
0.08564343303442001,0.10412371903657913,9.613494873046875,-0.0037692930854246903,0.021032655926415452,0.004471473997824211,1.2399957180023193,2019-08-06 14:12:55:938,-165.49176668828406,163.88767844759298,0,-42.43272399902344,30.13772964477539,-40.33357620239258
0.14072267711162567,0.06341297179460526,9.567995071411133,-0.003236530830246241,0.0183688436102259,0.006868904146127233,1.2499666213989258,2019-08-06 14:12:55:948,-165.77536291984725,164.2041423242915,0,-42.43272399902344,30.13772964477539,-40.33357620239258
0.1383279263973236,0.022702226415276527,9.594337463378906,-0.0013718629371216693,0.016504176237249982,0.0018076624618576407,1.259983777999878,2019-08-06 14:12:55:958,-166.05261835265426,164.5181196255865,0,-42.43272399902344,30.13772964477539,-40.33357620239258
0.08085393160581589,0.08496572077274323,9.579968452453613,-0.0019046251923001184,0.012508459843560263,0.007401666401305682,1.2700204849243164,2019-08-06 14:12:55:969,-166.3289440717455,164.81866762693969,0,-42.43272399902344,30.13772964477539,-40.33357620239258
0.10240668058395386,0.1065184697508812,9.623074531555176,-0.0008391006169246387,0.014639508864274061,0.004737855125413436,1.2799906730651855,2019-08-06 14:12:55:978,-166.5983666231872,165.1100803236669,0,-42.43272399902344,30.13772964477539,-40.33357620239258
0.07606443762779236,0.11370271444320679,9.534468650817871,-0.004834817595781589,0.021299036533856022,0.0023404247170360896,1.2899880409240723,2019-08-06 14:12:55:988,-166.86921378892077,165.39692784861347,0,-42.43272399902344,30.13772964477539,-40.33357620239258
0.08564343303442001,0.09214996546506882,9.637442588806152,-0.004834817595781589,0.0183688436102259,-0.001122530201698155,1.2999863624572754,2019-08-06 14:12:55:998,-167.13195891619395,165.68074705619034,0,-42.43272399902344,30.13772964477539,-40.33357620239258
0.08564343303442001,0.041860222816467285,9.594337463378906,0.0004928051185493561,0.015971413982071532,-0.001122530201698155,1.3099925518035889,2019-08-06 14:12:56:008,-167.38806452200876,165.9618556210583,0,-42.43272399902344,30.13772964477539,-40.33357620239258
0.08803818374872208,0.05862347409129143,9.63265323638916,-0.002970149702657017,0.017836082395344753,-0.001655292456876604,1.3199851512908936,2019-08-06 14:12:56:018,-167.63983788668904,166.23731115479518,0,-42.43272399902344,30.13772964477539,-40.33357620239258
0.08564343303442001,0.04664972424507141,9.611100196838379,0.0002264239747054862,0.017036938492428433,-0.0032535792224119516,1.3299965858459473,2019-08-06 14:12:56:028,-167.88640743057417,166.5068757237331,0,-42.43272399902344,30.13772964477539,-40.33357620239258
0.13114367425441742,0.08257097005844116,9.611100196838379,-0.005900342106138487,0.013840364961357736,0.00047575672638364575,1.3399889469146729,2019-08-06 14:12:56:038,-168.12080961836233,166.77020415444017,0,-43.33235549926758,29.238094329833984,-40.63345718383789
0.0736696869134903,0.0801762193441391,9.579968452453613,-0.0024373874474785677,0.017836082395344753,-0.001122530201698155,1.3499886989593506,2019-08-06 14:12:56:048,-168.35959622882498,167.02657850843676,0,-43.33235549926758,29.238094329833984,-40.63345718383789
0.11677517741918564,0.099334217607975,9.599126815795898,-0.0011054818095324445,0.01410674660909561,0.0023404247170360896,1.3599913120269775,2019-08-06 14:12:56:058,-168.58638770268524,167.27481002285958,0,-43.33235549926758,29.238094329833984,-40.63345718383789
0.12156467884778976,0.05862347409129143,9.63265323638916,0.002890235364380249,0.014905889471714633,-0.000856149009090349,1.3699922561645508,2019-08-06 14:12:56:068,-168.808569617633,167.52071695130874,0,-43.33235549926758,29.238094329833984,-40.63345718383789
0.10719618201255798,0.015517977997660637,9.570389747619629,-0.0011054818095324445,0.02209818043677235,-0.002987198094822727,1.379997968673706,2019-08-06 14:12:56:078,-169.03197875781825,167.76906564187283,0,-43.33235549926758,29.238094329833984,-40.63345718383789
0.14072267711162567,0.099334217607975,9.611100196838379,0.0020910919816125757,0.015438651726893083,0.0023404247170360896,1.3899860382080078,2019-08-06 14:12:56:088,-169.24322068895108,168.00066855164545,0,-43.33235549926758,29.238094329833984,-40.63345718383789
0.1000119298696518,0.06101822108030319,9.587152481079102,-0.004302055340603139,0.012774840451000838,-0.005118247115536523,1.3999922275543213,2019-08-06 14:12:56:098,-169.4535801613045,168.23577909831155,0,-43.33235549926758,29.238094329833984,-40.63345718383789
0.05451168864965439,0.10891321301460266,9.627863883972168,0.0010255674062370958,0.020766275318974875,0.0010085190140713856,1.4099888801574707,2019-08-06 14:12:56:108,-169.66967693747245,168.45752547489812,0,-43.33235549926758,29.238094329833984,-40.63345718383789
0.09761717915534973,0.08496572077274323,9.630258560180664,-0.003502911957835466,0.01996713141605855,-0.0027208169672335025,1.4199943542480469,2019-08-06 14:12:56:118,-169.8758858700247,168.68023301544306,0,-43.33235549926758,29.238094329833984,-40.63345718383789
0.0928276851773262,0.12807121872901917,9.599126815795898,-0.004035674213013915,0.016504176237249982,-0.000856149009090349,1.4299871921539307,2019-08-06 14:12:56:128,-170.07654743672595,168.89360489857995,0,-43.33235549926758,29.238094329833984,-40.63345718383789
0.12874892354011536,0.08496572077274323,9.558416366577148,-0.0011054818095324445,0.021032655926415452,-0.0027208169672335025,1.4399855136871338,2019-08-06 14:12:56:138,-170.27139011686558,169.10616753273567,0,-43.33235549926758,29.238094329833984,-40.63345718383789
0.12874892354011536,0.0538339726626873,9.647021293640137,-0.005900342106138487,0.01756970178790418,-0.001655292456876604,1.4499924182891846,2019-08-06 14:12:56:148,-170.46054203468987,169.32096493415273,0,-43.33235549926758,29.238094329833984,-40.63345718383789
0.10719618201255798,0.11130796372890472,9.608705520629883,-0.0011054818095324445,0.016237795629809405,-0.0003233867214026093,1.4599835872650146,2019-08-06 14:12:56:158,-170.64765716395874,169.52189203561315,0,-42.882537841796875,29.687911987304688,-39.58388137817383
0.11438042670488358,0.07299196720123291,9.54165267944336,-0.00723224826423326,0.0194343681205828,-0.000856149009090349,1.469996452331543,2019-08-06 14:12:56:168,-170.83189444174906,169.72675443481265,0,-42.882537841796875,29.687911987304688,-39.58388137817383
0.12395942956209183,0.06580772250890732,9.556020736694336,-0.002171006319889343,0.018901606905701654,-0.0032535792224119516,1.4799890518188477,2019-08-06 14:12:56:178,-171.01099809423852,169.9255462158379,0,-42.882537841796875,29.687911987304688,-39.58388137817383
0.152696430683136,0.09693946689367294,9.627863883972168,-0.0019046251923001184,0.0194343681205828,-0.0019216735844658289,1.4899897575378418,2019-08-06 14:12:56:188,-171.18351875342623,170.11656739316118,0,-42.882537841796875,29.687911987304688,-39.58388137817383
0.08324868232011795,0.1065184697508812,9.60391616821289,0.0020910919816125757,0.017836082395344753,-0.001122530201698155,1.4999921321868896,2019-08-06 14:12:56:198,-171.3599329138668,170.3003526211916,0,-42.882537841796875,29.687911987304688,-39.58388137817383
0.16227541863918304,0.049044474959373474,9.579968452453613,-0.0011054818095324445,0.014905889471714633,-0.0013889113292873795,1.5099904537200928,2019-08-06 14:12:56:208,-171.52169363960104,170.4890997482566,0,-42.882537841796875,29.687911987304688,-39.58388137817383
0.11198568344116211,-0.0012452697847038507,9.558416366577148,-0.008830534509619957,0.0215654192218912,-0.001122530201698155,1.5199973583221436,2019-08-06 14:12:56:218,-171.68995223491586,163.48442879973234,0,-42.882537841796875,29.687911987304688,-39.58388137817383
0.13114367425441742,0.1256764680147171,9.62067985534668,0.0031566164919694735,0.0194343681205828,0.0007421378864821609,1.5299882888793945,2019-08-06 14:12:56:228,-171.85143615782223,163.79800096952565,0,-42.882537841796875,29.687911987304688,-39.58388137817383
0.12874892354011536,0.08975522220134735,9.606310844421387,-0.002171006319889343,0.013840364961357736,0.00020937558253977584,1.5399754047393799,2019-08-06 14:12:56:238,-172.00681151298537,164.11255200608034,0,-42.882537841796875,29.687911987304688,-39.58388137817383
0.10719618201255798,0.04425497353076935,9.608705520629883,0.0026238542367910244,0.015971413982071532,0.0026068058446253144,1.5499882698059082,2019-08-06 14:12:56:248,-172.16287126874008,164.42354805495685,0,-42.882537841796875,29.687911987304688,-39.58388137817383
0.1191699281334877,0.056228723376989365,9.572784423828125,-0.002703768575067792,0.0215654192218912,0.0028731869722145387,1.5600016117095947,2019-08-06 14:12:56:258,-172.31747438555266,164.729866467927,0,-42.882537841796875,29.687911987304688,-39.58388137817383
0.12874892354011536,0.11849221587181091,9.623074531555176,0.0010255674062370958,0.019167987513142228,-0.001122530201698155,1.569995641708374,2019-08-06 14:12:56:268,-172.4665507659015,165.02058428917303,0,-42.882537841796875,29.687911987304688,-39.58388137817383
0.11677517741918564,0.0538339726626873,9.630258560180664,-0.0003063383292368989,0.02209818043677235,0.001541281334268416,1.579982042312622,2019-08-06 14:12:56:278,-172.61571644228732,165.31393867815456,0,-42.882537841796875,29.687911987304688,-39.58388137817383
0.08085393160581589,0.022702226415276527,9.505731582641602,-0.002703768575067792,0.01570503337463096,0.0007421378864821609,1.590014934539795,2019-08-06 14:12:56:289,-172.76250277043232,165.606446313191,0,-43.18241882324219,29.687911987304688,-41.08327102661133
0.09043293446302414,0.08736047148704529,9.522494316101074,-0.0019046251923001184,0.01996713141605855,-0.0013889113292873795,1.6000864505767822,2019-08-06 14:12:56:299,-172.90766224327902,165.88488201150716,0,-43.18241882324219,29.687911987304688,-41.08327102661133
0.0928276851773262,0.056228723376989365,9.596732139587402,-0.0013718629371216693,0.01863522629826108,0.001541281334268416,1.6100029945373535,2019-08-06 14:12:56:308,-173.04880141096388,166.16123422372283,0,-43.18241882324219,29.687911987304688,-41.08327102661133
0.08803818374872208,0.07778146862983704,9.572784423828125,-0.004568436468192365,0.020766275318974875,0.0007421378864821609,1.6200144290924072,2019-08-06 14:12:56:319,-173.18896058741058,166.4312669733316,0,-43.18241882324219,29.687911987304688,-41.08327102661133
0.052116937935352325,0.07538671791553497,9.589548110961914,0.0007591862786478714,0.015438651726893083,0.003672330354982212,1.630091667175293,2019-08-06 14:12:56:329,-173.32768939327948,166.69320381042195,0,-43.18241882324219,29.687911987304688,-41.08327102661133
0.05690643563866615,0.04425497353076935,9.618284225463867,0.0010255674062370958,0.01810246300278533,-0.0013889113292873795,1.6400115489959717,2019-08-06 14:12:56:339,-173.46443896411807,166.95349602406614,0,-43.18241882324219,29.687911987304688,-41.08327102661133
0.11198568344116211,0.11130796372890472,9.60391616821289,0.0010255674062370958,0.0183688436102259,0.0010085190140713856,1.6500248908996582,2019-08-06 14:12:56:349,-173.59211677645928,167.20056908348485,0,-43.18241882324219,29.687911987304688,-41.08327102661133
0.1191699281334877,0.09693946689367294,9.599126815795898,-0.002171006319889343,0.017836082395344753,-0.000856149009090349,1.6599817276000977,2019-08-06 14:12:56:358,-173.71602072364,167.44619950152367,0,-43.18241882324219,29.687911987304688,-41.08327102661133
0.12156467884778976,0.08257097005844116,9.560811042785645,-0.0037692930854246903,0.01863522629826108,-0.003786341477590401,1.6700103282928467,2019-08-06 14:12:56:369,-173.83762448240324,167.6895016804813,0,-43.18241882324219,29.687911987304688,-41.08327102661133
0.10719618201255798,0.09214996546506882,9.579968452453613,0.0004928051185493561,0.013307602706179285,-0.000856149009090349,1.679983139038086,2019-08-06 14:12:56:378,-173.955502055254,167.9244134379215,0,-43.18241882324219,29.687911987304688,-41.08327102661133
0.11677517741918564,0.07059722393751144,9.599126815795898,-0.0037692930854246903,0.01810246300278533,-0.0005897678815011245,1.689988613128662,2019-08-06 14:12:56:388,-174.0726224962577,168.159615243188,0,-43.18241882324219,29.687911987304688,-41.08327102661133
0.1455121785402298,0.08975522220134735,9.630258560180664,-0.004834817595781589,0.0215654192218912,-0.0019216735844658289,1.6999871730804443,2019-08-06 14:12:56:398,-174.1859639114391,168.3884575225451,0,-43.18241882324219,29.687911987304688,-41.08327102661133
0.12874892354011536,0.0538339726626873,9.625469207763672,-0.0019046251923001184,0.01570503337463096,-0.001122530201698155,1.7099945545196533,2019-08-06 14:12:56:408,-174.29574280539208,168.61534971886027,0,-42.882537841796875,29.08815574645996,-40.78339385986328
0.1383279263973236,0.049044474959373474,9.546442031860352,0.0010255674062370958,0.014905889471714633,0.0026068058446253144,1.7199785709381104,2019-08-06 14:12:56:418,-174.4015810555317,168.83658074518084,0,-42.882537841796875,29.08815574645996,-40.78339385986328
0.0664854347705841,0.08736047148704529,9.601521492004395,-0.004568436468192365,0.017303320140166306,-0.001122530201698155,1.7299940586090088,2019-08-06 14:12:56:428,-174.51534554284302,169.05199232597627,0,-42.882537841796875,29.08815574645996,-40.78339385986328
0.10959093272686005,0.11370271444320679,9.587152481079102,0.0004928051185493561,0.019167987513142228,-0.0021880547120550534,1.7399792671203613,2019-08-06 14:12:56:438,-174.62268709745848,169.25708636683703,0,-42.882537841796875,29.08815574645996,-40.78339385986328
0.11198568344116211,0.07778146862983704,9.601521492004395,-0.0019046251923001184,0.023696468242604993,0.00047575672638364575,1.7500262260437012,2019-08-06 14:12:56:449,-174.73023678945282,169.4637363013514,0,-42.882537841796875,29.08815574645996,-40.78339385986328
0.06888018548488617,0.08736047148704529,9.546442031860352,-0.004302055340603139,0.016770557884987856,0.0007421378864821609,1.7599856853485107,2019-08-06 14:12:56:458,-174.83674257301078,169.6663812819896,0,-42.882537841796875,29.08815574645996,-40.78339385986328
0.10240668058395386,0.08496572077274323,9.587152481079102,-0.002171006319889343,0.016504176237249982,0.0018076624618576407,1.769991397857666,2019-08-06 14:12:56:468,-174.93704027534667,169.86411800873532,0,-42.882537841796875,29.08815574645996,-40.78339385986328
0.15030167996883392,0.04425497353076935,9.639837265014648,-0.005367579850960038,0.019167987513142228,0.0012749002066791914,1.7799901962280273,2019-08-06 14:12:56:478,-175.03119562369716,170.06458849427764,0,-42.882537841796875,29.08815574645996,-40.78339385986328
0.10959093272686005,0.07778146862983704,9.558416366577148,-0.0003063383292368989,0.0183688436102259,0.0028731869722145387,1.7899932861328125,2019-08-06 14:12:56:488,-175.12775119001338,170.25414412112883,0,-42.882537841796875,29.08815574645996,-40.78339385986328
0.11198568344116211,0.10172896832227707,9.527284622192383,-0.002171006319889343,0.021032655926415452,0.0020740435894468653,1.7999956607818604,2019-08-06 14:12:56:498,-175.2235400685765,170.43804532973613,0,-42.882537841796875,29.08815574645996,-40.78339385986328
0.15748591721057892,0.06580772250890732,9.611100196838379,-0.0003063383292368989,0.017036938492428433,-0.0027208169672335025,1.8099889755249023,2019-08-06 14:12:56:508,-175.30985398434683,170.62161029333453,0,-42.882537841796875,29.08815574645996,-40.78339385986328
0.08324868232011795,0.022702226415276527,9.60391616821289,-0.0061667232337277115,0.020766275318974875,-5.7005565367755386e-05,1.819988489151001,2019-08-06 14:12:56:518,-175.40538379418905,170.80993175714175,0,-42.882537841796875,29.08815574645996,-40.78339385986328
0.11198568344116211,0.11130796372890472,9.544047355651855,-0.0024373874474785677,0.020233512023499125,-0.0019216735844658289,1.8299891948699951,2019-08-06 14:12:56:528,-175.49519295347366,170.98173811220593,0,-42.882537841796875,29.08815574645996,-40.78339385986328
0.1383279263973236,0.06341297179460526,9.560811042785645,-0.004568436468192365,0.017036938492428433,-5.7005565367755386e-05,1.8399920463562012,2019-08-06 14:12:56:538,-175.5782798367598,171.15706897159464,0,-42.13284683227539,30.13772964477539,-40.63345718383789
0.08324868232011795,0.05143922194838524,9.55362606048584,-0.0005727194893354142,0.017036938492428433,0.004205092610160662,1.849994421005249,2019-08-06 14:12:56:548,-175.6662976674445,171.32807940005162,0,-42.13284683227539,30.13772964477539,-40.63345718383789
0.08564343303442001,0.03228122740983963,9.637442588806152,-0.004035674213013915,0.017036938492428433,-0.0005897678815011245,1.8599865436553955,2019-08-06 14:12:56:558,-175.75234744977575,171.49994374974528,0,-42.13284683227539,30.13772964477539,-40.63345718383789
0.11677517741918564,0.09454471617937088,9.60391616821289,-0.0013718629371216693,0.01810246300278533,-0.004851865987947299,1.8699872493743896,2019-08-06 14:12:56:568,-175.83353308688726,171.6594347503285,0,-42.13284683227539,30.13772964477539,-40.63345718383789
0.14072267711162567,0.04425497353076935,9.55362606048584,-0.004035674213013915,0.018901606905701654,-0.0019216735844658289,1.8799874782562256,2019-08-06 14:12:56:578,-175.91059804659798,171.82320398054503,0,-42.13284683227539,30.13772964477539,-40.63345718383789
0.1000119298696518,0.06101822108030319,9.651811599731445,-0.004568436468192365,0.01863522629826108,-0.0061837716258934215,1.8899939060211182,2019-08-06 14:12:56:588,-175.99098293011374,171.982062401919,0,-42.13284683227539,30.13772964477539,-40.63345718383789
0.10719618201255798,0.09454471617937088,9.66139030456543,-0.0011054818095324445,0.015172271119452508,-0.001122530201698155,1.8999886512756348,2019-08-06 14:12:56:598,-176.06696423015993,172.1318281778257,0,-42.13284683227539,30.13772964477539,-40.63345718383789
0.12395942956209183,0.06341297179460526,9.647021293640137,-0.0008391006169246387,0.01756970178790418,0.0018076624618576407,1.9099891185760498,2019-08-06 14:12:56:608,-176.14076713463874,172.28213042712187,0,-42.13284683227539,30.13772964477539,-40.63345718383789
0.07127493619918823,0.06101822108030319,9.649415969848633,-0.002970149702657017,0.0194343681205828,0.0020740435894468653,1.9199907779693604,2019-08-06 14:12:56:618,-176.2204018788067,172.4309097131556,0,-42.13284683227539,30.13772964477539,-40.63345718383789
0.11198568344116211,0.10412371903657913,9.594337463378906,-0.0037692930854246903,0.01810246300278533,-0.002987198094822727,1.929987907409668,2019-08-06 14:12:56:628,-176.2927808435067,172.5719716636091,0,-42.13284683227539,30.13772964477539,-40.63345718383789
0.13114367425441742,0.07538671791553497,9.584757804870605,-0.0024373874474785677,0.015172271119452508,-0.0005897678815011245,1.939995288848877,2019-08-06 14:12:56:638,-176.35977268591324,172.7128890794378,0,-42.13284683227539,30.13772964477539,-40.63345718383789
0.11198568344116211,0.03228122740983963,9.625469207763672,-0.0024373874474785677,0.015971413982071532,0.006336141890948784,1.9499874114990234,2019-08-06 14:12:56:648,-176.42820676042427,172.85615573210862,0,-42.13284683227539,30.13772964477539,-40.63345718383789
0.1000119298696518,0.06820247322320938,9.532073974609375,0.0004928051185493561,0.01863522629826108,0.004737855125413436,1.959991693496704,2019-08-06 14:12:56:658,-176.498088085272,172.99055684526303,0,-43.33235549926758,29.83785057067871,-41.233211517333984
0.09761717915534973,0.056228723376989365,9.60391616821289,-0.004834817595781589,0.021032655926415452,-0.0024544358396442778,1.9699914455413818,2019-08-06 14:12:56:668,-176.56828879844917,173.12675138861044,0,-43.33235549926758,29.83785057067871,-41.233211517333984
0.1383279263973236,0.099334217607975,9.623074531555176,0.004222141002326372,0.021032655926415452,0.0023404247170360896,1.9799909591674805,2019-08-06 14:12:56:678,-176.63226130248316,173.25001745247965,0,-43.33235549926758,29.83785057067871,-41.233211517333984
0.13353842496871948,0.07538671791553497,9.587152481079102,-0.002171006319889343,0.01863522629826108,-0.0019216735844658289,1.9899940490722656,2019-08-06 14:12:56:688,-176.6941226598242,173.37722599744825,0,-43.33235549926758,29.83785057067871,-41.233211517333984
0.08564343303442001,0.03707072511315346,9.658995628356934,-0.0003063383292368989,0.014905889471714633,-0.001122530201698155,1.999986171722412,2019-08-06 14:12:56:698,-176.7584430247603,173.50545540744673,0,-43.33235549926758,29.83785057067871,-41.233211517333984
0.10959093272686005,0.05862347409129143,9.58236312866211,-0.0011054818095324445,0.014373127216536186,0.0023404247170360896,2.0099892616271973,2019-08-06 14:12:56:708,-176.81824218955654,173.62895676374282,0,-43.33235549926758,29.83785057067871,-41.233211517333984
0.11438042670488358,0.11130796372890472,9.649415969848633,-0.0008391006169246387,0.01810246300278533,0.004737855125413436,2.0199882984161377,2019-08-06 14:12:56:718,-176.87845827313078,173.74363095520914,0,-43.33235549926758,29.83785057067871,-41.233211517333984
0.12874892354011536,0.09693946689367294,9.55362606048584,-0.0013718629371216693,0.016504176237249982,0.0020740435894468653,2.0299954414367676,2019-08-06 14:12:56:728,-176.93472086512492,173.8579021201808,0,-43.33235549926758,29.83785057067871,-41.233211517333984
0.04253793880343437,0.056228723376989365,9.599126815795898,0.001824710854023351,0.01810246300278533,-0.000856149009090349,2.0399904251098633,2019-08-06 14:12:56:738,-177.0011078362503,173.97300767585526,0,-43.33235549926758,29.83785057067871,-41.233211517333984
0.10959093272686005,0.056228723376989365,9.680547714233398,-0.0005727194893354142,0.01570503337463096,-0.000856149009090349,2.049985885620117,2019-08-06 14:12:56:748,-177.05692797666498,174.08721306907734,0,-43.33235549926758,29.83785057067871,-41.233211517333984
0.10240668058395386,0.07299196720123291,9.594337463378906,-0.004568436468192365,0.01570503337463096,0.007934428656484131,2.0599939823150635,2019-08-06 14:12:56:758,-177.1123842648495,174.19931830715387,0,-43.33235549926758,29.83785057067871,-41.233211517333984
0.1455121785402298,0.06820247322320938,9.572784423828125,-0.005367579850960038,0.020233512023499125,-0.003786341477590401,2.069990873336792,2019-08-06 14:12:56:768,-177.1640768603866,174.31018081516694,0,-43.33235549926758,29.83785057067871,-41.233211517333984
0.10959093272686005,0.10891321301460266,9.62067985534668,-0.003236530830246241,0.018901606905701654,-0.0027208169672335025,2.0799970626831055,2019-08-06 14:12:56:778,-177.21836234804795,174.4128235732678,0,-43.33235549926758,29.83785057067871,-41.233211517333984
0.0928276851773262,0.13525545597076416,9.556020736694336,-0.0008391006169246387,0.017836082395344753,0.0023404247170360896,2.0899903774261475,2019-08-06 14:12:56:788,-177.27287220798144,174.5088197897191,0,-42.58266067504883,28.488401412963867,-40.18363952636719
0.10240668058395386,0.05143922194838524,9.625469207763672,0.0007591862786478714,0.013840364961357736,-0.0005897678815011245,2.099987268447876,2019-08-06 14:12:56:798,-177.32299260142125,174.61209344471277,0,-42.58266067504883,28.488401412963867,-40.18363952636719
0.09043293446302414,0.07778146862983704,9.584757804870605,-0.0024373874474785677,0.021299036533856022,-0.0005897678815011245,2.109989881515503,2019-08-06 14:12:56:808,-177.37768377268546,174.7119214837161,0,-42.58266067504883,28.488401412963867,-40.18363952636719
0.11438042670488358,0.05143922194838524,9.584757804870605,-0.005101198723370813,0.011975696548084513,0.0012749002066791914,2.11999249458313,2019-08-06 14:12:56:818,-177.42318197104387,174.814398308536,0,-42.58266067504883,28.488401412963867,-40.18363952636719
0.07845918089151382,0.09214996546506882,9.62067985534668,-0.0016382440647108938,0.014905889471714633,-0.002987198094822727,2.129995346069336,2019-08-06 14:12:56:828,-177.4737453182582,174.90805486409394,0,-42.58266067504883,28.488401412963867,-40.18363952636719
0.08324868232011795,0.07059722393751144,9.615889549255371,-0.005633960978549262,0.020499892630939702,-0.0005897678815011245,2.139986991882324,2019-08-06 14:12:56:838,-177.52585104614897,175.00464173857216,0,-42.58266067504883,28.488401412963867,-40.18363952636719
0.09761717915534973,0.07299196720123291,9.565600395202637,0.0015583297264341264,0.017036938492428433,0.0010085190140713856,2.1499886512756348,2019-08-06 14:12:56:848,-177.57320814053648,175.0949298213123,0,-42.58266067504883,28.488401412963867,-40.18363952636719
0.10240668058395386,0.04664972424507141,9.637442588806152,-0.004568436468192365,0.015172271119452508,-0.003786341477590401,2.1600022315979004,2019-08-06 14:12:56:858,-177.61809880912415,175.19005315588146,0,-42.58266067504883,28.488401412963867,-40.18363952636719
0.08324868232011795,0.06101822108030319,9.611100196838379,-0.004568436468192365,0.017036938492428433,-0.003519960350001176,2.169999837875366,2019-08-06 14:12:56:868,-177.6653754062566,175.2815416456929,0,-42.58266067504883,28.488401412963867,-40.18363952636719
0.11198568344116211,0.04664972424507141,9.56320571899414,-0.0013718629371216693,0.016504176237249982,0.0018076624618576407,2.1799893379211426,2019-08-06 14:12:56:878,-177.7079071167426,175.37109052248934,0,-42.58266067504883,28.488401412963867,-40.18363952636719
0.10719618201255798,0.10412371903657913,9.606310844421387,-0.0037692930854246903,0.020233512023499125,0.001541281334268416,2.189988136291504,2019-08-06 14:12:56:888,-177.7523220337714,175.45336470871737,0,-42.58266067504883,28.488401412963867,-40.18363952636719
0.13114367425441742,0.01791272684931755,9.615889549255371,-0.003502911957835466,0.015172271119452508,0.008733572559400455,2.199988603591919,2019-08-06 14:12:56:898,-177.79016791391228,175.54412974813098,0,-42.58266067504883,28.488401412963867,-40.18363952636719
0.06409068405628204,0.08736047148704529,9.618284225463867,-0.0019046251923001184,0.01996713141605855,0.0028731869722145387,2.209990978240967,2019-08-06 14:12:56:908,-177.83794312926582,175.62390907289287,0,-43.78217315673828,30.287668228149414,-40.18363952636719
0.09761717915534973,0.05862347409129143,9.536863327026367,-0.005101198723370813,0.016237795629809405,0.003938711482571438,2.2199902534484863,2019-08-06 14:12:56:918,-177.87857218242527,175.70725110047428,0,-43.78217315673828,30.287668228149414,-40.18363952636719
0.11198568344116211,0.049044474959373474,9.637442588806152,-0.002703768575067792,0.016237795629809405,0.0010085190140713856,2.2299890518188477,2019-08-06 14:12:56:928,-177.9168023698158,175.78879260024308,0,-43.78217315673828,30.287668228149414,-40.18363952636719
0.11438042670488358,0.06341297179460526,9.572784423828125,-0.003502911957835466,0.019700750808617978,-0.004851865987947299,2.23998761177063,2019-08-06 14:12:56:938,-177.95583535187828,175.86739257056144,0,-43.78217315673828,30.287668228149414,-40.18363952636719
0.09522242844104767,0.049044474959373474,9.565600395202637,-0.002171006319889343,0.021299036533856022,-0.001655292456876604,2.249988317489624,2019-08-06 14:12:56:948,-177.9972720301257,175.9453885678518,0,-43.78217315673828,30.287668228149414,-40.18363952636719
0.10719618201255798,0.09693946689367294,9.66139030456543,0.0010255674062370958,0.021299036533856022,0.006868904146127233,2.259988307952881,2019-08-06 14:12:56:958,-178.03657218383714,176.01440755787175,0,-43.78217315673828,30.287668228149414,-40.18363952636719
0.09761717915534973,0.03946547582745552,9.618284225463867,-0.0019046251923001184,0.015172271119452508,0.003672330354982212,2.2699947357177734,2019-08-06 14:12:56:968,-178.07273578319942,176.09048767604867,0,-43.78217315673828,30.287668228149414,-40.18363952636719
0.10719618201255798,0.09454471617937088,9.618284225463867,-0.0005727194893354142,0.0183688436102259,0.0026068058446253144,2.2799875736236572,2019-08-06 14:12:56:978,-178.10881701250366,176.15773564546808,0,-43.78217315673828,30.287668228149414,-40.18363952636719
0.11677517741918564,0.07538671791553497,9.558416366577148,-0.0016382440647108938,0.015971413982071532,-0.003519960350001176,2.290019989013672,2019-08-06 14:12:56:989,-178.14163871447508,176.2264661986773,0,-43.78217315673828,30.287668228149414,-40.18363952636719
0.1000119298696518,0.08257097005844116,9.606310844421387,0.0010255674062370958,0.017836082395344753,0.003672330354982212,2.299985647201538,2019-08-06 14:12:56:998,-178.17685671200258,176.2915135316202,0,-43.78217315673828,30.287668228149414,-40.18363952636719
0.11198568344116211,0.07299196720123291,9.579968452453613,-0.002970149702657017,0.0183688436102259,-0.0019216735844658289,2.3100171089172363,2019-08-06 14:12:57:009,-178.21027146129572,176.35862541938195,0,-43.78217315673828,30.287668228149414,-40.18363952636719
0.1000119298696518,0.056228723376989365,9.670969009399414,-0.0013718629371216693,0.020233512023499125,-0.003786341477590401,2.3199870586395264,2019-08-06 14:12:57:018,-178.24554296443495,176.42555841466236,0,-43.78217315673828,30.287668228149414,-40.18363952636719
0.10480143129825592,0.07299196720123291,9.613494873046875,-0.0005727194893354142,0.018901606905701654,-0.001122530201698155,2.3299856185913086,2019-08-06 14:12:57:028,-178.27875210927309,176.4886684046625,0,-43.78217315673828,30.287668228149414,-40.18363952636719
0.11438042670488358,0.08257097005844116,9.546442031860352,0.0010255674062370958,0.0183688436102259,0.001541281334268416,2.3399884700775146,2019-08-06 14:12:57:038,-178.3097649903479,176.5484077855898,0,-42.732601165771484,29.537973403930664,-41.53308868408203
0.13353842496871948,0.04425497353076935,9.627863883972168,-0.0024373874474785677,0.01410674660909561,0.0028731869722145387,2.349989414215088,2019-08-06 14:12:57:048,-178.33559853286323,176.613541125736,0,-42.732601165771484,29.537973403930664,-41.53308868408203
0.08085393160581589,0.05862347409129143,9.587152481079102,0.0004928051185493561,0.01863522629826108,0.0026068058446253144,2.359995126724243,2019-08-06 14:12:57:058,-178.36969226235144,176.673986483913,0,-42.732601165771484,29.537973403930664,-41.53308868408203
0.14072267711162567,0.06341297179460526,9.575179100036621,-0.004834817595781589,0.019167987513142228,0.0010085190140713856,2.3699917793273926,2019-08-06 14:12:57:068,-178.39621775059462,176.73563171260605,0,-42.732601165771484,29.537973403930664,-41.53308868408203
0.11677517741918564,0.0801762193441391,9.539258003234863,-0.006433104361316936,0.0226309437322481,-0.002987198094822727,2.379983901977539,2019-08-06 14:12:57:078,-178.42696356258932,176.79489736796108,0,-42.732601165771484,29.537973403930664,-41.53308868408203
0.10719618201255798,0.08496572077274323,9.532073974609375,-0.002970149702657017,0.01410674660909561,0.0007421378864821609,2.3900136947631836,2019-08-06 14:12:57:089,-178.45348256843536,176.85045808628888,0,-42.732601165771484,29.537973403930664,-41.53308868408203
0.1383279263973236,0.07299196720123291,9.587152481079102,0.0007591862786478714,0.019167987513142228,0.0010085190140713856,2.3999886512756348,2019-08-06 14:12:57:098,-178.47861610250987,176.90429942855198,0,-42.732601165771484,29.537973403930664,-41.53308868408203
0.1383279263973236,0.06341297179460526,9.599126815795898,-0.004302055340603139,0.014639508864274061,0.0020740435894468653,2.409996747970581,2019-08-06 14:12:57:108,-178.50075846128564,176.96106104966995,0,-42.732601165771484,29.537973403930664,-41.53308868408203
0.08564343303442001,0.0801762193441391,9.637442588806152,0.002890235364380249,0.01756970178790418,0.00020937558253977584,2.4199891090393066,2019-08-06 14:12:57:118,-178.53041817316645,177.01068527569944,0,-42.732601165771484,29.537973403930664,-41.53308868408203
0.14311742782592773,0.08975522220134735,9.589548110961914,-0.002171006319889343,0.017836082395344753,-0.0027208169672335025,2.429987907409668,2019-08-06 14:12:57:128,-178.55272280767218,177.06096533634286,0,-42.732601165771484,29.537973403930664,-41.53308868408203
0.13353842496871948,0.07299196720123291,9.596732139587402,0.0002264239747054862,0.019167987513142228,0.0007421378864821609,2.4399914741516113,2019-08-06 14:12:57:138,-178.57649061510133,177.11090327443225,0,-42.732601165771484,29.537973403930664,-41.53308868408203
0.07127493619918823,0.07299196720123291,9.587152481079102,-0.002970149702657017,0.015971413982071532,-0.0032535792224119516,2.449986696243286,2019-08-06 14:12:57:148,-178.6054053822323,177.16162786562376,0,-42.732601165771484,29.537973403930664,-41.53308868408203
0.1000119298696518,0.05143922194838524,9.606310844421387,-0.006965867136644035,0.01996713141605855,-5.7005565367755386e-05,2.4599921703338623,2019-08-06 14:12:57:158,-178.632585157921,177.2161727618668,0,-44.08205032348633,28.488401412963867,-41.08327102661133
0.08324868232011795,0.08257097005844116,9.565600395202637,0.0007591862786478714,0.017036938492428433,0.0010085190140713856,2.470001697540283,2019-08-06 14:12:57:168,-178.65953622326495,177.26153123598826,0,-44.08205032348633,28.488401412963867,-41.08327102661133
0.12156467884778976,0.06101822108030319,9.627863883972168,-0.0003063383292368989,0.01756970178790418,-0.001122530201698155,2.479982852935791,2019-08-06 14:12:57:178,-178.68172432099837,177.30920995841296,0,-44.08205032348633,28.488401412963867,-41.08327102661133
0.07845918089151382,0.03228122740983963,9.567995071411133,-0.0008391006169246387,0.017836082395344753,-0.002987198094822727,2.4899911880493164,2019-08-06 14:12:57:188,-178.7087166267304,177.35963114355607,0,-44.08205032348633,28.488401412963867,-41.08327102661133
0.10480143129825592,0.11130796372890472,9.584757804870605,-3.9957173202045016e-05,0.01756970178790418,-0.00431910373276885,2.499992609024048,2019-08-06 14:12:57:198,-178.73187991593196,177.39915401971635,0,-44.08205032348633,28.488401412963867,-41.08327102661133
0.09522242844104767,0.06580772250890732,9.596732139587402,-0.0016382440647108938,0.01810246300278533,-5.7005565367755386e-05,2.5099942684173584,2019-08-06 14:12:57:208,-178.75603867519337,177.4442331938491,0,-44.08205032348633,28.488401412963867,-41.08327102661133
0.09761717915534973,0.04425497353076935,9.630258560180664,-0.003502911957835466,0.016770557884987856,-0.0027208169672335025,2.5199880599975586,2019-08-06 14:12:57:218,-178.7787135177685,177.49204827579524,0,-44.08205032348633,28.488401412963867,-41.08327102661133
0.13593317568302155,0.0538339726626873,9.62067985534668,-0.0024373874474785677,0.015971413982071532,-0.0032535792224119516,2.5299863815307617,2019-08-06 14:12:57:228,-178.7959157968287,177.53716359281358,0,-44.08205032348633,28.488401412963867,-41.08327102661133
0.09522242844104767,0.05143922194838524,9.587152481079102,-0.002171006319889343,0.016504176237249982,-0.0013889113292873795,2.539991855621338,2019-08-06 14:12:57:238,-178.81788842861266,177.58149173130843,0,-44.08205032348633,28.488401412963867,-41.08327102661133
0.06169593706727028,0.099334217607975,9.601521492004395,-0.0008391006169246387,0.020233512023499125,0.00020937558253977584,2.5499956607818604,2019-08-06 14:12:57:248,-178.84553293089928,177.61847838287363,0,-44.08205032348633,28.488401412963867,-41.08327102661133
0.07845918089151382,0.06101822108030319,9.60391616821289,-0.0019046251923001184,0.013840364961357736,-0.002987198094822727,2.559990882873535,2019-08-06 14:12:57:258,-178.86702855759924,177.65989730301536,0,-44.08205032348633,28.488401412963867,-41.08327102661133
0.13114367425441742,0.07299196720123291,9.606310844421387,-0.002171006319889343,0.016770557884987856,-0.002987198094822727,2.569990396499634,2019-08-06 14:12:57:268,-178.8834613065601,177.69921143186812,0,-44.08205032348633,28.488401412963867,-41.08327102661133
0.14790692925453186,0.056228723376989365,9.647021293640137,-0.002703768575067792,0.0194343681205828,0.0020740435894468653,2.5799903869628906,2019-08-06 14:12:57:278,-178.89913678256812,177.74006634489106,0,-44.08205032348633,28.488401412963867,-41.08327102661133
0.12874892354011536,0.08496572077274323,9.515310287475586,-0.004302055340603139,0.015971413982071532,-0.01017948905988044,2.5899903774261475,2019-08-06 14:12:57:288,-178.91461785781817,177.7774485822111,0,-42.882537841796875,29.08815574645996,-40.78339385986328
0.08564343303442001,0.03707072511315346,9.536863327026367,-0.0013718629371216693,0.01996713141605855,-0.006982915528809746,2.5999977588653564,2019-08-06 14:12:57:298,-178.93725495969053,177.81821621423546,0,-42.882537841796875,29.08815574645996,-40.78339385986328
0.1191699281334877,0.05143922194838524,9.556020736694336,-0.0005727194893354142,0.018901606905701654,-0.0053846282431257485,2.6100332736968994,2019-08-06 14:12:57:309,-178.95487119165827,177.85600630965973,0,-42.882537841796875,29.08815574645996,-40.78339385986328
0.09043293446302414,0.11130796372890472,9.623074531555176,0.0004928051185493561,0.015438651726893083,-0.0021880547120550534,2.6199846267700195,2019-08-06 14:12:57:318,-178.97363194313044,177.88535686035664,0,-42.882537841796875,29.08815574645996,-40.78339385986328
0.1191699281334877,0.0538339726626873,9.60391616821289,-3.9957173202045016e-05,0.017303320140166306,-0.0021880547120550534,2.630037784576416,2019-08-06 14:12:57:329,-178.9897084097897,177.92124900874325,0,-42.882537841796875,29.08815574645996,-40.78339385986328
0.14072267711162567,0.0801762193441391,9.579968452453613,0.0012919485988449018,0.020766275318974875,-0.0021880547120550534,2.639988899230957,2019-08-06 14:12:57:338,-179.00468603039445,177.95251202875025,0,-42.882537841796875,29.08815574645996,-40.78339385986328
0.14311742782592773,0.056228723376989365,9.611100196838379,0.0010255674062370958,0.01996713141605855,-0.00431910373276885,2.6499884128570557,2019-08-06 14:12:57:348,-179.01874088829513,177.9861819802179,0,-42.882537841796875,29.08815574645996,-40.78339385986328
0.12156467884778976,0.06580772250890732,9.642231941223145,-0.0024373874474785677,0.010111029175108591,-0.003519960350001176,2.6599886417388916,2019-08-06 14:12:57:358,-179.02959713569524,178.02000626986543,0,-42.882537841796875,29.08815574645996,-40.78339385986328
0.09522242844104767,0.09693946689367294,9.618284225463867,0.0004928051185493561,0.01357398435391716,-0.003786341477590401,2.6699905395507812,2019-08-06 14:12:57:368,-179.04528405093677,178.04778047395612,0,-42.882537841796875,29.08815574645996,-40.78339385986328
0.10959093272686005,0.0538339726626873,9.565600395202637,-0.004834817595781589,0.020499892630939702,-0.004851865987947299,2.6799910068511963,2019-08-06 14:12:57:378,-179.06276164675108,178.08309073689426,0,-42.882537841796875,29.08815574645996,-40.78339385986328
0.09043293446302414,0.049044474959373474,9.651811599731445,-0.0013718629371216693,0.023696468242604993,-0.005917390498304197,2.6899948120117188,2019-08-06 14:12:57:388,-179.0840806355859,178.1163767376286,0,-42.882537841796875,29.08815574645996,-40.78339385986328
0.11438042670488358,0.09454471617937088,9.613494873046875,-0.0011054818095324445,0.016770557884987856,-0.001655292456876604,2.6999919414520264,2019-08-06 14:12:57:398,-179.09817961628275,178.14340051219904,0,-42.882537841796875,29.08815574645996,-40.78339385986328
0.11438042670488358,0.11370271444320679,9.579968452453613,-0.004035674213013915,0.011442934292906064,-0.004851865987947299,2.709993600845337,2019-08-06 14:12:57:408,-179.1089612260061,178.16919890098777,0,-42.13284683227539,30.437606811523438,-41.83296585083008
0.059301186352968216,0.06820247322320938,9.520099639892578,-0.005633960978549262,0.020766275318974875,-0.00831482116675587,2.719991445541382,2019-08-06 14:12:57:418,-179.1313018493284,178.2007684460164,0,-42.13284683227539,30.437606811523438,-41.83296585083008
0.08564343303442001,0.041860222816467285,9.59194278717041,0.003689378747147923,0.020766275318974875,-0.0024544358396442778,2.7299892902374268,2019-08-06 14:12:57:428,-179.1501022873921,178.22968108093647,0,-42.13284683227539,30.437606811523438,-41.83296585083008
0.12156467884778976,0.08257097005844116,9.625469207763672,-0.0011054818095324445,0.020499892630939702,0.0007421378864821609,2.7399961948394775,2019-08-06 14:12:57:438,-179.16414730152331,178.25587875170643,0,-42.13284683227539,30.437606811523438,-41.83296585083008
0.07606443762779236,0.08496572077274323,9.64462661743164,-0.003236530830246241,0.01810246300278533,-0.0053846282431257485,2.749999523162842,2019-08-06 14:12:57:448,-179.18199492268332,178.28248424267284,0,-42.13284683227539,30.437606811523438,-41.83296585083008
0.07606443762779236,0.06101822108030319,9.522494316101074,-0.006433104361316936,0.01064379143028704,-0.006982915528809746,2.7599987983703613,2019-08-06 14:12:57:458,-179.1951778364599,178.31310378009846,0,-42.13284683227539,30.437606811523438,-41.83296585083008
0.03295893967151642,0.10172896832227707,9.575179100036621,-0.0019046251923001184,0.0183688436102259,-0.005651009370714973,2.7699928283691406,2019-08-06 14:12:57:468,-179.2176378366262,178.33573649015935,0,-42.13284683227539,30.437606811523438,-41.83296585083008
0.07606443762779236,0.1328607201576233,9.606310844421387,-0.0016382440647108938,0.023696468242604993,-0.004052722605179625,2.7799901962280273,2019-08-06 14:12:57:478,-179.23751374332568,178.35409373878525,0,-42.13284683227539,30.437606811523438,-41.83296585083008
0.08803818374872208,0.03946547582745552,9.658995628356934,-0.0005727194893354142,0.018901606905701654,-0.0027208169672335025,2.789996862411499,2019-08-06 14:12:57:488,-179.25293946111614,178.3826516145767,0,-42.13284683227539,30.437606811523438,-41.83296585083008
0.08803818374872208,0.0538339726626873,9.596732139587402,-0.004035674213013915,0.013307602706179285,-0.0032535792224119516,2.7999844551086426,2019-08-06 14:12:57:498,-179.26483153407992,178.41083371846682,0,-42.13284683227539,30.437606811523438,-41.83296585083008
0.052116937935352325,0.0538339726626873,9.575179100036621,0.0010255674062370958,0.020233512023499125,-0.002987198094822727,2.8099918365478516,2019-08-06 14:12:57:508,-179.28466731320057,178.43559821762358,0,-42.13284683227539,30.437606811523438,-41.83296585083008
0.11438042670488358,0.06820247322320938,9.60391616821289,-0.003502911957835466,0.016770557884987856,0.0026068058446253144,2.8199896812438965,2019-08-06 14:12:57:518,-179.29474163760122,178.46071509555068,0,-42.13284683227539,30.437606811523438,-41.83296585083008
0.12874892354011536,0.08496572077274323,9.615889549255371,-0.003236530830246241,0.0194343681205828,-0.0003233867214026093,2.8299973011016846,2019-08-06 14:12:57:528,-179.30442553215283,178.48319447268165,0,-42.13284683227539,30.437606811523438,-41.83296585083008
0.0928276851773262,0.06820247322320938,9.618284225463867,-0.005900342106138487,0.01756970178790418,-0.0053846282431257485,2.8399899005889893,2019-08-06 14:12:57:538,-179.31713600278036,178.5087157071647,0,-42.58266067504883,29.08815574645996,-39.28400421142578
0.12395942956209183,0.05862347409129143,9.608705520629883,-0.004834817595781589,0.014905889471714633,-5.7005565367755386e-05,2.8499889373779297,2019-08-06 14:12:57:548,-179.32437977201423,178.5342646399235,0,-42.58266067504883,29.08815574645996,-39.28400421142578
0.09761717915534973,0.04664972424507141,9.55362606048584,-0.0037692930854246903,0.0226309437322481,0.0012749002066791914,2.8599870204925537,2019-08-06 14:12:57:558,-179.33888863933868,178.56010000878902,0,-42.58266067504883,29.08815574645996,-39.28400421142578
0.10480143129825592,0.099334217607975,9.558416366577148,0.0015583297264341264,0.017303320140166306,0.001541281334268416,2.869988441467285,2019-08-06 14:12:57:568,-179.34926436858555,178.57611457992581,0,-42.58266067504883,29.08815574645996,-39.28400421142578
0.12874892354011536,0.1065184697508812,9.630258560180664,-3.9957173202045016e-05,0.017303320140166306,0.0028731869722145387,2.879997491836548,2019-08-06 14:12:57:578,-179.35668459458728,178.5919405056179,0,-42.58266067504883,29.08815574645996,-39.28400421142578
0.08564343303442001,0.05862347409129143,9.599126815795898,-0.003236530830246241,0.014373127216536186,0.0010085190140713856,2.889988899230957,2019-08-06 14:12:57:588,-179.3673908689699,178.61491923032196,0,-42.58266067504883,29.08815574645996,-39.28400421142578
0.1263541728258133,0.034675974398851395,9.536863327026367,-0.002703768575067792,0.01863522629826108,-0.004585484860358075,2.8999884128570557,2019-08-06 14:12:57:598,-179.37532481695854,178.63997241081506,0,-42.58266067504883,29.08815574645996,-39.28400421142578
0.10719618201255798,0.09454471617937088,9.536863327026367,0.0004928051185493561,0.0215654192218912,0.0020740435894468653,2.9099888801574707,2019-08-06 14:12:57:608,-179.38704807031067,178.65553645544566,0,-42.58266067504883,29.08815574645996,-39.28400421142578
0.13114367425441742,0.05143922194838524,9.618284225463867,-0.002970149702657017,0.015971413982071532,0.0031395680998037635,2.9199934005737305,2019-08-06 14:12:57:618,-179.39265569338696,178.6779658410889,0,-42.58266067504883,29.08815574645996,-39.28400421142578
0.13353842496871948,0.10172896832227707,9.63265323638916,0.0010255674062370958,0.017036938492428433,-0.001122530201698155,2.9299964904785156,2019-08-06 14:12:57:628,-179.39848682951845,178.69172910332495,0,-42.58266067504883,29.08815574645996,-39.28400421142578
0.1000119298696518,0.07059722393751144,9.594337463378906,-0.0037692930854246903,0.017303320140166306,-0.004052722605179625,2.939987897872925,2019-08-06 14:12:57:638,-179.4082798773343,178.71157741138214,0,-42.58266067504883,29.08815574645996,-39.28400421142578
0.08085393160581589,0.08736047148704529,9.546442031860352,-0.005101198723370813,0.021032655926415452,-0.003786341477590401,2.9499895572662354,2019-08-06 14:12:57:648,-179.42222090623454,178.72972455604753,0,-42.58266067504883,29.08815574645996,-39.28400421142578
0.15988066792488098,0.06820247322320938,9.577573776245117,-0.0016382440647108938,0.015438651726893083,0.006336141890948784,2.959993600845337,2019-08-06 14:12:57:658,-179.4233215162736,178.74789031346526,0,-43.482295989990234,28.788278579711914,-40.78339385986328
0.1000119298696518,0.10891321301460266,9.63265323638916,0.0002264239747054862,0.012774840451000838,0.0020740435894468653,2.969979763031006,2019-08-06 14:12:57:668,-179.43012106643118,178.75984961120815,0,-43.482295989990234,28.788278579711914,-40.78339385986328
0.1191699281334877,0.04425497353076935,9.587152481079102,0.0010255674062370958,0.012508459843560263,0.0031395680998037635,2.9799931049346924,2019-08-06 14:12:57:678,-179.43430830773127,178.7787864061864,0,-43.482295989990234,28.788278579711914,-40.78339385986328
0.059301186352968216,0.09214996546506882,9.517704963684082,0.0023574731092018,0.020233512023499125,-0.0013889113292873795,2.989980697631836,2019-08-06 14:12:57:688,-179.44982946478203,178.79079424906553,0,-43.482295989990234,28.788278579711914,-40.78339385986328
0.08085393160581589,0.08736047148704529,9.59194278717041,-0.0037692930854246903,0.0226309437322481,0.0026068058446253144,2.999988555908203,2019-08-06 14:12:57:698,-179.46389099989457,178.8066601211927,0,-43.482295989990234,28.788278579711914,-40.78339385986328
0.11677517741918564,0.08975522220134735,9.64462661743164,-0.0024373874474785677,0.012508459843560263,0.0010085190140713856,3.009991407394409,2019-08-06 14:12:57:708,-179.46776483085608,178.82123203964912,0,-43.482295989990234,28.788278579711914,-40.78339385986328
0.09043293446302414,0.12807121872901917,9.589548110961914,-0.0016382440647108938,0.011176553685465489,0.0007421378864821609,3.0199949741363525,2019-08-06 14:12:57:718,-179.4738813108547,178.83042447082138,0,-43.482295989990234,28.788278579711914,-40.78339385986328
0.10959093272686005,0.049044474959373474,9.539258003234863,-0.005367579850960038,0.017836082395344753,0.0007421378864821609,3.0299880504608154,2019-08-06 14:12:57:728,-179.481247514534,178.85093630498335,0,-43.482295989990234,28.788278579711914,-40.78339385986328
0.04972218722105026,0.09454471617937088,9.575179100036621,-0.004568436468192365,0.025827517263318795,0.0020740435894468653,3.039990186691284,2019-08-06 14:12:57:738,-179.50017729743675,178.86516896694647,0,-43.482295989990234,28.788278579711914,-40.78339385986328
0.09043293446302414,0.056228723376989365,9.647021293640137,-0.0019046251923001184,0.016504176237249982,0.0026068058446253144,3.049990177154541,2019-08-06 14:12:57:748,-179.50869910835493,178.88225601177382,0,-43.482295989990234,28.788278579711914,-40.78339385986328
0.08803818374872208,0.06820247322320938,9.599126815795898,-0.0019046251923001184,0.01357398435391716,0.00020937558253977584,3.0599923133850098,2019-08-06 14:12:57:758,-179.5156390827578,178.89753889034034,0,-43.482295989990234,28.788278579711914,-40.78339385986328
0.13114367425441742,0.03946547582745552,9.575179100036621,-0.0024373874474785677,0.01570503337463096,0.00047575672638364575,3.0699994564056396,2019-08-06 14:12:57:768,-179.51845723437538,178.9162346509206,0,-43.482295989990234,28.788278579711914,-40.78339385986328
0.10480143129825592,0.07299196720123291,9.556020736694336,0.001824710854023351,0.016770557884987856,0.0018076624618576407,3.0799856185913086,2019-08-06 14:12:57:778,-179.52492488589724,178.9281341005291,0,-43.482295989990234,28.788278579711914,-40.78339385986328
0.11438042670488358,0.05862347409129143,9.608705520629883,-0.004302055340603139,0.023163704947129243,0.003938711482571438,3.0899901390075684,2019-08-06 14:12:57:788,-179.5337985127476,178.9449968735773,0,-42.882537841796875,29.38803482055664,-40.18363952636719
0.1263541728258133,0.08975522220134735,9.613494873046875,-0.002970149702657017,0.020499892630939702,0.004471473997824211,3.099987745285034,2019-08-06 14:12:57:798,-179.5395700696054,178.95706588163117,0,-42.882537841796875,29.38803482055664,-40.18363952636719
0.05690643563866615,0.06341297179460526,9.534468650817871,0.0015583297264341264,0.017836082395344753,0.003672330354982212,3.109999895095825,2019-08-06 14:12:57:808,-179.55196646104406,178.96942722230173,0,-42.882537841796875,29.38803482055664,-40.18363952636719
0.06409068405628204,0.06341297179460526,9.55362606048584,-0.004302055340603139,0.015172271119452508,0.00020937558253977584,3.1199896335601807,2019-08-06 14:12:57:818,-179.56175031794933,178.98484580085346,0,-42.882537841796875,29.38803482055664,-40.18363952636719
0.11198568344116211,0.05862347409129143,9.596732139587402,0.002890235364380249,0.018901606905701654,0.004205092610160662,3.129988193511963,2019-08-06 14:12:57:828,-179.56775575857063,178.99652629778973,0,-42.882537841796875,29.38803482055664,-40.18363952636719
0.09761717915534973,0.07538671791553497,9.570389747619629,-0.0061667232337277115,0.017303320140166306,0.0020740435894468653,3.139989137649536,2019-08-06 14:12:57:838,-179.57442951305393,179.0110324242926,0,-42.882537841796875,29.38803482055664,-40.18363952636719
0.1191699281334877,0.09693946689367294,9.656600952148438,0.0010255674062370958,0.014905889471714633,0.0023404247170360896,3.1499907970428467,2019-08-06 14:12:57:848,-179.57717118101917,179.01873273914086,0,-42.882537841796875,29.38803482055664,-40.18363952636719
0.0928276851773262,0.08736047148704529,9.54165267944336,-0.0016382440647108938,0.014639508864274061,0.003405949227392988,3.1599977016448975,2019-08-06 14:12:57:858,-179.582705602994,179.02878722963965,0,-42.882537841796875,29.38803482055664,-40.18363952636719
0.07606443762779236,0.03946547582745552,9.623074531555176,-0.0008391006169246387,0.02343008555456982,0.005270617380591885,3.1699883937835693,2019-08-06 14:12:57:868,-179.59513764309216,179.04398267835626,0,-42.882537841796875,29.38803482055664,-40.18363952636719
0.12156467884778976,0.06101822108030319,9.58236312866211,-0.002703768575067792,0.023696468242604993,0.0020740435894468653,3.1799871921539307,2019-08-06 14:12:57:878,-179.60200218345557,179.05732418402278,0,-42.882537841796875,29.38803482055664,-40.18363952636719
0.12156467884778976,0.06580772250890732,9.663784980773926,-0.004035674213013915,0.016504176237249982,-0.003519960350001176,3.1899940967559814,2019-08-06 14:12:57:888,-179.60482143316963,179.07064204058224,0,-42.882537841796875,29.38803482055664,-40.18363952636719
0.11677517741918564,0.11849221587181091,9.623074531555176,0.0015583297264341264,0.017036938492428433,-0.000856149009090349,3.2000045776367188,2019-08-06 14:12:57:898,-179.608396344415,179.07424394419493,0,-42.882537841796875,29.38803482055664,-40.18363952636719
0.1191699281334877,0.08496572077274323,9.67336368560791,-0.004302055340603139,0.017036938492428433,0.0023404247170360896,3.209993362426758,2019-08-06 14:12:57:908,-179.6116676410182,179.08510709551163,0,-44.381927490234375,29.987789154052734,-41.08327102661133
0.08085393160581589,0.07299196720123291,9.56320571899414,-0.0013718629371216693,0.017303320140166306,0.003405949227392988,3.219984531402588,2019-08-06 14:12:57:918,-179.61945336960483,179.09542844580793,0,-44.381927490234375,29.987789154052734,-41.08327102661133
0.11438042670488358,0.09693946689367294,9.599126815795898,-3.9957173202045016e-05,0.017036938492428433,0.004737855125413436,3.2299890518188477,2019-08-06 14:12:57:928,-179.62298109081644,179.10197036722624,0,-44.381927490234375,29.987789154052734,-41.08327102661133
0.1263541728258133,0.1065184697508812,9.606310844421387,0.0015583297264341264,0.013840364961357736,0.004205092610160662,3.239983558654785,2019-08-06 14:12:57:938,-179.62321690526713,179.10635060838655,0,-44.381927490234375,29.987789154052734,-41.08327102661133
0.10480143129825592,0.06820247322320938,9.556020736694336,0.0010255674062370958,0.017303320140166306,0.00047575672638364575,3.2499990463256836,2019-08-06 14:12:57:948,-179.62791658672847,179.1154684506568,0,-44.381927490234375,29.987789154052734,-41.08327102661133
0.07606443762779236,0.06580772250890732,9.59194278717041,-0.006433104361316936,0.0183688436102259,0.0018076624618576407,3.2599880695343018,2019-08-06 14:12:57:958,-179.63657405439693,179.1289056027062,0,-44.381927490234375,29.987789154052734,-41.08327102661133
0.10240668058395386,0.08496572077274323,9.649415969848633,-0.0003063383292368989,0.017836082395344753,-0.001655292456876604,3.2699878215789795,2019-08-06 14:12:57:968,-179.6416964206945,179.13640965860338,0,-44.381927490234375,29.987789154052734,-41.08327102661133
0.10719618201255798,0.06580772250890732,9.62067985534668,-0.0008391006169246387,0.017303320140166306,0.006868904146127233,3.279989242553711,2019-08-06 14:12:57:978,-179.64581209466155,179.14631447519108,0,-44.381927490234375,29.987789154052734,-41.08327102661133
0.06888018548488617,0.10891321301460266,9.556020736694336,0.0007591862786478714,0.018901606905701654,-0.002987198094822727,3.2899906635284424,2019-08-06 14:12:57:988,-179.65525092437812,179.14990201944954,0,-44.381927490234375,29.987789154052734,-41.08327102661133
0.10480143129825592,0.1065184697508812,9.577573776245117,-0.0061667232337277115,0.0194343681205828,-0.004585484860358075,3.299997091293335,2019-08-06 14:12:57:998,-179.6605267503899,179.15762485919643,0,-44.381927490234375,29.987789154052734,-41.08327102661133
0.13353842496871948,0.11130796372890472,9.627863883972168,-0.0019046251923001184,0.021831799829331772,-0.0003233867214026093,3.3099873065948486,2019-08-06 14:12:58:008,-179.6636699221338,179.16229339279,0,-44.381927490234375,29.987789154052734,-41.08327102661133
0.12395942956209183,0.06820247322320938,9.63265323638916,-0.0024373874474785677,0.020233512023499125,0.004205092610160662,3.319991111755371,2019-08-06 14:12:58:018,-179.667016341324,179.17230329745345,0,-44.381927490234375,29.987789154052734,-41.08327102661133
0.10240668058395386,0.08736047148704529,9.575179100036621,0.0015583297264341264,0.01064379143028704,-5.7005565367755386e-05,3.329989433288574,2019-08-06 14:12:58:028,-179.6673963690111,179.17752774897266,0,-44.381927490234375,29.987789154052734,-41.08327102661133
0.05451168864965439,0.0801762193441391,9.522494316101074,-0.0008391006169246387,0.0215654192218912,-0.001122530201698155,3.339988946914673,2019-08-06 14:12:58:038,-179.67959706363803,179.18480032665317,0,-43.03247833251953,29.537973403930664,-41.233211517333984
0.13353842496871948,0.06341297179460526,9.556020736694336,0.0007591862786478714,0.02396284885004557,-5.7005565367755386e-05,3.350018262863159,2019-08-06 14:12:58:049,-179.6834873813668,179.19307269788123,0,-43.03247833251953,29.537973403930664,-41.233211517333984
0.09522242844104767,0.09693946689367294,9.596732139587402,0.005021284645168371,0.017036938492428433,-0.0013889113292873795,3.360079050064087,2019-08-06 14:12:58:059,-179.68807216442542,179.19479981775027,0,-43.03247833251953,29.537973403930664,-41.233211517333984
0.10480143129825592,0.049044474959373474,9.59194278717041,-0.0013718629371216693,0.019700750808617978,0.0023404247170360896,3.3699874877929688,2019-08-06 14:12:58:068,-179.6927516208642,179.20580794806614,0,-43.03247833251953,29.537973403930664,-41.233211517333984
0.04972218722105026,0.10891321301460266,9.62067985534668,-0.0016382440647108938,0.019700750808617978,-0.0024544358396442778,3.3799896240234375,2019-08-06 14:12:58:078,-179.7040385578543,179.20963979937622,0,-43.03247833251953,29.537973403930664,-41.233211517333984
0.02816944010555744,0.07059722393751144,9.625469207763672,-0.0013718629371216693,0.020499892630939702,0.0007421378864821609,3.3899967670440674,2019-08-06 14:12:58:088,-179.71812309814524,179.21781337844638,0,-43.03247833251953,29.537973403930664,-41.233211517333984
0.11677517741918564,0.10412371903657913,9.656600952148438,-0.003502911957835466,0.01570503337463096,-0.0013889113292873795,3.3999876976013184,2019-08-06 14:12:58:098,-179.71871436042878,179.22306668287789,0,-43.03247833251953,29.537973403930664,-41.233211517333984
0.09522242844104767,0.06820247322320938,9.60391616821289,-0.007765010519411709,0.018901606905701654,0.0007421378864821609,3.4099812507629395,2019-08-06 14:12:58:108,-179.72358512458217,179.23482496711583,0,-43.03247833251953,29.537973403930664,-41.233211517333984
0.13353842496871948,0.09693946689367294,9.59194278717041,-0.005633960978549262,0.014639508864274061,0.003672330354982212,3.4199891090393066,2019-08-06 14:12:58:118,-179.7213876116588,179.24171379302703,0,-43.03247833251953,29.537973403930664,-41.233211517333984
0.07606443762779236,0.06341297179460526,9.52488899230957,-3.9957173202045016e-05,0.0194343681205828,0.004205092610160662,3.429989814758301,2019-08-06 14:12:58:128,-179.72872207292104,179.24927301120508,0,-43.03247833251953,29.537973403930664,-41.233211517333984
0.10480143129825592,0.0801762193441391,9.60391616821289,0.0002264239747054862,0.016504176237249982,-0.0013889113292873795,3.4399807453155518,2019-08-06 14:12:58:138,-179.73090214725542,179.25459432301741,0,-43.03247833251953,29.537973403930664,-41.233211517333984
0.11677517741918564,0.0538339726626873,9.639837265014648,-0.0037692930854246903,0.0194343681205828,0.00020937558253977584,3.449991226196289,2019-08-06 14:12:58:148,-179.73332718548036,179.26522177280046,0,-43.03247833251953,29.537973403930664,-41.233211517333984
0.14790692925453186,0.01791272684931755,9.613494873046875,-0.0013718629371216693,0.015438651726893083,-0.0019216735844658289,3.4599931240081787,2019-08-06 14:12:58:158,-179.729702153785,179.27855261235587,0,-43.482295989990234,29.38803482055664,-40.18363952636719
0.12156467884778976,0.04425497353076935,9.536863327026367,-0.005101198723370813,0.017303320140166306,-0.0019216735844658289,3.469972848892212,2019-08-06 14:12:58:168,-179.7301982139743,179.2905225867073,0,-43.482295989990234,29.38803482055664,-40.18363952636719
0.09043293446302414,0.06580772250890732,9.539258003234863,-0.002970149702657017,0.024495610064926718,0.003938711482571438,3.4799931049346924,2019-08-06 14:12:58:178,-179.73851331538006,179.29847813657742,0,-43.482295989990234,29.38803482055664,-40.18363952636719
0.09522242844104767,0.09454471617937088,9.630258560180664,-0.004035674213013915,0.02236456104421292,0.0026068058446253144,3.489975929260254,2019-08-06 14:12:58:188,-179.74494889350612,179.303521083797,0,-43.482295989990234,29.38803482055664,-40.18363952636719
0.14072267711162567,0.08736047148704529,9.62067985534668,-0.0011054818095324445,0.01357398435391716,0.003405949227392988,3.499990463256836,2019-08-06 14:12:58:198,-179.74092253649172,179.30766710361345,0,-43.482295989990234,29.38803482055664,-40.18363952636719
0.08085393160581589,0.07538671791553497,9.651811599731445,-0.006965867136644035,0.01810246300278533,0.0007421378864821609,3.5099878311157227,2019-08-06 14:12:58:208,-179.7466667245005,179.3164739176016,0,-43.482295989990234,29.38803482055664,-40.18363952636719
0.07127493619918823,0.06341297179460526,9.596732139587402,0.0010255674062370958,0.017836082395344753,0.004205092610160662,3.5199897289276123,2019-08-06 14:12:58:218,-179.7532396672538,179.32199664201718,0,-43.482295989990234,29.38803482055664,-40.18363952636719
0.0928276851773262,0.1065184697508812,9.56320571899414,0.0010255674062370958,0.0194343681205828,-0.000856149009090349,3.529991626739502,2019-08-06 14:12:58:228,-179.757966544733,179.3222176476095,0,-43.482295989990234,29.38803482055664,-40.18363952636719
0.09522242844104767,0.10172896832227707,9.62067985534668,-0.0024373874474785677,0.015438651726893083,-0.0005897678815011245,3.539973735809326,2019-08-06 14:12:58:238,-179.76011894891656,179.32502298793685,0,-43.482295989990234,29.38803482055664,-40.18363952636719
0.09043293446302414,0.07059722393751144,9.589548110961914,0.0026238542367910244,0.014373127216536186,-0.0003233867214026093,3.5499954223632812,2019-08-06 14:12:58:248,-179.76219848200492,179.32861008735202,0,-43.482295989990234,29.38803482055664,-40.18363952636719
0.1263541728258133,0.09454471617937088,9.596732139587402,0.001824710854023351,0.016770557884987856,-0.0005897678815011245,3.5600035190582275,2019-08-06 14:12:58:258,-179.76129209967797,179.32972356150282,0,-43.482295989990234,29.38803482055664,-40.18363952636719
0.12874892354011536,0.056228723376989365,9.546442031860352,-0.002171006319889343,0.0194343681205828,-0.0019216735844658289,3.5699965953826904,2019-08-06 14:12:58:268,-179.76151751985276,179.33759787699896,0,-43.482295989990234,29.38803482055664,-40.18363952636719
0.10480143129825592,0.06820247322320938,9.594337463378906,-0.004035674213013915,0.01996713141605855,-0.003519960350001176,3.5800116062164307,2019-08-06 14:12:58:279,-179.7649988812236,179.34496960835426,0,-43.482295989990234,29.38803482055664,-40.18363952636719
0.059301186352968216,0.11370271444320679,9.587152481079102,0.0002264239747054862,0.01410674660909561,-0.0019216735844658289,3.589996814727783,2019-08-06 14:12:58:288,-179.77052015328613,179.34435345497707,0,-42.882537841796875,28.788278579711914,-40.78339385986328
0.08324868232011795,0.06580772250890732,9.630258560180664,-0.002970149702657017,0.017836082395344753,-0.003786341477590401,3.5999755859375,2019-08-06 14:12:58:298,-179.77519781557942,179.35130016545745,0,-42.882537841796875,28.788278579711914,-40.78339385986328
0.10480143129825592,0.0538339726626873,9.608705520629883,-0.006699486009054812,0.01863522629826108,-0.0021880547120550534,3.6099929809570312,2019-08-06 14:12:58:308,-179.77767779509642,179.3616223899727,0,-42.882537841796875,28.788278579711914,-40.78339385986328
0.1191699281334877,0.10172896832227707,9.601521492004395,-0.0005727194893354142,0.021299036533856022,0.0020740435894468653,3.6199722290039062,2019-08-06 14:12:58:318,-179.7798369232006,179.36257023341625,0,-42.882537841796875,28.788278579711914,-40.78339385986328
0.12156467884778976,0.11849221587181091,9.587152481079102,-0.003502911957835466,0.016237795629809405,-0.0013889113292873795,3.629995346069336,2019-08-06 14:12:58:328,-179.77884938039497,179.36312805658588,0,-42.882537841796875,28.788278579711914,-40.78339385986328
0.09522242844104767,0.049044474959373474,9.62067985534668,-0.002703768575067792,0.015172271119452508,-0.001655292456876604,3.6400134563446045,2019-08-06 14:12:58:339,-179.780465493297,179.37154478874191,0,-42.882537841796875,28.788278579711914,-40.78339385986328
0.07845918089151382,0.09454471617937088,9.623074531555176,-0.0016382440647108938,0.016504176237249982,0.0020740435894468653,3.649991512298584,2019-08-06 14:12:58:348,-179.78476020899748,179.37377372485759,0,-42.882537841796875,28.788278579711914,-40.78339385986328
0.08324868232011795,0.049044474959373474,9.59194278717041,-0.0016382440647108938,0.017836082395344753,0.001541281334268416,3.660015821456909,2019-08-06 14:12:58:359,-179.78915910938156,179.3813612388371,0,-42.882537841796875,28.788278579711914,-40.78339385986328
0.1000119298696518,0.10891321301460266,9.697311401367188,-0.0024373874474785677,0.016504176237249982,-0.005118247115536523,3.670034170150757,2019-08-06 14:12:58:369,-179.7908421746986,179.38223555801667,0,-42.882537841796875,28.788278579711914,-40.78339385986328
0.07606443762779236,0.09214996546506882,9.625469207763672,-0.003236530830246241,0.01410674660909561,0.001541281334268416,3.680021286010742,2019-08-06 14:12:58:379,-179.7938807344907,179.38543566149463,0,-42.882537841796875,28.788278579711914,-40.78339385986328
0.10240668058395386,0.06580772250890732,9.606310844421387,0.0034229976195586987,0.01810246300278533,-0.0013889113292873795,3.6900033950805664,2019-08-06 14:12:58:388,-179.7959340390075,179.38795844342587,0,-42.882537841796875,28.788278579711914,-40.78339385986328
0.10240668058395386,0.07059722393751144,9.635047912597656,-0.0013718629371216693,0.018901606905701654,0.001541281334268416,3.7000091075897217,2019-08-06 14:12:58:398,-179.79845567409052,179.392573894451,0,-42.882537841796875,28.788278579711914,-40.78339385986328
0.1383279263973236,0.099334217607975,9.623074531555176,-0.0024373874474785677,0.017036938492428433,0.0020740435894468653,3.710012674331665,2019-08-06 14:12:58:409,-179.79558523713098,179.39426319720056,0,-43.482295989990234,28.788278579711914,-41.08327102661133
0.10959093272686005,0.0538339726626873,9.58236312866211,-0.003502911957835466,0.013840364961357736,-0.003519960350001176,3.7201855182647705,2019-08-06 14:12:58:419,-179.7944742416959,179.40194109314334,0,-43.482295989990234,28.788278579711914,-41.08327102661133
0.12874892354011536,0.099334217607975,9.627863883972168,-0.004302055340603139,0.01410674660909561,-0.0013889113292873795,3.7300055027008057,2019-08-06 14:12:58:428,-179.79104020676854,179.4044519712693,0,-43.482295989990234,28.788278579711914,-41.08327102661133
0.08564343303442001,0.09454471617937088,9.534468650817871,-0.0016382440647108938,0.017303320140166306,0.00047575672638364575,3.7400104999542236,2019-08-06 14:12:58:439,-179.7946471303887,179.4059206255858,0,-43.482295989990234,28.788278579711914,-41.08327102661133
0.06409068405628204,0.11130796372890472,9.572784423828125,-0.002970149702657017,0.019167987513142228,0.0020740435894468653,3.7500059604644775,2019-08-06 14:12:58:448,-179.80184020385775,179.40614560850543,0,-43.482295989990234,28.788278579711914,-41.08327102661133
0.0928276851773262,0.08496572077274323,9.613494873046875,-0.002703768575067792,0.021032655926415452,0.0026068058446253144,3.7600085735321045,2019-08-06 14:12:58:458,-179.8065517027575,179.40941372007774,0,-43.482295989990234,28.788278579711914,-41.08327102661133
0.07606443762779236,0.015517977997660637,9.551231384277344,-0.002171006319889343,0.017836082395344753,0.003938711482571438,3.770012140274048,2019-08-06 14:12:58:469,-179.8113134861827,179.4205831190593,0,-43.482295989990234,28.788278579711914,-41.08327102661133
0.052116937935352325,0.06341297179460526,9.623074531555176,0.0004928051185493561,0.020499892630939702,0.00047575672638364575,3.7800099849700928,2019-08-06 14:12:58:479,-179.82038937376183,179.42434370035417,0,-43.482295989990234,28.788278579711914,-41.08327102661133
0.13114367425441742,0.099334217607975,9.560811042785645,0.0002264239747054862,0.01570503337463096,-0.0005897678815011245,3.7900049686431885,2019-08-06 14:12:58:488,-179.81707821533192,179.4238244314713,0,-43.482295989990234,28.788278579711914,-41.08327102661133
0.06888018548488617,0.03946547582745552,9.606310844421387,-0.0008391006169246387,0.011176553685465489,0.00020937558253977584,3.8000192642211914,2019-08-06 14:12:58:499,-179.81880481778296,179.43111204733265,0,-43.482295989990234,28.788278579711914,-41.08327102661133
0.0473274365067482,0.11370271444320679,9.599126815795898,-0.0003063383292368989,0.017303320140166306,0.0026068058446253144,3.8099963665008545,2019-08-06 14:12:58:508,-179.82647250048757,179.42908855945916,0,-43.482295989990234,28.788278579711914,-41.08327102661133
0.1191699281334877,0.06580772250890732,9.520099639892578,-0.0008391006169246387,0.021299036533856022,0.00047575672638364575,3.8200082778930664,2019-08-06 14:12:58:518,-179.82757317606658,179.4330574839155,0,-43.482295989990234,28.788278579711914,-41.08327102661133
0.10240668058395386,0.05862347409129143,9.618284225463867,-0.0019046251923001184,0.018901606905701654,0.0026068058446253144,3.8300139904022217,2019-08-06 14:12:58:529,-179.82944080330398,179.43848211679378,0,-43.482295989990234,28.788278579711914,-41.08327102661133
0.10480143129825592,0.06820247322320938,9.575179100036621,0.0002264239747054862,0.017036938492428433,0.0023404247170360896,3.8400070667266846,2019-08-06 14:12:58:538,-179.8298699051698,179.4414233898168,0,-41.982906341552734,30.287668228149414,-40.18363952636719
0.0664854347705841,0.13525545597076416,9.529679298400879,-0.0013718629371216693,0.017303320140166306,0.0028731869722145387,3.8500094413757324,2019-08-06 14:12:58:548,-179.8349960588707,179.43710242980362,0,-41.982906341552734,30.287668228149414,-40.18363952636719
0.13114367425441742,0.06101822108030319,9.594337463378906,-0.004834817595781589,0.014905889471714633,0.0023404247170360896,3.8600070476531982,2019-08-06 14:12:58:558,-179.83100138427707,179.44378676080314,0,-41.982906341552734,30.287668228149414,-40.18363952636719
0.15988066792488098,0.05143922194838524,9.551231384277344,0.0012919485988449018,0.014905889471714633,0.005270617380591885,3.870009422302246,2019-08-06 14:12:58:568,-179.8235729783445,179.44801402938472,0,-41.982906341552734,30.287668228149414,-40.18363952636719
0.07845918089151382,0.07059722393751144,9.642231941223145,0.0023574731092018,0.013840364961357736,0.0007421378864821609,3.8800127506256104,2019-08-06 14:12:58:579,-179.82555130169413,179.44933972634314,0,-41.982906341552734,30.287668228149414,-40.18363952636719
0.07606443762779236,0.1065184697508812,9.556020736694336,-0.0013718629371216693,0.01863522629826108,-0.001122530201698155,3.8900094032287598,2019-08-06 14:12:58:588,-179.83037931016847,179.44835028003587,0,-41.982906341552734,30.287668228149414,-40.18363952636719
0.10240668058395386,0.027491725981235504,9.584757804870605,-0.0037692930854246903,0.015172271119452508,-0.004052722605179625,3.9000072479248047,2019-08-06 14:12:58:598,-179.8300462270897,179.45821247861485,0,-41.982906341552734,30.287668228149414,-40.18363952636719
0.14311742782592773,0.04664972424507141,9.618284225463867,-0.0008391006169246387,0.01570503337463096,0.00047575672638364575,3.9100089073181152,2019-08-06 14:12:58:608,-179.82521546967132,179.46396168945645,0,-41.982906341552734,30.287668228149414,-40.18363952636719
0.09043293446302414,0.0538339726626873,9.666179656982422,-0.0019046251923001184,0.014373127216536186,0.0007421378864821609,3.9200096130371094,2019-08-06 14:12:58:618,-179.82606180322142,179.46937007985508,0,-41.982906341552734,30.287668228149414,-40.18363952636719
0.11438042670488358,0.03228122740983963,9.611100196838379,0.0010255674062370958,0.01756970178790418,0.0020740435894468653,3.9300153255462646,2019-08-06 14:12:58:629,-179.8257748209535,179.47555767168407,0,-41.982906341552734,30.287668228149414,-40.18363952636719
0.1000119298696518,0.07059722393751144,9.52488899230957,-0.0003063383292368989,0.02289732433968867,0.005270617380591885,3.9400057792663574,2019-08-06 14:12:58:638,-179.8300721243402,179.4777251425494,0,-41.982906341552734,30.287668228149414,-40.18363952636719
0.13114367425441742,0.06341297179460526,9.594337463378906,-0.002171006319889343,0.01810246300278533,-0.0032535792224119516,3.9500086307525635,2019-08-06 14:12:58:648,-179.8279757019794,179.48181628133193,0,-41.982906341552734,30.287668228149414,-40.18363952636719
0.09761717915534973,0.04425497353076935,9.64462661743164,-0.00723224826423326,0.016504176237249982,0.00020937558253977584,3.9600090980529785,2019-08-06 14:12:58:658,-179.82908581289166,179.4909829744479,0,-43.18241882324219,28.788278579711914,-40.483516693115234
0.11438042670488358,0.07778146862983704,9.496152877807617,-3.9957173202045016e-05,0.0183688436102259,0.0012749002066791914,3.970012903213501,2019-08-06 14:12:58:669,-179.82902030480196,179.4917999580599,0,-43.18241882324219,28.788278579711914,-40.483516693115234
0.10719618201255798,0.06820247322320938,9.58236312866211,-0.006433104361316936,0.020766275318974875,0.001541281334268416,3.980009078979492,2019-08-06 14:12:58:678,-179.83127705690197,179.49741883993204,0,-43.18241882324219,28.788278579711914,-40.483516693115234
0.06888018548488617,0.10412371903657913,9.666179656982422,0.0010255674062370958,0.016770557884987856,0.0010085190140713856,3.9900076389312744,2019-08-06 14:12:58:688,-179.8359012686894,179.49455140967447,0,-43.18241882324219,28.788278579711914,-40.483516693115234
0.0928276851773262,0.041860222816467285,9.618284225463867,-0.005633960978549262,0.014639508864274061,0.00020937558253977584,4.000007152557373,2019-08-06 14:12:58:698,-179.83634382631934,179.5028365231439,0,-43.18241882324219,28.788278579711914,-40.483516693115234
0.12156467884778976,0.0538339726626873,9.587152481079102,-0.005367579850960038,0.015971413982071532,-0.0005897678815011245,4.010011196136475,2019-08-06 14:12:58:709,-179.83405912178617,179.509360399364,0,-43.18241882324219,28.788278579711914,-40.483516693115234
0.10240668058395386,0.08496572077274323,9.594337463378906,-0.003236530830246241,0.02209818043677235,0.0023404247170360896,4.020017147064209,2019-08-06 14:12:58:719,-179.8375627744607,179.51084382414933,0,-43.18241882324219,28.788278579711914,-40.483516693115234
0.10719618201255798,0.099334217607975,9.565600395202637,-0.0005727194893354142,0.024761992752961894,0.0010085190140713856,4.029996395111084,2019-08-06 14:12:58:728,-179.8418454116291,179.5090485000256,0,-43.18241882324219,28.788278579711914,-40.483516693115234
0.12156467884778976,0.041860222816467285,9.575179100036621,-0.002970149702657017,0.01810246300278533,0.0026068058446253144,4.040011167526245,2019-08-06 14:12:58:739,-179.84064047923292,179.51552811206994,0,-43.18241882324219,28.788278579711914,-40.483516693115234
0.11677517741918564,0.09454471617937088,9.611100196838379,-0.0003063383292368989,0.01810246300278533,0.0028731869722145387,4.050237655639648,2019-08-06 14:12:58:749,-179.8403001656917,179.5141214075148,0,-43.18241882324219,28.788278579711914,-40.483516693115234
0.1000119298696518,0.06341297179460526,9.587152481079102,-0.005367579850960038,0.015971413982071532,-5.7005565367755386e-05,4.0599894523620605,2019-08-06 14:12:58:758,-179.84028589365286,179.51919866350244,0,-43.18241882324219,28.788278579711914,-40.483516693115234
0.08564343303442001,0.0801762193441391,9.599126815795898,-0.002703768575067792,0.01810246300278533,0.00047575672638364575,4.070006608963013,2019-08-06 14:12:58:768,-179.84343853251966,179.52076447803748,0,-43.18241882324219,28.788278579711914,-40.483516693115234
0.10240668058395386,0.03228122740983963,9.570389747619629,-0.002703768575067792,0.014905889471714633,-0.003519960350001176,4.079988241195679,2019-08-06 14:12:58:778,-179.84266277619665,179.5279993674448,0,-43.18241882324219,28.788278579711914,-40.483516693115234
0.09043293446302414,0.0801762193441391,9.54165267944336,-0.0005727194893354142,0.020499892630939702,-0.0019216735844658289,4.089998483657837,2019-08-06 14:12:58:788,-179.84647165168138,179.5281326633876,0,-44.381927490234375,29.38803482055664,-41.38315200805664
0.13114367425441742,0.08257097005844116,9.58236312866211,-0.008031391647000934,0.016237795629809405,0.0023404247170360896,4.099992513656616,2019-08-06 14:12:58:798,-179.84297231941136,179.53220285336224,0,-44.381927490234375,29.38803482055664,-41.38315200805664
0.0736696869134903,0.12807121872901917,9.58236312866211,-0.004035674213013915,0.015172271119452508,0.004737855125413436,4.11005163192749,2019-08-06 14:12:58:809,-179.8458727639095,179.52852361716157,0,-44.381927490234375,29.38803482055664,-41.38315200805664
0.11438042670488358,0.11849221587181091,9.625469207763672,-0.004834817595781589,0.017836082395344753,0.00047575672638364575,4.119999647140503,2019-08-06 14:12:58:818,-179.84530179191955,179.5265479471481,0,-44.381927490234375,29.38803482055664,-41.38315200805664
0.11198568344116211,0.0801762193441391,9.642231941223145,-0.004834817595781589,0.016770557884987856,-0.0013889113292873795,4.130017280578613,2019-08-06 14:12:58:829,-179.84452084570106,179.52920832412815,0,-44.381927490234375,29.38803482055664,-41.38315200805664
0.09043293446302414,0.0801762193441391,9.618284225463867,-0.005367579850960038,0.016237795629809405,-0.004052722605179625,4.140013933181763,2019-08-06 14:12:58:839,-179.8459710784639,179.53208512064356,0,-44.381927490234375,29.38803482055664,-41.38315200805664
0.07845918089151382,-0.022798016667366028,9.589548110961914,-0.004568436468192365,0.01756970178790418,-0.0019216735844658289,4.150014162063599,2019-08-06 14:12:58:849,-179.84954187312584,172.34673292148165,0,-44.381927490234375,29.38803482055664,-41.38315200805664
0.10240668058395386,0.1065184697508812,9.606310844421387,0.001824710854023351,0.020766275318974875,0.001541281334268416,4.1600260734558105,2019-08-06 14:12:58:859,-179.85200975607518,172.48606663785566,0,-44.381927490234375,29.38803482055664,-41.38315200805664
0.0736696869134903,0.10172896832227707,9.618284225463867,-0.0019046251923001184,0.018901606905701654,0.006336141890948784,4.170015096664429,2019-08-06 14:12:58:869,-179.85679435474782,172.62529411010073,0,-44.381927490234375,29.38803482055664,-41.38315200805664
0.09761717915534973,0.09693946689367294,9.570389747619629,-0.002970149702657017,0.016770557884987856,-0.001122530201698155,4.180014133453369,2019-08-06 14:12:58:879,-179.85738636770023,172.7628491017614,0,-44.381927490234375,29.38803482055664,-41.38315200805664
0.09043293446302414,0.05862347409129143,9.587152481079102,0.0002264239747054862,0.02236456104421292,0.001541281334268416,4.1900153160095215,2019-08-06 14:12:58:889,-179.86198901447833,172.90045801610356,0,-44.381927490234375,29.38803482055664,-41.38315200805664
0.14072267711162567,0.07778146862983704,9.565600395202637,-0.0008391006169246387,0.019167987513142228,0.0020740435894468653,4.200017929077148,2019-08-06 14:12:58:899,-179.85865812230583,173.03360247055517,0,-44.381927490234375,29.38803482055664,-41.38315200805664
0.07606443762779236,0.08257097005844116,9.606310844421387,-0.0011054818095324445,0.017303320140166306,-0.0005897678815011245,4.210014820098877,2019-08-06 14:12:58:909,-179.86212436091805,173.16370148872335,0,-42.882537841796875,29.687911987304688,-39.88376235961914
0.08803818374872208,0.041860222816467285,9.623074531555176,-0.0024373874474785677,0.015172271119452508,-0.004585484860358075,4.220093250274658,2019-08-06 14:12:58:919,-179.86298460629013,173.29682209920836,0,-42.882537841796875,29.687911987304688,-39.88376235961914
0.07127493619918823,0.04664972424507141,9.579968452453613,-0.005633960978549262,0.021831799829331772,0.0023404247170360896,4.230009317398071,2019-08-06 14:12:58:928,-179.86935509951635,173.428442566825,0,-42.882537841796875,29.687911987304688,-39.88376235961914
0.11198568344116211,0.07059722393751144,9.565600395202637,-0.004035674213013915,0.02209818043677235,-0.0027208169672335025,4.240013599395752,2019-08-06 14:12:58:939,-179.87096664423103,173.55368363734078,0,-42.882537841796875,29.687911987304688,-39.88376235961914
0.09522242844104767,0.05143922194838524,9.596732139587402,-0.005101198723370813,0.019700750808617978,-0.0019216735844658289,4.25002121925354,2019-08-06 14:12:58:949,-179.87324784770743,173.6793343264775,0,-42.882537841796875,29.687911987304688,-39.88376235961914
0.0928276851773262,0.1065184697508812,9.642231941223145,-0.0005727194893354142,0.017836082395344753,-0.0019216735844658289,4.260014295578003,2019-08-06 14:12:58:959,-179.8747592761743,173.79341049673485,0,-42.882537841796875,29.687911987304688,-39.88376235961914
0.08564343303442001,0.04425497353076935,9.599126815795898,-0.004568436468192365,0.02289732433968867,-0.0019216735844658289,4.27001428604126,2019-08-06 14:12:58:969,-179.87989730440404,173.91482446377168,0,-42.882537841796875,29.687911987304688,-39.88376235961914
0.1000119298696518,0.08257097005844116,9.572784423828125,-0.004568436468192365,0.016237795629809405,-0.0019216735844658289,4.280012607574463,2019-08-06 14:12:58:979,-179.879443778876,174.02920875510665,0,-42.882537841796875,29.687911987304688,-39.88376235961914
0.12395942956209183,0.1065184697508812,9.548836708068848,-0.0019046251923001184,0.01996713141605855,-5.7005565367755386e-05,4.290013074874878,2019-08-06 14:12:58:989,-179.87819193194474,174.1369117726432,0,-42.882537841796875,29.687911987304688,-39.88376235961914
0.07127493619918823,0.04664972424507141,9.558416366577148,-0.0016382440647108938,0.0194343681205828,0.0023404247170360896,4.300020694732666,2019-08-06 14:12:58:999,-179.8830041061523,174.24950152850292,0,-42.882537841796875,29.687911987304688,-39.88376235961914
0.10719618201255798,0.099334217607975,9.627863883972168,-0.002171006319889343,0.019700750808617978,-0.0005897678815011245,4.310032844543457,2019-08-06 14:12:59:009,-179.88366136592902,174.35390958240671,0,-42.882537841796875,29.687911987304688,-39.88376235961914
0.08564343303442001,0.09214996546506882,9.651811599731445,-0.005367579850960038,0.019167987513142228,-0.002987198094822727,4.320011615753174,2019-08-06 14:12:59:019,-179.88656030187505,174.45889866852028,0,-42.882537841796875,29.687911987304688,-39.88376235961914
0.09761717915534973,0.11130796372890472,9.596732139587402,-0.0037692930854246903,0.019700750808617978,0.0018076624618576407,4.330015420913696,2019-08-06 14:12:59:029,-179.8882394916172,174.55854761563896,0,-42.882537841796875,29.687911987304688,-39.88376235961914
0.09761717915534973,0.09454471617937088,9.58236312866211,-0.003502911957835466,0.015971413982071532,0.0020740435894468653,4.340008735656738,2019-08-06 14:12:59:038,-179.88776339855949,174.6580363798945,0,-42.43272399902344,28.938217163085938,-39.43394470214844
0.10959093272686005,0.06341297179460526,9.565600395202637,-0.004302055340603139,0.017303320140166306,-0.005118247115536523,4.350017547607422,2019-08-06 14:12:59:049,-179.88660455993076,174.75969690368194,0,-42.43272399902344,28.938217163085938,-39.43394470214844
0.11198568344116211,0.09693946689367294,9.606310844421387,0.0002264239747054862,0.0183688436102259,0.001541281334268416,4.360009431838989,2019-08-06 14:12:59:058,-179.8858202591511,174.85281262976804,0,-42.43272399902344,28.938217163085938,-39.43394470214844
0.14311742782592773,0.08975522220134735,9.606310844421387,-0.0011054818095324445,0.013307602706179285,0.0031395680998037635,4.3700127601623535,2019-08-06 14:12:59:069,-179.8785076430351,174.94567091975182,0,-42.43272399902344,28.938217163085938,-39.43394470214844
0.10240668058395386,0.0801762193441391,9.548836708068848,-0.0016382440647108938,0.021299036533856022,-0.0019216735844658289,4.380012273788452,2019-08-06 14:12:59:079,-179.88060736614983,175.03805594484732,0,-42.43272399902344,28.938217163085938,-39.43394470214844
0.08085393160581589,0.02509697712957859,9.584757804870605,-0.006699486009054812,0.018901606905701654,-0.0032535792224119516,4.3900392055511475,2019-08-06 14:12:59:089,-179.88397068289615,175.13806622120026,0,-42.43272399902344,28.938217163085938,-39.43394470214844
0.1383279263973236,0.04664972424507141,9.651811599731445,-0.0019046251923001184,0.016237795629809405,0.0007421378864821609,4.400008916854858,2019-08-06 14:12:59:098,-179.8789592338783,175.2308326360574,0,-42.43272399902344,28.938217163085938,-39.43394470214844
0.11677517741918564,0.09693946689367294,9.625469207763672,-0.0016382440647108938,0.01863522629826108,0.0018076624618576407,4.410011053085327,2019-08-06 14:12:59:109,-179.8779444935742,175.31559576322152,0,-42.43272399902344,28.938217163085938,-39.43394470214844
0.1191699281334877,0.03946547582745552,9.536863327026367,-0.0011054818095324445,0.017036938492428433,-0.0005897678815011245,4.4200146198272705,2019-08-06 14:12:59:119,-179.87563694383704,175.40516279169347,0,-42.43272399902344,28.938217163085938,-39.43394470214844
0.10480143129825592,0.10172896832227707,9.558416366577148,-0.0003063383292368989,0.01756970178790418,0.0028731869722145387,4.430008888244629,2019-08-06 14:12:59:128,-179.87542024492265,175.48503607734867,0,-42.43272399902344,28.938217163085938,-39.43394470214844
0.10480143129825592,0.04664972424507141,9.635047912597656,0.002890235364380249,0.01863522629826108,0.0018076624618576407,4.440021276473999,2019-08-06 14:12:59:139,-179.87592470375705,175.5681623801374,0,-42.43272399902344,28.938217163085938,-39.43394470214844
0.11198568344116211,0.06580772250890732,9.635047912597656,-0.0013718629371216693,0.01863522629826108,-0.00431910373276885,4.450026273727417,2019-08-06 14:12:59:149,-179.87555701038775,175.64974329379976,0,-42.43272399902344,28.938217163085938,-39.43394470214844
0.09761717915534973,0.06341297179460526,9.548836708068848,-0.0013718629371216693,0.013041222098738713,0.0023404247170360896,4.460010766983032,2019-08-06 14:12:59:159,-179.873642926042,175.72990772138417,0,-42.882537841796875,29.987789154052734,-40.78339385986328
0.0664854347705841,0.0801762193441391,9.56320571899414,0.0004928051185493561,0.018901606905701654,0.0012749002066791914,4.470025062561035,2019-08-06 14:12:59:169,-179.87883194638349,175.8054255341456,0,-42.882537841796875,29.987789154052734,-40.78339385986328
0.08324868232011795,0.07059722393751144,9.56320571899414,-3.9957173202045016e-05,0.021831799829331772,0.0026068058446253144,4.48000693321228,2019-08-06 14:12:59:178,-179.88351654917656,175.88088022702973,0,-42.882537841796875,29.987789154052734,-40.78339385986328
0.07845918089151382,0.03228122740983963,9.67336368560791,-0.004302055340603139,0.016770557884987856,-0.0021880547120550534,4.489994764328003,2019-08-06 14:12:59:188,-179.88595726143924,175.96185123139756,0,-42.882537841796875,29.987789154052734,-40.78339385986328
0.13114367425441742,0.08975522220134735,9.567995071411133,-0.0011054818095324445,0.016770557884987856,0.00047575672638364575,4.499979019165039,2019-08-06 14:12:59:198,-179.8819344324248,176.03248469335153,0,-42.882537841796875,29.987789154052734,-40.78339385986328
0.0473274365067482,0.11609746515750885,9.599126815795898,-0.0008391006169246387,0.012508459843560263,0.0007421378864821609,4.509994029998779,2019-08-06 14:12:59:208,-179.88568000508442,176.0984481616015,0,-42.882537841796875,29.987789154052734,-40.78339385986328
0.12395942956209183,0.04425497353076935,9.651811599731445,-0.004834817595781589,0.016770557884987856,-0.0027208169672335025,4.519981622695923,2019-08-06 14:12:59:218,-179.88265503803223,176.17393641916973,0,-42.882537841796875,29.987789154052734,-40.78339385986328
0.07127493619918823,0.09214996546506882,9.642231941223145,-0.0019046251923001184,0.016504176237249982,0.0023404247170360896,4.529994487762451,2019-08-06 14:12:59:228,-179.885810530718,176.24057742963342,0,-42.882537841796875,29.987789154052734,-40.78339385986328
0.08564343303442001,0.09454471617937088,9.589548110961914,0.0004928051185493561,0.01863522629826108,-0.0003233867214026093,4.539989233016968,2019-08-06 14:12:59:238,-179.88831867399608,176.3041919385956,0,-42.882537841796875,29.987789154052734,-40.78339385986328
