ACCELEROMETER X (m/s²),ACCELEROMETER Y (m/s²),ACCELEROMETER Z (m/s²),GYROSCOPE X (rad/s),GYROSCOPE Y (rad/s),GYROSCOPE Z (rad/s),Time since start in ms ,YYYY-MO-DD HH-MI-SS_SSS,Pitch (Deg),Roll (Deg),Heading (Deg),MagX,MagY,MagZ
0.2079145610332489,-0.36423665285110474,9.780473709106445,-0.001489070633260928,-0.0024403177049006305,0.0018244444078771805,0.0,2019-07-26 14:46:54:092,-3.575643648320698,-3.557344431979581,0,-22.790719985961914,37.78461456298828,-40.18363952636719
0.2079145610332489,-0.3546576499938965,9.751736640930176,0.0017075031578840923,-0.008034321644348672,-0.004568702784301372,0.009992599487304688,2019-07-26 14:46:54:102,-7.0751947483574575,-7.045498533317348,0,-22.790719985961914,37.78461456298828,-40.18363952636719
0.1695985645055771,-0.3666313886642456,9.768500328063965,-0.000689927185474673,-0.004837748113277977,0.0010253010251095067,0.019991397857666016,2019-07-26 14:46:54:112,-10.511081653809182,-10.461212885674335,0,-22.790719985961914,37.78461456298828,-40.18363952636719
0.21749356389045715,-0.3019731342792511,9.77807903289795,0.0006419785825086126,-0.005370510368456426,0.0004925387374217668,0.02999424934387207,2019-07-26 14:46:54:122,-13.872359257429899,-13.81697151828923,0,-22.790719985961914,37.78461456298828,-40.18363952636719
0.17917756736278534,-0.32592064142227173,9.763710975646973,-0.0009563083130638975,-0.004304985598025202,0.0007589198975202821,0.03999447822570801,2019-07-26 14:46:54:132,-17.171468001507925,-17.10185771028568,0,-22.790719985961914,37.78461456298828,-40.18363952636719
0.1887565702199936,-0.32592064142227173,9.797237396240234,0.0027730276682409903,-0.006968797133991773,-0.0029704160187660244,0.04999542236328125,2019-07-26 14:46:54:142,-20.40205047297074,-20.323271107658986,0,-22.790719985961914,37.78461456298828,-40.18363952636719
0.20312505960464478,-0.328315407037735,9.792448043823242,0.0009083597100978372,-0.004038604470435978,-0.0032367971463552496,0.05999159812927246,2019-07-26 14:46:54:152,-23.567976304747294,-23.47891033889681,0,-22.790719985961914,37.78461456298828,-40.18363952636719
0.20551981031894684,-0.3594471514225006,9.72060489654541,-0.00015716488153228781,-0.005104129240867201,-0.003503178534018799,0.07000899314880371,2019-07-26 14:46:54:162,-26.669521693900784,-26.566889523787133,0,-22.790719985961914,37.78461456298828,-40.18363952636719
0.24383580684661865,-0.34986814856529236,9.852315902709961,0.0003755974224100973,-0.003239461087668304,-0.0011057481256414525,0.07996201515197754,2019-07-26 14:46:54:172,-29.705966277673934,-29.595085826217353,0,-22.790719985961914,37.78461456298828,-40.18363952636719
0.21270406246185303,-0.3786051273345947,9.814000129699707,0.0003755974224100973,-0.004038604470435978,0.0007589198975202821,0.08996915817260742,2019-07-26 14:46:54:182,-32.68474550899904,-32.55920986368476,0,-22.790719985961914,37.78461456298828,-40.18363952636719
0.21988831460475922,-0.37621039152145386,9.744552612304688,0.001973884285473317,-0.008034321644348672,-0.0040359407891972475,0.09996604919433594,2019-07-26 14:46:54:192,-35.600687250705,-35.464914964896096,0,-22.790719985961914,37.78461456298828,-40.18363952636719
0.17199331521987915,-0.3594471514225006,9.770895004272461,0.002506646540651766,-0.004837748113277977,-0.001372129253230677,0.10994982719421387,2019-07-26 14:46:54:202,-38.465792493806184,-38.31488545121319,0,-22.790719985961914,37.78461456298828,-40.18363952636719
0.19115132093429565,-0.35705238580703735,9.770895004272461,-0.0004235460253761578,-0.0037722233428467535,-0.0011057481256414525,0.11998128890991211,2019-07-26 14:46:54:212,-41.27193680711917,-41.10649324104088,0,-22.790719985961914,37.78461456298828,-40.18363952636719
0.21270406246185303,-0.3690261244773865,9.8187894821167,-0.00015716488153228781,-0.008833465027116346,-0.004302321916786473,0.12996721267700195,2019-07-26 14:46:54:222,-44.01672503045592,-43.841227802429366,0,-22.790719985961914,37.78461456298828,-40.18363952636719
0.22467781603336334,-0.33071014285087585,9.732579231262207,-0.001489070633260928,-0.00856708389952712,0.006086542839416261,0.13996028900146484,2019-07-26 14:46:54:232,-46.70513454663564,-46.524644819541244,0,-22.790719985961914,37.78461456298828,-40.18363952636719
0.1959408074617386,-0.328315407037735,9.751736640930176,-0.0004235460253761578,-0.004304985598025202,0.0023572067930927925,0.1499791145324707,2019-07-26 14:46:54:242,-49.3455883757537,-49.155348247988215,0,-23.39047622680664,37.78461456298828,-40.18363952636719
0.2270725667476654,-0.3402891457080841,9.804421424865723,-0.002021832888439377,-0.0064360348788133235,0.000226157593577897,0.16002154350280762,2019-07-26 14:46:54:252,-51.92851253576196,-51.73134504727573,0,-23.39047622680664,37.78461456298828,-40.18363952636719
0.1815723180770874,-0.3211311399936676,9.754131317138672,0.003039408795830215,-0.004837748113277977,0.0018244444078771805,0.16998505592346191,2019-07-26 14:46:54:262,-54.46590715039578,-54.26070567052042,0,-23.39047622680664,37.78461456298828,-40.18363952636719
0.25820431113243103,-0.3618418872356415,9.782868385314941,-0.005484787547099296,-0.005903272623634875,0.002623587920682017,0.1799924373626709,2019-07-26 14:46:54:272,-56.94303415764649,-56.730044571715794,0,-23.39047622680664,37.78461456298828,-40.18363952636719
0.17917756736278534,-0.2804203927516937,9.7373685836792,0.00010921627043890474,-0.0003092685216403804,0.004221874686217364,0.18999266624450684,2019-07-26 14:46:54:282,-59.3829161741066,-59.162513617909184,0,-23.39047622680664,37.78461456298828,-40.18363952636719
0.24623055756092072,-0.35705238580703735,9.74934196472168,0.001174740902705643,-0.0024403177049006305,0.0018244444078771805,0.19999170303344727,2019-07-26 14:46:54:292,-61.76495251633355,-61.53797451594325,0,-23.39047622680664,37.78461456298828,-40.18363952636719
0.22228306531906128,-0.32592064142227173,9.852315902709961,-0.002820976271207051,-0.0024403177049006305,-0.0008393669980522279,0.20999479293823242,2019-07-26 14:46:54:302,-64.10243361363167,-63.86773679131759,0,-23.39047622680664,37.78461456298828,-40.18363952636719
0.18636181950569153,-0.33071014285087585,9.754131317138672,0.001174740902705643,-0.0064360348788133235,0.0018244444078771805,0.21999478340148926,2019-07-26 14:46:54:312,-66.39487999220842,-66.15220471122804,0,-23.39047622680664,37.78461456298828,-40.18363952636719
0.2270725667476654,-0.3738156259059906,9.72060489654541,0.0027730276682409903,-0.00909984667485422,-0.001372129253230677,0.23003745079040527,2019-07-26 14:46:54:322,-68.63508740902046,-68.38667868061793,0,-23.39047622680664,37.78461456298828,-40.18363952636719
0.21988831460475922,-0.3522628843784332,9.802026748657227,0.001973884285473317,-0.005370510368456426,0.002090825535466405,0.23999691009521484,2019-07-26 14:46:54:332,-70.83368040260484,-70.57888502295253,0,-23.39047622680664,37.78461456298828,-40.18363952636719
0.2079145610332489,-0.37142089009284973,9.814000129699707,0.002240265413062541,-0.008034321644348672,0.0012916821526987312,0.24999308586120605,2019-07-26 14:46:54:342,-72.98822408824014,-72.7252170858626,0,-23.39047622680664,37.78461456298828,-40.18363952636719
0.2079145610332489,-0.30436789989471436,9.79005241394043,0.001174740902705643,-0.0061696537512241,-0.0019048915084091261,0.2599954605102539,2019-07-26 14:46:54:352,-75.1006620033527,-74.83575803732771,0,-23.39047622680664,37.78461456298828,-40.18363952636719
0.24862530827522278,-0.39536839723587036,9.732579231262207,0.002506646540651766,-0.005104129240867201,-0.0016385103808199016,0.2699921131134033,2019-07-26 14:46:54:362,-77.16651693871559,-76.89392472080579,0,-23.39047622680664,37.78461456298828,-40.18363952636719
0.19115132093429565,-0.34986814856529236,9.739763259887695,0.002506646540651766,-0.002973079960079079,0.005820161711827037,0.27999210357666016,2019-07-26 14:46:54:372,-79.19903051836347,-78.91630824204047,0,-23.39047622680664,37.78461456298828,-40.18363952636719
0.2342568039894104,-0.3474733829498291,9.675105094909668,0.0003755974224100973,-0.0019075553196850185,-0.0011057481256414525,0.2899909019470215,2019-07-26 14:46:54:382,-81.18623908437394,-80.89705602078753,0,-23.39047622680664,37.78461456298828,-40.18363952636719
0.21030931174755096,-0.32352590560913086,9.809210777282715,0.0003755974224100973,-0.005370510368456426,0.0023572067930927925,0.2999899387359619,2019-07-26 14:46:54:392,-83.13493441161243,-82.84154505823844,0,-23.39047622680664,37.78461456298828,-40.18363952636719
0.20551981031894684,-0.3546576499938965,9.830763816833496,-0.0017554517608501525,-0.0019075553196850185,0.0012916821526987312,0.31000566482543945,2019-07-26 14:46:54:402,-85.0472101762743,-84.7424044418328,0,-23.39047622680664,37.78461456298828,-40.18363952636719
0.20551981031894684,-0.34507864713668823,9.770895004272461,0.004371314693850663,-0.0061696537512241,0.0015580632802879558,0.31996679306030273,2019-07-26 14:46:54:412,-86.91871569201432,-86.60954781787389,0,-23.39047622680664,37.78461456298828,-40.18363952636719
0.2150988131761551,-0.3331048786640167,9.79963207244873,-0.0017554517608501525,-0.0061696537512241,0.004488256073880914,0.3299846649169922,2019-07-26 14:46:54:422,-88.75172248950746,-88.43743293771259,0,-23.39047622680664,37.78461456298828,-40.18363952636719
0.1815723180770874,-0.3474733829498291,9.814000129699707,-0.0017554517608501525,-0.004304985598025202,-0.001372129253230677,0.33995914459228516,2019-07-26 14:46:54:432,-90.55307839038117,-90.22714589308961,0,-23.39047622680664,37.78461456298828,-40.18363952636719
0.1743880659341812,-0.31873640418052673,9.806816101074219,0.0027730276682409903,-0.0056368914960456505,-4.022355432963424e-05,0.34995508193969727,2019-07-26 14:46:54:442,-92.318478096763,-91.98692850432352,0,-23.39047622680664,37.78461456298828,-40.18363952636719
0.23186205327510834,-0.37621039152145386,9.648762702941895,0.00010921627043890474,-0.0035058422152575287,-0.0024376537635875752,0.35994529724121094,2019-07-26 14:46:54:452,-94.04261061079428,-93.70259396151869,0,-23.39047622680664,37.78461456298828,-40.18363952636719
0.1959408074617386,-0.36423665285110474,9.74934196472168,-0.0009563083130638975,-0.007767940516759447,-0.00030660471036448813,0.36995911598205566,2019-07-26 14:46:54:462,-95.73436334427466,-95.3852127244256,0,-23.39047622680664,37.78461456298828,-40.18363952636719
0.2342568039894104,-0.35705238580703735,9.830763816833496,0.00010921627043890474,-0.002973079960079079,-0.0027040348911768,0.379946231842041,2019-07-26 14:46:54:472,-97.39070804624788,-97.03596845904434,0,-23.39047622680664,37.78461456298828,-40.18363952636719
0.23186205327510834,-0.30436789989471436,9.761316299438477,-0.0017554517608501525,-0.006702416006402549,-0.0024376537635875752,0.38995790481567383,2019-07-26 14:46:54:482,-99.0119121022861,-98.6585429997864,0,-23.39047622680664,37.78461456298828,-40.18363952636719
0.20312505960464478,-0.3857893943786621,9.734973907470703,-0.004685644164331623,-0.006702416006402549,-0.004568702784301372,0.3999648094177246,2019-07-26 14:46:54:492,-100.60400123607414,-100.23735135297068,0,-23.39047622680664,37.484737396240234,-39.58388137817383
0.2079145610332489,-0.33549964427948,9.763710975646973,0.0009083597100978372,-0.004304985598025202,-0.001372129253230677,0.40996789932250977,2019-07-26 14:46:54:502,-102.16510506586984,-101.79375417776727,0,-23.39047622680664,37.484737396240234,-39.58388137817383
0.19354607164859772,-0.2804203927516937,9.806816101074219,-0.004152881909153174,-0.008300702771937896,0.0034227313034496903,0.41997575759887695,2019-07-26 14:46:54:512,-103.69452576032275,-103.32278753833725,0,-23.39047622680664,37.484737396240234,-39.58388137817383
0.18636181950569153,-0.32592064142227173,9.849921226501465,0.0027730276682409903,-0.007767940516759447,0.003156350175860466,0.42998719215393066,2019-07-26 14:46:54:522,-105.19459028082117,-104.81998764283998,0,-23.39047622680664,37.484737396240234,-39.58388137817383
0.18396706879138947,-0.328315407037735,9.734973907470703,-0.00015716488153228781,-0.004837748113277977,-0.0011057481256414525,0.43996715545654297,2019-07-26 14:46:54:532,-106.66633511932693,-106.28486805616221,0,-23.39047622680664,37.484737396240234,-39.58388137817383
0.2079145610332489,-0.31873640418052673,9.770895004272461,-0.002021832888439377,-0.007767940516759447,-0.003503178534018799,0.44995951652526855,2019-07-26 14:46:54:542,-108.10426983902559,-107.72066863980693,0,-23.39047622680664,37.484737396240234,-39.58388137817383
0.22946731746196747,-0.328315407037735,9.7373685836792,0.003039408795830215,-0.003239461087668304,-0.0008393669980522279,0.45996880531311035,2019-07-26 14:46:54:552,-109.51336456317169,-109.12934120676397,0,-23.39047622680664,37.484737396240234,-39.58388137817383
0.21749356389045715,-0.32352590560913086,9.763710975646973,0.001973884285473317,-0.005370510368456426,0.000226157593577897,0.47000741958618164,2019-07-26 14:46:54:562,-110.8945482343818,-110.5099103432416,0,-23.39047622680664,37.484737396240234,-39.58388137817383
0.2007303088903427,-0.3211311399936676,9.7373685836792,0.003039408795830215,-0.002973079960079079,0.0028899690482712416,0.4799838066101074,2019-07-26 14:46:54:572,-112.25137277913478,-111.86363698262441,0,-23.39047622680664,37.484737396240234,-39.58388137817383
0.2534148097038269,-0.3331048786640167,9.794842720031738,0.0003755974224100973,-0.0013747930645065694,-0.0016385103808199016,0.48996448516845703,2019-07-26 14:46:54:582,-113.57593404617225,-113.1876192305182,0,-23.39047622680664,37.484737396240234,-39.58388137817383
0.22946731746196747,-0.3594471514225006,9.797237396240234,0.0009083597100978372,-0.002973079960079079,0.0034227313034496903,0.49996018409729004,2019-07-26 14:46:54:592,-114.87591239245337,-114.48235345236839,0,-23.39047622680664,37.484737396240234,-39.58388137817383
0.22228306531906128,-0.3618418872356415,9.802026748657227,0.001973884285473317,-0.005104129240867201,0.0004925387374217668,0.5099740028381348,2019-07-26 14:46:54:602,-116.14954245508953,-115.75153396536089,0,-23.39047622680664,37.484737396240234,-39.58388137817383
0.20312505960464478,-0.39536839723587036,9.845131874084473,-0.00015716488153228781,-0.010431751792651692,-0.0011057481256414525,0.5199785232543945,2019-07-26 14:46:54:612,-117.39705233239306,-116.99042115096965,0,-23.39047622680664,37.484737396240234,-39.58388137817383
0.21749356389045715,-0.3546576499938965,9.773289680480957,0.003838552178597889,-0.004038604470435978,0.002090825535466405,0.5299854278564453,2019-07-26 14:46:54:622,-118.62134519556126,-118.21120428244946,0,-23.39047622680664,37.484737396240234,-39.58388137817383
0.2270725667476654,-0.3738156259059906,9.825974464416504,-0.000689927185474673,-0.009898989537473243,-0.0024376537635875752,0.5399656295776367,2019-07-26 14:46:54:632,-119.81689429531156,-119.40301980838913,0,-23.39047622680664,37.484737396240234,-39.58388137817383
0.19354607164859772,-0.37621039152145386,9.758920669555664,0.003039408795830215,-0.004304985598025202,-0.0040359407891972475,0.5499858856201172,2019-07-26 14:46:54:642,-120.99541061014351,-120.57251584149647,0,-23.39047622680664,37.484737396240234,-39.58388137817383
0.23186205327510834,-0.3474733829498291,9.763710975646973,-0.002820976271207051,-0.0035058422152575287,0.0004925387374217668,0.5599656105041504,2019-07-26 14:46:54:652,-122.14633054302493,-121.71872083552252,0,-23.39047622680664,37.484737396240234,-39.58388137817383
0.2605990469455719,-0.31155213713645935,9.761316299438477,0.002240265413062541,-0.008833465027116346,0.002090825535466405,0.5699560642242432,2019-07-26 14:46:54:662,-123.26786330585662,-122.84904132377517,0,-23.39047622680664,37.484737396240234,-39.58388137817383
0.20551981031894684,-0.32592064142227173,9.763710975646973,-0.0012226895056717034,-0.0061696537512241,-0.0016385103808199016,0.5799732208251953,2019-07-26 14:46:54:672,-124.37491862246294,-123.95313538140822,0,-23.39047622680664,37.484737396240234,-39.58388137817383
0.22467781603336334,-0.35705238580703735,9.754131317138672,0.0003755974224100973,-0.005370510368456426,0.004488256073880914,0.5899910926818848,2019-07-26 14:46:54:682,-125.45800883768155,-125.03235614523427,0,-23.39047622680664,37.484737396240234,-39.58388137817383
0.20551981031894684,-0.3402891457080841,9.751736640930176,0.0003755974224100973,-0.0056368914960456505,0.0018244444078771805,0.5999653339385986,2019-07-26 14:46:54:692,-126.5215448801149,-126.09194860082034,0,-23.39047622680664,37.484737396240234,-39.58388137817383
0.20312505960464478,-0.3402891457080841,9.804421424865723,-0.004152881909153174,-0.006968797133991773,0.0034227313034496903,0.6099612712860107,2019-07-26 14:46:54:702,-127.56346526275149,-127.12802257604663,0,-23.39047622680664,37.484737396240234,-39.58388137817383
0.2007303088903427,-0.3666313886642456,9.732579231262207,-0.00015716488153228781,-0.0061696537512241,-0.0019048915084091261,0.6199755668640137,2019-07-26 14:46:54:712,-128.58509608132997,-128.14222690805155,0,-23.39047622680664,37.484737396240234,-39.58388137817383
0.18396706879138947,-0.3618418872356415,9.725394248962402,0.0003755974224100973,-0.0035058422152575287,0.0012916821526987312,0.6299934387207031,2019-07-26 14:46:54:722,-129.5897483834446,-129.13697849855845,0,-23.39047622680664,37.484737396240234,-39.58388137817383
0.2558095455169678,-0.3690261244773865,9.780473709106445,0.0049040769490291125,-0.002973079960079079,-4.022355432963424e-05,0.6399619579315186,2019-07-26 14:46:54:732,-130.56632455300502,-130.11376796010805,0,-23.39047622680664,37.484737396240234,-39.58388137817383
0.18636181950569153,-0.3594471514225006,9.7373685836792,-0.0004235460253761578,-0.0064360348788133235,-0.002171272635998351,0.6499662399291992,2019-07-26 14:46:54:742,-131.52945388585374,-131.06897332165616,0,-23.39047622680664,38.38437271118164,-39.28400421142578
0.20312505960464478,-0.3857893943786621,9.756525993347168,-0.0017554517608501525,-0.006702416006402549,-0.0016385103808199016,0.6599764823913574,2019-07-26 14:46:54:752,-132.47124372207534,-132.00131933166517,0,-23.39047622680664,38.38437271118164,-39.28400421142578
0.2079145610332489,-0.32592064142227173,9.79963207244873,-0.00015716488153228781,-0.008300702771937896,0.0004925387374217668,0.6699738502502441,2019-07-26 14:46:54:762,-133.39285049201547,-132.92310737872992,0,-23.39047622680664,38.38437271118164,-39.28400421142578
0.20551981031894684,-0.3546576499938965,9.770895004272461,0.0027730276682409903,-0.005903272623634875,-0.0027040348911768,0.6799752712249756,2019-07-26 14:46:54:772,-134.297578836914,-133.8246270501782,0,-23.39047622680664,38.38437271118164,-39.28400421142578
0.22228306531906128,-0.33549964427948,9.809210777282715,0.001973884285473317,-0.006702416006402549,-0.00030660471036448813,0.6899824142456055,2019-07-26 14:46:54:782,-135.18189842891678,-134.71006571522952,0,-23.39047622680664,38.38437271118164,-39.28400421142578
0.21988831460475922,-0.33789438009262085,9.809210777282715,0.0014411220302948675,-0.011497276303008591,-0.001372129253230677,0.699970006942749,2019-07-26 14:46:54:792,-136.0461296331515,-135.57721524132913,0,-23.39047622680664,38.38437271118164,-39.28400421142578
0.19354607164859772,-0.3546576499938965,9.825974464416504,0.0033057899234194394,-0.007235178261580997,-0.0005729858704630034,0.7099635601043701,2019-07-26 14:46:54:802,-136.89857848659568,-136.42618333118173,0,-23.39047622680664,38.38437271118164,-39.28400421142578
0.23186205327510834,-0.34507864713668823,9.825974464416504,0.002240265413062541,-0.008034321644348672,-0.004302321916786473,0.7199757099151611,2019-07-26 14:46:54:812,-137.7290551929492,-137.2586921925722,0,-23.39047622680664,38.38437271118164,-39.28400421142578
0.2605990469455719,-0.31873640418052673,9.742157936096191,0.003039408795830215,-0.004038604470435978,0.0012916821526987312,0.7299845218658447,2019-07-26 14:46:54:822,-138.54155891847017,-138.07774866312985,0,-23.39047622680664,38.38437271118164,-39.28400421142578
0.22228306531906128,-0.3738156259059906,9.782868385314941,-0.0009563083130638975,-0.008300702771937896,-0.006966133452753044,0.7399752140045166,2019-07-26 14:46:54:832,-139.34003861340796,-138.8718916495959,0,-23.39047622680664,38.38437271118164,-39.28400421142578
0.25102004408836365,-0.3690261244773865,9.766105651855469,0.0014411220302948675,-0.0037722233428467535,-0.0019048915084091261,0.7499904632568359,2019-07-26 14:46:54:842,-140.12166931338203,-139.65198478665585,0,-23.39047622680664,38.38437271118164,-39.28400421142578
0.19833555817604065,-0.3857893943786621,9.802026748657227,0.00010921627043890474,-0.003239461087668304,0.0018244444078771805,0.759967565536499,2019-07-26 14:46:54:852,-140.89423768893644,-140.413928452715,0,-23.39047622680664,38.38437271118164,-39.28400421142578
0.22946731746196747,-0.3331048786640167,9.763710975646973,-0.001489070633260928,-0.004571366985688751,0.002623587920682017,0.7699494361877441,2019-07-26 14:46:54:862,-141.64686435260887,-141.16573567183733,0,-23.39047622680664,38.38437271118164,-39.28400421142578
0.2558095455169678,-0.34507864713668823,9.768500328063965,0.001973884285473317,-0.009898989537473243,-0.0019048915084091261,0.7799580097198486,2019-07-26 14:46:54:872,-142.3783625818346,-141.90306685199073,0,-23.39047622680664,38.38437271118164,-39.28400421142578
0.2079145610332489,-0.36423665285110474,9.643973350524902,0.005703220331796786,-0.007235178261580997,-0.0008393669980522279,0.7899978160858154,2019-07-26 14:46:54:882,-143.10201563160717,-142.6249618692521,0,-23.39047622680664,38.38437271118164,-39.28400421142578
0.23904630541801453,-0.35705238580703735,9.763710975646973,0.003039408795830215,-0.002173936447274243,-0.005367846167069046,0.799994945526123,2019-07-26 14:46:54:892,-143.8107049985992,-143.33228206375767,0,-23.39047622680664,38.38437271118164,-39.28400421142578
0.20551981031894684,-0.342683881521225,9.773289680480957,0.005170458076618337,-0.004038604470435978,0.002623587920682017,0.8099892139434814,2019-07-26 14:46:54:902,-144.50813093591753,-144.02837482452495,0,-23.39047622680664,38.38437271118164,-39.28400421142578
0.21270406246185303,-0.3618418872356415,9.785263061523438,0.001973884285473317,-0.004837748113277977,-0.0016385103808199016,0.8199942111968994,2019-07-26 14:46:54:912,-145.1903455149692,-144.7065615620891,0,-23.39047622680664,38.38437271118164,-39.28400421142578
0.2150988131761551,-0.33789438009262085,9.787657737731934,-0.001489070633260928,-0.008034321644348672,0.0010253010251095067,0.8300304412841797,2019-07-26 14:46:54:922,-145.85683179743842,-145.37204702813384,0,-23.39047622680664,38.38437271118164,-39.28400421142578
0.2342568039894104,-0.3666313886642456,9.830763816833496,-0.001489070633260928,-0.00909984667485422,0.0015580632802879558,0.8399853706359863,2019-07-26 14:46:54:932,-146.50730783740207,-146.02105742963954,0,-23.39047622680664,38.38437271118164,-39.28400421142578
0.18396706879138947,-0.34986814856529236,9.74934196472168,-0.000689927185474673,-0.005370510368456426,0.0018244444078771805,0.8499982357025146,2019-07-26 14:46:54:942,-147.15252175982553,-146.65914331848916,0,-23.39047622680664,38.38437271118164,-39.28400421142578
0.22228306531906128,-0.3522628843784332,9.768500328063965,-0.00015716488153228781,-0.00856708389952712,0.0034227313034496903,0.8599932193756104,2019-07-26 14:46:54:952,-147.77859242306317,-147.28456716802398,0,-23.39047622680664,38.38437271118164,-39.28400421142578
0.23186205327510834,-0.34986814856529236,9.806816101074219,-0.0012226895056717034,-0.006702416006402549,-0.0005729858704630034,0.8700106143951416,2019-07-26 14:46:54:962,-148.3921628533031,-147.8973237178296,0,-23.39047622680664,38.38437271118164,-39.28400421142578
0.18396706879138947,-0.388184130191803,9.825974464416504,0.0003755974224100973,-0.006702416006402549,0.006619305094594711,0.8799855709075928,2019-07-26 14:46:54:972,-148.9991136947522,-148.4943406961532,0,-23.39047622680664,38.38437271118164,-39.28400421142578
0.22467781603336334,-0.31155213713645935,9.8187894821167,-0.00015716488153228781,-0.0037722233428467535,0.003689112431038915,0.889979362487793,2019-07-26 14:46:54:982,-149.59079787323094,-149.08801775541957,0,-23.39047622680664,38.38437271118164,-39.28400421142578
0.21749356389045715,-0.3067626357078552,9.754131317138672,0.0006419785825086126,0.00022349378230200473,0.0004925387374217668,0.899965763092041,2019-07-26 14:46:54:992,-150.17356032051654,-149.67059077260518,0,-22.490842819213867,37.484737396240234,-40.483516693115234
0.22467781603336334,-0.34986814856529236,9.785263061523438,-0.002021832888439377,-0.0035058422152575287,-0.0016385103808199016,0.9099764823913574,2019-07-26 14:46:55:002,-150.7418119212107,-150.23508817830788,0,-22.490842819213867,37.484737396240234,-40.483516693115234
0.19115132093429565,-0.37142089009284973,9.766105651855469,0.0006419785825086126,-0.0005756496817388956,-0.0011057481256414525,0.9199683666229248,2019-07-26 14:46:55:012,-151.30422665428907,-150.78718655139517,0,-22.490842819213867,37.484737396240234,-40.483516693115234
0.2342568039894104,-0.3522628843784332,9.802026748657227,0.005170458076618337,-0.0061696537512241,-0.005367846167069046,0.9299702644348145,2019-07-26 14:46:55:022,-151.8472964012829,-151.33318265238228,0,-22.490842819213867,37.484737396240234,-40.483516693115234
0.21030931174755096,-0.3402891457080841,9.864290237426758,0.0003755974224100973,-0.004571366985688751,-0.0027040348911768,0.9399960041046143,2019-07-26 14:46:55:032,-152.38334952325545,-151.86721537520606,0,-22.490842819213867,37.484737396240234,-40.483516693115234
0.20312505960464478,-0.33789438009262085,9.833158493041992,0.001174740902705643,-0.0035058422152575287,-0.0011057481256414525,0.9499812126159668,2019-07-26 14:46:55:042,-152.91004893134564,-152.39116838270144,0,-22.490842819213867,37.484737396240234,-40.483516693115234
0.2558095455169678,-0.3546576499938965,9.770895004272461,-0.0033537385263855,-0.0037722233428467535,-0.004568702784301372,0.9599642753601074,2019-07-26 14:46:55:052,-153.4197393422293,-152.89988963142397,0,-22.490842819213867,37.484737396240234,-40.483516693115234
0.24383580684661865,-0.35705238580703735,9.780473709106445,0.0035721710510086637,-0.004837748113277977,0.0015580632802879558,0.9699585437774658,2019-07-26 14:46:55:062,-153.92006695710606,-153.4020814820067,0,-22.490842819213867,37.484737396240234,-40.483516693115234
0.21030931174755096,-0.3546576499938965,9.79005241394043,-0.0033537385263855,-0.002973079960079079,0.0010253010251095067,0.9799740314483643,2019-07-26 14:46:55:072,-154.41538094854502,-153.89065964742056,0,-22.490842819213867,37.484737396240234,-40.483516693115234
0.2414410561323166,-0.33549964427948,9.754131317138672,-0.0033537385263855,-0.007235178261580997,0.004488256073880914,0.9899904727935791,2019-07-26 14:46:55:082,-154.89464539697673,-154.37156126440289,0,-22.490842819213867,37.484737396240234,-40.483516693115234
0.2414410561323166,-0.32352590560913086,9.79005241394043,0.0017075031578840923,-0.009366227282294795,-0.002171272635998351,0.9999678134918213,2019-07-26 14:46:55:092,-155.36325058139133,-154.84723202789326,0,-22.490842819213867,37.484737396240234,-40.483516693115234
0.18396706879138947,-0.33549964427948,9.768500328063965,-0.0012226895056717034,-0.002173936447274243,0.0004925387374217668,1.0099620819091797,2019-07-26 14:46:55:102,-155.83318749292735,-155.3102601764912,0,-22.490842819213867,37.484737396240234,-40.483516693115234
0.16480906307697296,-0.39536839723587036,9.754131317138672,0.0006419785825086126,-0.0003092685216403804,0.0004925387374217668,1.0199975967407227,2019-07-26 14:46:55:112,-156.29698954183803,-155.75799424638214,0,-22.490842819213867,37.484737396240234,-40.483516693115234
0.17199331521987915,-0.3594471514225006,9.785263061523438,-0.004152881909153174,-0.0019075553196850185,-4.022355432963424e-05,1.0299804210662842,2019-07-26 14:46:55:122,-156.74984108034167,-156.198431933996,0,-22.490842819213867,37.484737396240234,-40.483516693115234
0.21749356389045715,-0.3594471514225006,9.751736640930176,0.003838552178597889,-0.007501559389170223,-4.022355432963424e-05,1.0399644374847412,2019-07-26 14:46:55:132,-157.18508568844544,-156.63439607552775,0,-22.490842819213867,37.484737396240234,-40.483516693115234
0.17678281664848328,-0.31155213713645935,9.761316299438477,-0.002021832888439377,-0.005104129240867201,0.0007589198975202821,1.0499582290649414,2019-07-26 14:46:55:142,-157.6177688981369,-157.06401180223085,0,-22.490842819213867,37.484737396240234,-40.483516693115234
0.22467781603336334,-0.34986814856529236,9.825974464416504,0.001174740902705643,-0.006702416006402549,0.002623587920682017,1.0599846839904785,2019-07-26 14:46:55:152,-158.0354425659401,-157.48260816119094,0,-22.490842819213867,37.484737396240234,-40.483516693115234
0.19115132093429565,-0.3618418872356415,9.758920669555664,0.00010921627043890474,-0.005903272623634875,-0.0029704160187660244,1.069965124130249,2019-07-26 14:46:55:162,-158.44898294731865,-157.8905483256637,0,-22.490842819213867,37.484737396240234,-40.483516693115234
0.21030931174755096,-0.35705238580703735,9.833158493041992,-0.0017554517608501525,-0.0061696537512241,0.0018244444078771805,1.0799713134765625,2019-07-26 14:46:55:172,-158.85203205135778,-158.2901599309214,0,-22.490842819213867,37.484737396240234,-40.483516693115234
0.2150988131761551,-0.34986814856529236,9.761316299438477,-0.002021832888439377,-0.00963260893003267,0.0010253010251095067,1.089963436126709,2019-07-26 14:46:55:182,-159.24433984644205,-158.68216768013627,0,-22.490842819213867,37.484737396240234,-40.483516693115234
0.23665155470371246,-0.36423665285110474,9.79005241394043,0.005436839204207561,-0.002173936447274243,-4.022355432963424e-05,1.0999610424041748,2019-07-26 14:46:55:192,-159.63053825095045,-159.06896250181228,0,-22.490842819213867,37.484737396240234,-40.483516693115234
0.18636181950569153,-0.3738156259059906,9.74934196472168,0.002240265413062541,-0.0011084119369173448,0.000226157593577897,1.1099772453308105,2019-07-26 14:46:55:202,-160.0154022265703,-159.44492726596846,0,-22.490842819213867,37.484737396240234,-40.483516693115234
0.21988831460475922,-0.37621039152145386,9.782868385314941,-0.000689927185474673,-0.010165371185211118,-0.004302321916786473,1.1199746131896973,2019-07-26 14:46:55:212,-160.38363557647725,-159.81159575608407,0,-22.490842819213867,37.484737396240234,-40.483516693115234
0.2007303088903427,-0.297183632850647,9.758920669555664,-0.00015716488153228781,-0.006968797133991773,-0.005101465039479822,1.1299686431884766,2019-07-26 14:46:55:222,-160.74848532553867,-160.18039042039004,0,-22.490842819213867,37.484737396240234,-40.483516693115234
0.20312505960464478,-0.32592064142227173,9.758920669555664,-0.000689927185474673,0.0010226372138336143,0.0004925387374217668,1.1399719715118408,2019-07-26 14:46:55:232,-161.11024203724122,-160.53813893490235,0,-22.490842819213867,37.484737396240234,-40.483516693115234
0.23186205327510834,-0.2947888970375061,9.734973907470703,-0.0004235460253761578,-4.288736560552649e-05,-0.0008393669980522279,1.1499652862548828,2019-07-26 14:46:55:242,-161.4607255268169,-160.89244913631575,0,-23.39047622680664,38.08449172973633,-40.78339385986328
0.24383580684661865,-0.3402891457080841,9.72060489654541,-0.0017554517608501525,-0.004304985598025202,-4.022355432963424e-05,1.1599602699279785,2019-07-26 14:46:55:252,-161.80035637568332,-161.2335162802613,0,-23.39047622680664,38.08449172973633,-40.78339385986328
0.24862530827522278,-0.3786051273345947,9.734973907470703,0.001973884285473317,-0.004571366985688751,-0.0019048915084091261,1.1699671745300293,2019-07-26 14:46:55:262,-162.13252103337152,-161.56541143312165,0,-23.39047622680664,38.08449172973633,-40.78339385986328
0.2150988131761551,-0.3738156259059906,9.74934196472168,0.003838552178597889,-0.007767940516759447,0.0028899690482712416,1.1799850463867188,2019-07-26 14:46:55:272,-162.46022300285676,-161.89234646831576,0,-23.39047622680664,38.08449172973633,-40.78339385986328
0.20551981031894684,-0.297183632850647,9.718210220336914,-0.0012226895056717034,-0.0024403177049006305,-0.0016385103808199016,1.1899678707122803,2019-07-26 14:46:55:282,-162.7854205560967,-162.2187829077653,0,-23.39047622680664,38.08449172973633,-40.78339385986328
0.20551981031894684,-0.36423665285110474,9.773289680480957,0.001174740902705643,-0.004038604470435978,0.005287399456648588,1.1999683380126953,2019-07-26 14:46:55:292,-163.10335077656242,-162.53238000209342,0,-23.39047622680664,38.08449172973633,-40.78339385986328
0.21988831460475922,-0.37142089009284973,9.804421424865723,0.001973884285473317,-0.005370510368456426,0.0004925387374217668,1.20997953414917,2019-07-26 14:46:55:302,-163.41256917683296,-162.83945200547055,0,-23.39047622680664,38.08449172973633,-40.78339385986328
0.21030931174755096,-0.36423665285110474,9.744552612304688,-0.0009563083130638975,-0.00856708389952712,-0.0029704160187660244,1.2199859619140625,2019-07-26 14:46:55:312,-163.71477670434183,-163.13931299225175,0,-23.39047622680664,38.08449172973633,-40.78339385986328
0.19833555817604065,-0.3738156259059906,9.746947288513184,-0.0012226895056717034,-0.007501559389170223,0.0023572067930927925,1.2299699783325195,2019-07-26 14:46:55:322,-164.01296136481596,-163.43191458237456,0,-23.39047622680664,38.08449172973633,-40.78339385986328
0.24623055756092072,-0.37142089009284973,9.814000129699707,-0.0012226895056717034,0.00022349378230200473,0.003156350175860466,1.2399885654449463,2019-07-26 14:46:55:332,-164.30408318651683,-163.71924081459747,0,-23.39047622680664,38.08449172973633,-40.78339385986328
0.2414410561323166,-0.3618418872356415,9.8187894821167,0.0003755974224100973,-0.002706698832489855,-0.00030660471036448813,1.2499635219573975,2019-07-26 14:46:55:342,-164.5883134814907,-164.00285620410236,0,-23.39047622680664,38.08449172973633,-40.78339385986328
0.22228306531906128,-0.3618418872356415,9.845131874084473,0.00010921627043890474,-0.0064360348788133235,-0.0008393669980522279,1.259974718093872,2019-07-26 14:46:55:352,-164.86706129118576,-164.2807631490182,0,-23.39047622680664,38.08449172973633,-40.78339385986328
0.1959408074617386,-0.33071014285087585,9.696657180786133,-0.0012226895056717034,-4.288736560552649e-05,-0.0027040348911768,1.2700235843658447,2019-07-26 14:46:55:362,-165.14654344718267,-164.5553910165727,0,-23.39047622680664,38.08449172973633,-40.78339385986328
0.2079145610332489,-0.3738156259059906,9.811605453491211,0.0003755974224100973,-0.006968797133991773,0.000226157593577897,1.2799899578094482,2019-07-26 14:46:55:372,-165.4154336727729,-164.82085587053393,0,-23.39047622680664,38.08449172973633,-40.78339385986328
0.21270406246185303,-0.3474733829498291,9.773289680480957,-0.000689927185474673,-0.004038604470435978,0.0007589198975202821,1.289987564086914,2019-07-26 14:46:55:382,-165.67992231354685,-165.08332744502076,0,-23.39047622680664,38.08449172973633,-40.78339385986328
0.2150988131761551,-0.3594471514225006,9.845131874084473,-0.002288214016028602,-0.0035058422152575287,0.0004925387374217668,1.2999975681304932,2019-07-26 14:46:55:392,-165.93932111492524,-165.3385558169369,0,-23.39047622680664,38.08449172973633,-40.78339385986328
0.21749356389045715,-0.3402891457080841,9.761316299438477,-0.000689927185474673,-0.006968797133991773,0.0007589198975202821,1.3099913597106934,2019-07-26 14:46:55:402,-166.19109603382873,-165.59146596738412,0,-23.39047622680664,38.08449172973633,-40.78339385986328
0.22228306531906128,-0.32592064142227173,9.7373685836792,0.0027730276682409903,-0.005903272623634875,-0.0008393669980522279,1.319993257522583,2019-07-26 14:46:55:412,-166.43780457238833,-165.842853229147,0,-23.39047622680664,38.08449172973633,-40.78339385986328
0.2558095455169678,-0.33071014285087585,9.773289680480957,0.002506646540651766,-0.003239461087668304,-0.0016385103808199016,1.3299944400787354,2019-07-26 14:46:55:422,-166.6772425590291,-166.0886429236924,0,-23.39047622680664,38.08449172973633,-40.78339385986328
0.20312505960464478,-0.34507864713668823,9.780473709106445,-0.000689927185474673,-0.0024403177049006305,-0.0005729858704630034,1.3399951457977295,2019-07-26 14:46:55:432,-166.91853193198335,-166.32606874942957,0,-23.39047622680664,38.08449172973633,-40.78339385986328
0.1743880659341812,-0.36423665285110474,9.742157936096191,0.003838552178597889,-0.006968797133991773,-0.002171272635998351,1.350010633468628,2019-07-26 14:46:55:442,-167.1557321598415,-166.55888287844945,0,-23.39047622680664,38.08449172973633,-40.78339385986328
0.19833555817604065,-0.3929736316204071,9.787657737731934,0.0006419785825086126,-0.0064360348788133235,-0.002171272635998351,1.3599653244018555,2019-07-26 14:46:55:452,-167.38580258982262,-166.78208034175768,0,-23.39047622680664,38.08449172973633,-40.78339385986328
0.21030931174755096,-0.3163416385650635,9.763710975646973,0.0017075031578840923,-0.004571366985688751,-0.0005729858704630034,1.370020866394043,2019-07-26 14:46:55:462,-167.61082637957495,-167.01028844366343,0,-23.39047622680664,38.08449172973633,-40.78339385986328
0.1624143123626709,-0.33071014285087585,9.864290237426758,0.0006419785825086126,-0.0016411741920957937,-0.0008393669980522279,1.3799924850463867,2019-07-26 14:46:55:472,-167.83882529722544,-167.23203854588021,0,-23.39047622680664,38.08449172973633,-40.78339385986328
0.21988831460475922,-0.31873640418052673,9.804421424865723,0.0006419785825086126,-0.0064360348788133235,0.0004925387374217668,1.3899924755096436,2019-07-26 14:46:55:482,-168.05273929619983,-167.45051826808822,0,-23.39047622680664,38.08449172973633,-40.78339385986328
0.21270406246185303,-0.35705238580703735,9.766105651855469,-0.004685644164331623,-0.0008420308093281202,-0.006433371197574595,1.399991512298584,2019-07-26 14:46:55:492,-168.26625786198161,-167.65700073280044,0,-22.340904235839844,37.63467788696289,-39.733821868896484
0.22228306531906128,-0.3594471514225006,9.797237396240234,-0.0004235460253761578,-0.006702416006402549,-0.0005729858704630034,1.4099977016448975,2019-07-26 14:46:55:502,-168.47117251372484,-167.8615995335246,0,-22.340904235839844,37.63467788696289,-39.733821868896484
0.23665155470371246,-0.3857893943786621,9.802026748657227,-0.0017554517608501525,-0.0056368914960456505,0.000226157593577897,1.4199941158294678,2019-07-26 14:46:55:512,-168.67092448196695,-168.058304389952,0,-22.340904235839844,37.63467788696289,-39.733821868896484
0.21749356389045715,-0.36423665285110474,9.794842720031738,0.001174740902705643,-0.0064360348788133235,-0.0008393669980522279,1.4300198554992676,2019-07-26 14:46:55:522,-168.86844209814197,-168.25520656533448,0,-22.340904235839844,37.63467788696289,-39.733821868896484
0.24383580684661865,-0.3067626357078552,9.782868385314941,0.004371314693850663,-0.010698133440389567,0.0015580632802879558,1.4399585723876953,2019-07-26 14:46:55:532,-169.0565473040553,-168.45662103017824,0,-22.340904235839844,37.63467788696289,-39.733821868896484
0.20312505960464478,-0.328315407037735,9.718210220336914,0.0006419785825086126,-0.0064360348788133235,-0.0008393669980522279,1.4499659538269043,2019-07-26 14:46:55:542,-169.24785201101872,-168.649150994697,0,-22.340904235839844,37.63467788696289,-39.733821868896484
0.21988831460475922,-0.3091574013233185,9.8187894821167,0.004104933306187114,-0.002173936447274243,0.0018244444078771805,1.4599528312683105,2019-07-26 14:46:55:552,-169.43601782504805,-168.84240113295263,0,-22.340904235839844,37.63467788696289,-39.733821868896484
0.21270406246185303,-0.3331048786640167,9.77807903289795,0.001174740902705643,-0.005370510368456426,-0.004302321916786473,1.4699642658233643,2019-07-26 14:46:55:562,-169.61935513818997,-169.02719124321214,0,-22.340904235839844,37.63467788696289,-39.733821868896484
0.16720381379127502,-0.33549964427948,9.775684356689453,-0.0030873573987962753,-0.0037722233428467535,-0.0011057481256414525,1.47996187210083,2019-07-26 14:46:55:572,-169.80525255525973,-169.20560210905876,0,-22.340904235839844,37.63467788696289,-39.733821868896484
0.2150988131761551,-0.3786051273345947,9.802026748657227,-0.002021832888439377,-0.004837748113277977,-0.0008393669980522279,1.4899566173553467,2019-07-26 14:46:55:582,-169.98129023924508,-169.37611619323357,0,-22.340904235839844,37.63467788696289,-39.733821868896484
0.18396706879138947,-0.32352590560913086,9.787657737731934,-0.0009563083130638975,-0.00909984667485422,-0.0016385103808199016,1.4999380111694336,2019-07-26 14:46:55:592,-170.15502850069842,-169.55019404832947,0,-22.340904235839844,37.63467788696289,-39.733821868896484
0.21030931174755096,-0.33789438009262085,9.77807903289795,0.002506646540651766,-0.00909984667485422,0.0007589198975202821,1.5099732875823975,2019-07-26 14:46:55:602,-170.32215752162827,-169.7210197416547,0,-22.340904235839844,37.63467788696289,-39.733821868896484
0.18396706879138947,-0.36423665285110474,9.802026748657227,-0.000689927185474673,-0.008034321644348672,-4.022355432963424e-05,1.5199863910675049,2019-07-26 14:46:55:612,-170.48969287256463,-169.88364958422966,0,-22.340904235839844,37.63467788696289,-39.733821868896484
0.19354607164859772,-0.37142089009284973,9.72060489654541,0.005170458076618337,-0.0008420308093281202,0.006086542839416261,1.5299510955810547,2019-07-26 14:46:55:622,-170.65661467901876,-170.0451058092689,0,-22.340904235839844,37.63467788696289,-39.733821868896484
0.22946731746196747,-0.31155213713645935,9.758920669555664,0.0027730276682409903,-0.007235178261580997,0.0023572067930927925,1.5399742126464844,2019-07-26 14:46:55:632,-170.81247081925466,-170.2091935744697,0,-22.340904235839844,37.63467788696289,-39.733821868896484
0.1815723180770874,-0.32592064142227173,9.74934196472168,0.0017075031578840923,-0.0064360348788133235,-0.0019048915084091261,1.5499510765075684,2019-07-26 14:46:55:642,-170.9712768066687,-170.36767253189416,0,-22.340904235839844,37.63467788696289,-39.733821868896484
0.19115132093429565,-0.31155213713645935,9.77807903289795,0.003838552178597889,-0.0064360348788133235,0.0012916821526987312,1.5599792003631592,2019-07-26 14:46:55:652,-171.12582867193262,-170.52598132066697,0,-22.340904235839844,37.63467788696289,-39.733821868896484
0.2150988131761551,-0.3738156259059906,9.744552612304688,0.0033057899234194394,-0.006968797133991773,0.0015580632802879558,1.5699539184570312,2019-07-26 14:46:55:662,-171.27411847452996,-170.67337570490707,0,-22.340904235839844,37.63467788696289,-39.733821868896484
0.24383580684661865,-0.3546576499938965,9.79963207244873,-0.0033537385263855,-4.288736560552649e-05,0.004754637201470138,1.579967737197876,2019-07-26 14:46:55:672,-171.42010504173848,-170.8165688274904,0,-22.340904235839844,37.63467788696289,-39.733821868896484
0.22228306531906128,-0.32352590560913086,9.79963207244873,0.0009083597100978372,-0.004571366985688751,-0.002171272635998351,1.5899770259857178,2019-07-26 14:46:55:682,-171.56314562597785,-170.9629303460095,0,-22.340904235839844,37.63467788696289,-39.733821868896484
0.2558095455169678,-0.34986814856529236,9.787657737731934,0.0027730276682409903,-0.004837748113277977,0.002623587920682017,1.5999796390533447,2019-07-26 14:46:55:692,-171.69922286066574,-171.10428490317528,0,-22.340904235839844,37.63467788696289,-39.733821868896484
0.2007303088903427,-0.34986814856529236,9.79963207244873,0.003838552178597889,-0.006968797133991773,0.0015580632802879558,1.6099514961242676,2019-07-26 14:46:55:702,-171.837867418709,-171.24345417515528,0,-22.340904235839844,37.63467788696289,-39.733821868896484
0.21030931174755096,-0.3474733829498291,9.773289680480957,0.00010921627043890474,-0.0037722233428467535,0.002090825535466405,1.6199641227722168,2019-07-26 14:46:55:712,-171.97433439237358,-171.37792248621423,0,-22.340904235839844,37.63467788696289,-39.733821868896484
0.2342568039894104,-0.32592064142227173,9.859500885009766,-0.002021832888439377,-0.005903272623634875,0.004488256073880914,1.6299521923065186,2019-07-26 14:46:55:722,-172.1043157204162,-171.5113639584363,0,-22.340904235839844,37.63467788696289,-39.733821868896484
0.1815723180770874,-0.3738156259059906,9.754131317138672,0.0006419785825086126,-0.008833465027116346,0.003156350175860466,1.6399695873260498,2019-07-26 14:46:55:732,-172.23593214240876,-171.637603388405,0,-22.340904235839844,37.63467788696289,-39.733821868896484
0.24862530827522278,-0.33789438009262085,9.751736640930176,-0.0012226895056717034,-0.004304985598025202,-0.0005729858704630034,1.6499407291412354,2019-07-26 14:46:55:742,-172.3595938795495,-171.76447705402848,0,-22.190963745117188,37.484737396240234,-40.78339385986328
0.23904630541801453,-0.3474733829498291,9.744552612304688,0.0017075031578840923,-0.006968797133991773,-0.001372129253230677,1.6599574089050293,2019-07-26 14:46:55:752,-172.48037737081754,-171.88930387002398,0,-22.190963745117188,37.484737396240234,-40.78339385986328
0.19833555817604065,-0.33789438009262085,9.816394805908203,0.00010921627043890474,-0.005903272623634875,0.0004925387374217668,1.6699845790863037,2019-07-26 14:46:55:762,-172.60429661154427,-172.0121507940219,0,-22.190963745117188,37.484737396240234,-40.78339385986328
0.22228306531906128,-0.36423665285110474,9.828369140625,-0.002554595143617826,-0.004038604470435978,0.0015580632802879558,1.6799750328063965,2019-07-26 14:46:55:772,-172.72403301930228,-172.12802685552413,0,-22.190963745117188,37.484737396240234,-40.78339385986328
0.1552300751209259,-0.36423665285110474,9.746947288513184,0.001973884285473317,-0.0064360348788133235,-0.00030660471036448813,1.6899492740631104,2019-07-26 14:46:55:782,-172.84769951123377,-172.24376964331861,0,-22.190963745117188,37.484737396240234,-40.78339385986328
0.2150988131761551,-0.36423665285110474,9.787657737731934,-0.0012226895056717034,-0.0016411741920957937,-0.0032367971463552496,1.6999621391296387,2019-07-26 14:46:55:792,-172.96464361617143,-172.35558254051833,0,-22.190963745117188,37.484737396240234,-40.78339385986328
0.1959408074617386,-0.34986814856529236,9.775684356689453,0.0017075031578840923,-0.01096451404783014,-0.001372129253230677,1.7099590301513672,2019-07-26 14:46:55:802,-173.07623079401455,-172.46843495195108,0,-22.190963745117188,37.484737396240234,-40.78339385986328
0.2007303088903427,-0.3594471514225006,9.821184158325195,-0.002820976271207051,-0.007767940516759447,-0.00030660471036448813,1.719982624053955,2019-07-26 14:46:55:812,-173.1869166595255,-172.57555769716765,0,-22.190963745117188,37.484737396240234,-40.78339385986328
0.2079145610332489,-0.31873640418052673,9.732579231262207,0.0027730276682409903,-0.004038604470435978,0.0007589198975202821,1.7299540042877197,2019-07-26 14:46:55:822,-173.29644097137864,-172.68808446593582,0,-22.190963745117188,37.484737396240234,-40.78339385986328
0.16001957654953003,-0.3666313886642456,9.792448043823242,0.005170458076618337,-0.005903272623634875,0.004754637201470138,1.7399706840515137,2019-07-26 14:46:55:832,-173.4084680650032,-172.79434752488118,0,-22.190963745117188,37.484737396240234,-40.78339385986328
0.17917756736278534,-0.3666313886642456,9.8187894821167,-0.0036201196539747244,-0.004571366985688751,-0.0019048915084091261,1.7499802112579346,2019-07-26 14:46:55:842,-173.51682059345057,-172.89365758472283,0,-22.190963745117188,37.484737396240234,-40.78339385986328
0.2007303088903427,-0.37621039152145386,9.809210777282715,0.002240265413062541,-0.007501559389170223,-0.0005729858704630034,1.7599782943725586,2019-07-26 14:46:55:852,-173.61882675785827,-172.99311459208903,0,-22.190963745117188,37.484737396240234,-40.78339385986328
0.18636181950569153,-0.33789438009262085,9.804421424865723,0.0033057899234194394,-0.0013747930645065694,-4.022355432963424e-05,1.7699499130249023,2019-07-26 14:46:55:862,-173.7239016010772,-173.09562662574683,0,-22.190963745117188,37.484737396240234,-40.78339385986328
0.2007303088903427,-0.3738156259059906,9.785263061523438,-0.002021832888439377,-0.0056368914960456505,0.002090825535466405,1.7799651622772217,2019-07-26 14:46:55:872,-173.82275015566546,-173.18882223140182,0,-22.190963745117188,37.484737396240234,-40.78339385986328
0.2342568039894104,-0.33789438009262085,9.816394805908203,-0.0036201196539747244,-0.003239461087668304,0.0015580632802879558,1.7899508476257324,2019-07-26 14:46:55:882,-173.91713805455842,-173.28358751423295,0,-22.190963745117188,37.484737396240234,-40.78339385986328
0.1815723180770874,-0.342683881521225,9.739763259887695,-0.001489070633260928,-0.005370510368456426,-0.003503178534018799,1.7999649047851562,2019-07-26 14:46:55:892,-174.01441540644285,-173.37677720170763,0,-22.190963745117188,37.484737396240234,-40.78339385986328
0.17199331521987915,-0.3163416385650635,9.797237396240234,0.0017075031578840923,-0.0064360348788133235,-0.001372129253230677,1.8099744319915771,2019-07-26 14:46:55:902,-174.1103950195614,-173.47321387278785,0,-22.190963745117188,37.484737396240234,-40.78339385986328
0.21988831460475922,-0.35705238580703735,9.79005241394043,0.00010921627043890474,-0.0011084119369173448,0.0004925387374217668,1.819953203201294,2019-07-26 14:46:55:912,-174.2018326936271,-173.5620366896043,0,-22.190963745117188,37.484737396240234,-40.78339385986328
0.2270725667476654,-0.33549964427948,9.849921226501465,-0.002021832888439377,-0.0016411741920957937,0.0004925387374217668,1.8299775123596191,2019-07-26 14:46:55:922,-174.29045989737043,-173.65064182056238,0,-22.190963745117188,37.484737396240234,-40.78339385986328
0.1959408074617386,-0.3618418872356415,9.754131317138672,0.0035721710510086637,-0.004837748113277977,0.000226157593577897,1.8399510383605957,2019-07-26 14:46:55:932,-174.37892546639472,-173.73713973268448,0,-22.190963745117188,37.484737396240234,-40.78339385986328
0.2534148097038269,-0.342683881521225,9.792448043823242,0.002506646540651766,-0.01096451404783014,0.0023572067930927925,1.849959373474121,2019-07-26 14:46:55:942,-174.45553719610692,-173.82372096339938,0,-22.190963745117188,37.484737396240234,-40.78339385986328
0.22228306531906128,-0.3402891457080841,9.825974464416504,0.002506646540651766,-0.0061696537512241,0.0010253010251095067,1.8599543571472168,2019-07-26 14:46:55:952,-174.53704547103638,-173.90898428861522,0,-22.190963745117188,37.484737396240234,-40.78339385986328
0.22467781603336334,-0.3594471514225006,9.773289680480957,0.004104933306187114,-0.0035058422152575287,-0.0032367971463552496,1.869964599609375,2019-07-26 14:46:55:962,-174.61799524543312,-173.99098578338308,0,-22.190963745117188,37.484737396240234,-40.78339385986328
0.21988831460475922,-0.3331048786640167,9.797237396240234,-0.0004235460253761578,-0.010698133440389567,-0.001372129253230677,1.8799681663513184,2019-07-26 14:46:55:972,-174.69391170135077,-174.07198217427634,0,-22.190963745117188,37.484737396240234,-40.78339385986328
0.23186205327510834,-0.3474733829498291,9.821184158325195,-0.000689927185474673,-0.009366227282294795,0.0015580632802879558,1.889993667602539,2019-07-26 14:46:55:982,-174.76771276839716,-174.1496285728349,0,-22.190963745117188,37.484737396240234,-40.78339385986328
0.18396706879138947,-0.39057889580726624,9.782868385314941,0.0017075031578840923,-0.0037722233428467535,-0.001372129253230677,1.8999526500701904,2019-07-26 14:46:55:992,-174.8487026727698,-174.22186468371552,0,-22.790719985961914,37.484737396240234,-39.58388137817383
0.22946731746196747,-0.328315407037735,9.785263061523438,-0.002288214016028602,-0.0061696537512241,0.0050210183290593634,1.9099740982055664,2019-07-26 14:46:56:002,-174.92138980108047,-174.29770643248958,0,-22.790719985961914,37.484737396240234,-39.58388137817383
0.20312505960464478,-0.3546576499938965,9.804421424865723,-0.0009563083130638975,-0.007235178261580997,0.005553780584237813,1.9199497699737549,2019-07-26 14:46:56:012,-174.99517200640145,-174.36978323490155,0,-22.790719985961914,37.484737396240234,-39.58388137817383
0.19833555817604065,-0.3546576499938965,9.79005241394043,0.0014411220302948675,-0.006702416006402549,-0.0008393669980522279,1.9299688339233398,2019-07-26 14:46:56:022,-175.0682861958965,-174.4417041320811,0,-22.790719985961914,37.484737396240234,-39.58388137817383
0.22228306531906128,-0.3546576499938965,9.703842163085938,0.003838552178597889,-0.0064360348788133235,-0.002171272635998351,1.9399490356445312,2019-07-26 14:46:56:032,-175.13706923937156,-174.51315864187455,0,-22.790719985961914,37.484737396240234,-39.58388137817383
0.2150988131761551,-0.3666313886642456,9.787657737731934,-0.0009563083130638975,-0.0056368914960456505,0.002623587920682017,1.9499564170837402,2019-07-26 14:46:56:042,-175.205981209151,-174.5794538390003,0,-22.790719985961914,37.484737396240234,-39.58388137817383
0.2534148097038269,-0.34507864713668823,9.780473709106445,0.00010921627043890474,-0.0016411741920957937,-0.0019048915084091261,1.9599616527557373,2019-07-26 14:46:56:052,-175.2712552335257,-174.64751222384106,0,-22.790719985961914,37.484737396240234,-39.58388137817383
0.22467781603336334,-0.3474733829498291,9.825974464416504,0.001973884285473317,-0.006702416006402549,0.000226157593577897,1.9699742794036865,2019-07-26 14:46:56:062,-175.3358643787516,-174.71516587563264,0,-22.790719985961914,37.484737396240234,-39.58388137817383
0.22228306531906128,-0.388184130191803,9.756525993347168,0.0009083597100978372,-0.0064360348788133235,-0.0005729858704630034,1.9799678325653076,2019-07-26 14:46:56:072,-175.39943270128626,-174.77580361908323,0,-22.790719985961914,37.484737396240234,-39.58388137817383
0.2414410561323166,-0.38339462876319885,9.821184158325195,0.0014411220302948675,-0.004038604470435978,0.0023572067930927925,1.9899954795837402,2019-07-26 14:46:56:082,-175.46100493355453,-174.8363879771972,0,-22.790719985961914,37.484737396240234,-39.58388137817383
0.24383580684661865,-0.3402891457080841,9.833158493041992,0.002506646540651766,-0.005903272623634875,0.0018244444078771805,1.9999537467956543,2019-07-26 14:46:56:092,-175.52007419491835,-174.9014217531316,0,-22.790719985961914,37.484737396240234,-39.58388137817383
0.24383580684661865,-0.3331048786640167,9.842737197875977,0.0009083597100978372,-0.008034321644348672,-0.0016385103808199016,2.0099587440490723,2019-07-26 14:46:56:102,-175.57677703884323,-174.96513752469568,0,-22.790719985961914,37.484737396240234,-39.58388137817383
0.20312505960464478,-0.35705238580703735,9.811605453491211,0.0009083597100978372,-0.006702416006402549,-0.0019048915084091261,2.019958734512329,2019-07-26 14:46:56:112,-175.63775814027508,-175.0246623997952,0,-22.790719985961914,37.484737396240234,-39.58388137817383
0.21270406246185303,-0.3666313886642456,9.770895004272461,0.001973884285473317,-0.007235178261580997,-0.004568702784301372,2.029981851577759,2019-07-26 14:46:56:122,-175.69598937629968,-175.08230224274263,0,-22.790719985961914,37.484737396240234,-39.58388137817383
0.2150988131761551,-0.35705238580703735,9.775684356689453,0.0014411220302948675,-0.0016411741920957937,-0.004302321916786473,2.039976119995117,2019-07-26 14:46:56:132,-175.75593856778954,-175.1396294777948,0,-22.790719985961914,37.484737396240234,-39.58388137817383
0.19833555817604065,-0.32592064142227173,9.785263061523438,-0.00015716488153228781,-0.004304985598025202,-0.0024376537635875752,2.0499794483184814,2019-07-26 14:46:56:142,-175.81517859215464,-175.1985953672182,0,-22.790719985961914,37.484737396240234,-39.58388137817383
0.19115132093429565,-0.31155213713645935,9.718210220336914,-0.001489070633260928,-0.0061696537512241,-0.0011057481256414525,2.0599520206451416,2019-07-26 14:46:56:152,-175.87288370879673,-175.25706577911706,0,-22.790719985961914,37.484737396240234,-39.58388137817383
0.17917756736278534,-0.380999892950058,9.849921226501465,0.0035721710510086637,-0.007235178261580997,0.0004925387374217668,2.069967746734619,2019-07-26 14:46:56:162,-175.9305143247155,-175.30963088333047,0,-22.790719985961914,37.484737396240234,-39.58388137817383
0.2558095455169678,-0.3786051273345947,9.825974464416504,0.0003755974224100973,-0.0064360348788133235,0.003156350175860466,2.0799505710601807,2019-07-26 14:46:56:172,-175.97847037635535,-175.35951729953007,0,-22.790719985961914,37.484737396240234,-39.58388137817383
0.22467781603336334,-0.3690261244773865,9.722999572753906,-0.0030873573987962753,-0.0035058422152575287,0.0018244444078771805,2.0899813175201416,2019-07-26 14:46:56:182,-176.03045143312931,-175.4071169324757,0,-22.790719985961914,37.484737396240234,-39.58388137817383
0.21749356389045715,-0.37621039152145386,9.761316299438477,0.0033057899234194394,-0.008034321644348672,0.000226157593577897,2.099977731704712,2019-07-26 14:46:56:192,-176.0798046434248,-175.45668729870494,0,-22.790719985961914,37.484737396240234,-39.58388137817383
0.22228306531906128,-0.3402891457080841,9.787657737731934,0.0035721710510086637,-0.002973079960079079,-0.0005729858704630034,2.109950304031372,2019-07-26 14:46:56:202,-176.13052385136194,-175.50972962089742,0,-22.790719985961914,37.484737396240234,-39.58388137817383
0.20551981031894684,-0.3546576499938965,9.804421424865723,-0.0004235460253761578,-0.004304985598025202,0.0028899690482712416,2.119981288909912,2019-07-26 14:46:56:212,-176.1814715308162,-175.55786306161392,0,-22.790719985961914,37.484737396240234,-39.58388137817383
0.25102004408836365,-0.31155213713645935,9.77807903289795,-0.0009563083130638975,-0.005370510368456426,0.000226157593577897,2.1299550533294678,2019-07-26 14:46:56:222,-176.22542332044662,-175.60967107925973,0,-22.790719985961914,37.484737396240234,-39.58388137817383
0.2007303088903427,-0.3618418872356415,9.732579231262207,0.002506646540651766,-0.006968797133991773,-0.003503178534018799,2.139972686767578,2019-07-26 14:46:56:232,-176.27336431238632,-175.65630390373036,0,-22.790719985961914,37.484737396240234,-39.58388137817383
0.24862530827522278,-0.3738156259059906,9.814000129699707,0.0006419785825086126,-0.007767940516759447,-0.0005729858704630034,2.1499791145324707,2019-07-26 14:46:56:242,-176.31450841730162,-175.69991165101823,0,-23.240537643432617,37.93455505371094,-40.03369903564453
0.2558095455169678,-0.3594471514225006,9.782868385314941,-0.0033537385263855,-0.008300702771937896,-0.0029704160187660244,2.1599984169006348,2019-07-26 14:46:56:252,-176.3535910128778,-175.7419417786338,0,-23.240537643432617,37.93455505371094,-40.03369903564453
0.1887565702199936,-0.37142089009284973,9.727788925170898,-0.00015716488153228781,-0.0064360348788133235,-0.005634227814806921,2.169976234436035,2019-07-26 14:46:56:262,-176.40068099833485,-175.7832834378974,0,-23.240537643432617,37.93455505371094,-40.03369903564453
0.19115132093429565,-0.380999892950058,9.74934196472168,-0.0012226895056717034,-0.004571366985688751,-0.0029704160187660244,2.1799685955047607,2019-07-26 14:46:56:272,-176.44763790744975,-175.82217266618747,0,-23.240537643432617,37.93455505371094,-40.03369903564453
0.21270406246185303,-0.37142089009284973,9.785263061523438,0.0014411220302948675,-0.005370510368456426,0.002090825535466405,2.1900105476379395,2019-07-26 14:46:56:282,-176.49075190842836,-175.86306695390525,0,-23.240537643432617,37.93455505371094,-40.03369903564453
0.20312505960464478,-0.35705238580703735,9.825974464416504,-0.0036201196539747244,-0.0016411741920957937,-0.0016385103808199016,2.1999611854553223,2019-07-26 14:46:56:292,-176.53633461507712,-175.90216144035418,0,-23.240537643432617,37.93455505371094,-40.03369903564453
0.19833555817604065,-0.33789438009262085,9.787657737731934,-0.004152881909153174,-0.006702416006402549,0.0007589198975202821,2.2099928855895996,2019-07-26 14:46:56:302,-176.57861511938933,-175.94223481970866,0,-23.240537643432617,37.93455505371094,-40.03369903564453
0.21749356389045715,-0.328315407037735,9.811605453491211,-0.002288214016028602,-0.004304985598025202,0.002623587920682017,2.219967842102051,2019-07-26 14:46:56:312,-176.61923430985797,-175.98377824876505,0,-23.240537643432617,37.93455505371094,-40.03369903564453
0.2749675512313843,-0.36423665285110474,9.751736640930176,-0.0004235460253761578,-0.002706698832489855,0.003156350175860466,2.229973316192627,2019-07-26 14:46:56:322,-176.6530264157104,-176.02108358139012,0,-23.240537643432617,37.93455505371094,-40.03369903564453
0.1815723180770874,-0.342683881521225,9.751736640930176,0.002240265413062541,-0.0037722233428467535,-0.0005729858704630034,2.2399725914001465,2019-07-26 14:46:56:332,-176.69651404918423,-176.06166789080936,0,-23.240537643432617,37.93455505371094,-40.03369903564453
0.21030931174755096,-0.3594471514225006,9.79005241394043,0.002506646540651766,-0.004571366985688751,0.000226157593577897,2.249985694885254,2019-07-26 14:46:56:342,-176.73540088484904,-176.09978982556015,0,-23.240537643432617,37.93455505371094,-40.03369903564453
0.1887565702199936,-0.3618418872356415,9.792448043823242,0.0009083597100978372,-0.006702416006402549,0.003156350175860466,2.2599639892578125,2019-07-26 14:46:56:352,-176.77485201559008,-176.13597936004498,0,-23.240537643432617,37.93455505371094,-40.03369903564453
0.23186205327510834,-0.3163416385650635,9.7373685836792,0.0014411220302948675,-0.009898989537473243,0.0010253010251095067,2.269967794418335,2019-07-26 14:46:56:362,-176.8065136947389,-176.17685455709255,0,-23.240537643432617,37.93455505371094,-40.03369903564453
0.2079145610332489,-0.3139469027519226,9.727788925170898,0.004637695821439887,-0.005370510368456426,0.004754637201470138,2.2799606323242188,2019-07-26 14:46:56:372,-176.84288182300892,-176.21895012655523,0,-23.240537643432617,37.93455505371094,-40.03369903564453
0.1743880659341812,-0.3402891457080841,9.8187894821167,0.0017075031578840923,-0.0035058422152575287,0.003156350175860466,2.2899768352508545,2019-07-26 14:46:56:382,-176.8837024072056,-176.25583340516036,0,-23.240537643432617,37.93455505371094,-40.03369903564453
0.24862530827522278,-0.2756308913230896,9.732579231262207,0.003039408795830215,-0.008300702771937896,0.000226157593577897,2.2999460697174072,2019-07-26 14:46:56:392,-176.91211504275478,-176.2999739528837,0,-23.240537643432617,37.93455505371094,-40.03369903564453
0.21749356389045715,-0.3331048786640167,9.79963207244873,0.0009083597100978372,-0.007235178261580997,0.0007589198975202821,2.309987783432007,2019-07-26 14:46:56:402,-176.94436491481054,-176.33555016571597,0,-23.240537643432617,37.93455505371094,-40.03369903564453
0.19354607164859772,-0.3522628843784332,9.780473709106445,0.004104933306187114,-0.002973079960079079,0.0034227313034496903,2.319962501525879,2019-07-26 14:46:56:412,-176.98113885994886,-176.36988369160775,0,-23.240537643432617,37.93455505371094,-40.03369903564453
0.22228306531906128,-0.33549964427948,9.74934196472168,-0.001489070633260928,-0.004304985598025202,0.0076848296049516086,2.329989433288574,2019-07-26 14:46:56:422,-177.01297020643062,-176.40222934106066,0,-23.240537643432617,37.93455505371094,-40.03369903564453
0.19354607164859772,-0.36423665285110474,9.8187894821167,-0.0033537385263855,-0.0056368914960456505,0.0007589198975202821,2.3399648666381836,2019-07-26 14:46:56:432,-177.04696833029377,-176.4298169944077,0,-23.240537643432617,37.93455505371094,-40.03369903564453
0.21988831460475922,-0.35705238580703735,9.816394805908203,-0.0030873573987962753,-0.007767940516759447,-0.0005729858704630034,2.3499631881713867,2019-07-26 14:46:56:442,-177.07600366542803,-176.4578253004977,0,-23.240537643432617,37.93455505371094,-40.03369903564453
0.2079145610332489,-0.32352590560913086,9.787657737731934,0.0006419785825086126,-0.003239461087668304,0.0028899690482712416,2.3599746227264404,2019-07-26 14:46:56:452,-177.10832407946094,-176.4911658224582,0,-23.240537643432617,37.93455505371094,-40.03369903564453
0.22228306531906128,-0.37142089009284973,9.770895004272461,-0.002554595143617826,-0.008300702771937896,0.005820161711827037,2.3699491024017334,2019-07-26 14:46:56:462,-177.1354441378095,-176.51637305512102,0,-23.240537643432617,37.93455505371094,-40.03369903564453
0.1959408074617386,-0.33789438009262085,9.758920669555664,0.001174740902705643,-0.002973079960079079,-0.0019048915084091261,2.379992723464966,2019-07-26 14:46:56:472,-177.1680538497394,-176.54704757164973,0,-23.240537643432617,37.93455505371094,-40.03369903564453
0.2007303088903427,-0.34986814856529236,9.787657737731934,-0.0036201196539747244,-0.003239461087668304,-0.0037695596616080236,2.389951705932617,2019-07-26 14:46:56:482,-177.19938354953038,-176.5731379715149,0,-23.240537643432617,37.93455505371094,-40.03369903564453
0.19354607164859772,-0.34507864713668823,9.833158493041992,-0.005484787547099296,-0.004837748113277977,-0.0008393669980522279,2.3999812602996826,2019-07-26 14:46:56:492,-177.23011931544733,-176.59838886853117,0,-23.990232467651367,36.88498306274414,-39.58388137817383
0.19115132093429565,-0.3618418872356415,9.794842720031738,-0.000689927185474673,-0.0061696537512241,0.0018244444078771805,2.409978151321411,2019-07-26 14:46:56:502,-177.25969346873086,-176.62372055177258,0,-23.990232467651367,36.88498306274414,-39.58388137817383
0.18636181950569153,-0.34507864713668823,9.754131317138672,0.00010921627043890474,-0.0035058422152575287,-0.0019048915084091261,2.4199512004852295,2019-07-26 14:46:56:512,-177.29064525129363,-176.6507843524612,0,-23.990232467651367,36.88498306274414,-39.58388137817383
0.19833555817604065,-0.3594471514225006,9.77807903289795,-0.00015716488153228781,-0.005903272623634875,-0.0032367971463552496,2.42997145652771,2019-07-26 14:46:56:522,-177.31827073875456,-176.6755747590665,0,-23.990232467651367,36.88498306274414,-39.58388137817383
0.1815723180770874,-0.38339462876319885,9.804421424865723,-0.000689927185474673,-0.0064360348788133235,0.0007589198975202821,2.4399759769439697,2019-07-26 14:46:56:532,-177.34707058507763,-176.69688833571487,0,-23.990232467651367,36.88498306274414,-39.58388137817383
0.17917756736278534,-0.3666313886642456,9.804421424865723,0.00010921627043890474,-0.002706698832489855,0.0028899690482712416,2.4499499797821045,2019-07-26 14:46:56:542,-177.37767383386728,-176.72018075623572,0,-23.990232467651367,36.88498306274414,-39.58388137817383
0.19833555817604065,-0.3402891457080841,9.761316299438477,0.0017075031578840923,-0.005370510368456426,0.0007589198975202821,2.45995831489563,2019-07-26 14:46:56:552,-177.4038221971497,-176.74680512040038,0,-23.990232467651367,36.88498306274414,-39.58388137817383
0.19833555817604065,-0.38339462876319885,9.756525993347168,-0.001489070633260928,-0.004571366985688751,0.006619305094594711,2.469939708709717,2019-07-26 14:46:56:562,-177.4298921734022,-176.76602746404103,0,-23.990232467651367,36.88498306274414,-39.58388137817383
0.22467781603336334,-0.33789438009262085,9.7373685836792,0.001174740902705643,-0.0056368914960456505,-0.0008393669980522279,2.4799673557281494,2019-07-26 14:46:56:572,-177.45168456897852,-176.79162012691896,0,-23.990232467651367,36.88498306274414,-39.58388137817383
0.21988831460475922,-0.33789438009262085,9.742157936096191,-0.0030873573987962753,-0.003239461087668304,-0.0005729858704630034,2.489980936050415,2019-07-26 14:46:56:582,-177.47496961165135,-176.8143231212988,0,-23.990232467651367,36.88498306274414,-39.58388137817383
0.22228306531906128,-0.32352590560913086,9.792448043823242,0.001174740902705643,-0.0013747930645065694,0.0010253010251095067,2.4999592304229736,2019-07-26 14:46:56:592,-177.49869277711142,-176.84084949715472,0,-23.990232467651367,36.88498306274414,-39.58388137817383
0.22228306531906128,-0.36423665285110474,9.830763816833496,0.001973884285473317,-0.00856708389952712,0.000226157593577897,2.5099472999572754,2019-07-26 14:46:56:602,-177.51800841056917,-176.86270195844907,0,-23.990232467651367,36.88498306274414,-39.58388137817383
0.21988831460475922,-0.3402891457080841,9.835553169250488,0.0027730276682409903,-0.005104129240867201,-0.002171272635998351,2.519967555999756,2019-07-26 14:46:56:612,-177.539162107201,-176.8873776986991,0,-23.990232467651367,36.88498306274414,-39.58388137817383
0.20312505960464478,-0.3522628843784332,9.756525993347168,0.0049040769490291125,-0.0037722233428467535,0.0007589198975202821,2.5299863815307617,2019-07-26 14:46:56:622,-177.56240294540208,-176.91103323023998,0,-23.39047622680664,36.58510208129883,-40.18363952636719
0.2414410561323166,-0.39536839723587036,9.74934196472168,-0.002288214016028602,-0.0016411741920957937,-0.00030660471036448813,2.5399887561798096,2019-07-26 14:46:56:632,-177.58186051461772,-176.92508217456972,0,-23.39047622680664,36.58510208129883,-40.18363952636719
0.20312505960464478,-0.37621039152145386,9.758920669555664,0.001174740902705643,-0.009898989537473243,-4.022355432963424e-05,2.5499536991119385,2019-07-26 14:46:56:642,-177.60083653852612,-176.94308418250594,0,-23.39047622680664,36.58510208129883,-40.18363952636719
0.2414410561323166,-0.37621039152145386,9.74934196472168,-0.004419263036742399,-0.006968797133991773,-0.003503178534018799,2.5599634647369385,2019-07-26 14:46:56:652,-177.61653038041518,-176.95754167598193,0,-23.39047622680664,36.58510208129883,-40.18363952636719
0.23665155470371246,-0.328315407037735,9.806816101074219,0.0027730276682409903,-0.002706698832489855,-0.0024376537635875752,2.569995164871216,2019-07-26 14:46:56:662,-177.63502804111934,-176.9816038610734,0,-23.39047622680664,36.58510208129883,-40.18363952636719
0.22228306531906128,-0.34986814856529236,9.835553169250488,0.0006419785825086126,-0.002973079960079079,0.0050210183290593634,2.579987049102783,2019-07-26 14:46:56:672,-177.65476622106027,-177.00158688219696,0,-23.39047622680664,36.58510208129883,-40.18363952636719
0.25102004408836365,-0.3331048786640167,9.758920669555664,0.00010921627043890474,-0.0016411741920957937,-0.0037695596616080236,2.5899770259857178,2019-07-26 14:46:56:682,-177.6712814327912,-177.02251762346071,0,-23.39047622680664,36.58510208129883,-40.18363952636719
0.23186205327510834,-0.35705238580703735,9.773289680480957,-0.0017554517608501525,-0.002173936447274243,-0.0005729858704630034,2.5999534130096436,2019-07-26 14:46:56:692,-177.6894573592555,-177.03923822883294,0,-23.39047622680664,36.58510208129883,-40.18363952636719
0.24862530827522278,-0.37142089009284973,9.8187894821167,0.0009083597100978372,-0.005903272623634875,-0.001372129253230677,2.6099586486816406,2019-07-26 14:46:56:702,-177.70334183101772,-177.0556372362018,0,-23.39047622680664,36.58510208129883,-40.18363952636719
0.2270725667476654,-0.33549964427948,9.7373685836792,-0.002288214016028602,-0.0064360348788133235,-0.0032367971463552496,2.6199686527252197,2019-07-26 14:46:56:712,-177.71893998268618,-177.0737716315602,0,-23.39047622680664,36.58510208129883,-40.18363952636719
0.25102004408836365,-0.34986814856529236,9.785263061523438,0.001174740902705643,-0.004837748113277977,0.006352923967005486,2.629978895187378,2019-07-26 14:46:56:722,-177.73245243814424,-177.09200218444164,0,-23.39047622680664,36.58510208129883,-40.18363952636719
0.2749675512313843,-0.3163416385650635,9.722999572753906,0.0049040769490291125,-0.005370510368456426,-0.0011057481256414525,2.639953851699829,2019-07-26 14:46:56:732,-177.74239741686918,-177.11563920697097,0,-23.39047622680664,36.58510208129883,-40.18363952636719
0.2342568039894104,-0.35705238580703735,9.780473709106445,-0.0033537385263855,0.00022349378230200473,0.0015580632802879558,2.6499757766723633,2019-07-26 14:46:56:742,-177.76023410932234,-177.12962419812825,0,-23.990232467651367,36.88498306274414,-39.58388137817383
0.21270406246185303,-0.34986814856529236,9.74934196472168,-0.0004235460253761578,-0.004837748113277977,-0.0005729858704630034,2.659977436065674,2019-07-26 14:46:56:752,-177.77731579887714,-177.14568878318713,0,-23.990232467651367,36.88498306274414,-39.58388137817383
0.22228306531906128,-0.3211311399936676,9.739763259887695,-0.000689927185474673,-0.0011084119369173448,0.000226157593577897,2.6699650287628174,2019-07-26 14:46:56:762,-177.7950000793492,-177.1646196287258,0,-23.990232467651367,36.88498306274414,-39.58388137817383
0.23186205327510834,-0.380999892950058,9.761316299438477,0.002506646540651766,-0.004571366985688751,0.002623587920682017,2.6799371242523193,2019-07-26 14:46:56:772,-177.80932643142995,-177.17802654920743,0,-23.990232467651367,36.88498306274414,-39.58388137817383
0.2342568039894104,-0.3738156259059906,9.782868385314941,0.001174740902705643,-0.007235178261580997,0.002623587920682017,2.68998384475708,2019-07-26 14:46:56:782,-177.82162396838845,-177.19136314114292,0,-23.990232467651367,36.88498306274414,-39.58388137817383
0.20551981031894684,-0.3546576499938965,9.758920669555664,-0.002820976271207051,-0.0035058422152575287,-0.002171272635998351,2.699953317642212,2019-07-26 14:46:56:792,-177.83909991633092,-177.20433031707103,0,-23.990232467651367,36.88498306274414,-39.58388137817383
0.25102004408836365,-0.3091574013233185,9.782868385314941,0.005703220331796786,-0.005104129240867201,-0.0016385103808199016,2.7099642753601074,2019-07-26 14:46:56:802,-177.85005205138515,-177.2272484879919,0,-23.990232467651367,36.88498306274414,-39.58388137817383
0.20551981031894684,-0.34986814856529236,9.763710975646973,-0.002554595143617826,-0.0024403177049006305,-4.022355432963424e-05,2.719978094100952,2019-07-26 14:46:56:812,-177.86756166018304,-177.24022250492226,0,-23.990232467651367,36.88498306274414,-39.58388137817383
0.21749356389045715,-0.3331048786640167,9.715815544128418,0.0006419785825086126,-0.0035058422152575287,-0.0016385103808199016,2.729975700378418,2019-07-26 14:46:56:822,-177.88259474200197,-177.25650632430182,0,-23.990232467651367,36.88498306274414,-39.58388137817383
0.20551981031894684,-0.3474733829498291,9.775684356689453,0.003039408795830215,-0.0016411741920957937,-0.0005729858704630034,2.7399585247039795,2019-07-26 14:46:56:832,-177.89993522161268,-177.27236585028015,0,-23.990232467651367,36.88498306274414,-39.58388137817383
0.19833555817604065,-0.3857893943786621,9.828369140625,-0.00015716488153228781,-0.003239461087668304,-0.001372129253230677,2.7499773502349854,2019-07-26 14:46:56:842,-177.91699281007274,-177.2818729919979,0,-23.990232467651367,36.88498306274414,-39.58388137817383
0.19354607164859772,-0.3690261244773865,9.722999572753906,0.002240265413062541,-0.004571366985688751,0.0034227313034496903,2.7599527835845947,2019-07-26 14:46:56:852,-177.93328485480615,-177.29401920384296,0,-23.990232467651367,36.88498306274414,-39.58388137817383
0.21270406246185303,-0.3666313886642456,9.835553169250488,0.0003755974224100973,-0.005104129240867201,-0.0029704160187660244,2.7699713706970215,2019-07-26 14:46:56:862,-177.9469701153938,-177.30565457515576,0,-23.990232467651367,36.88498306274414,-39.58388137817383
0.2079145610332489,-0.33549964427948,9.727788925170898,0.0033057899234194394,-0.0016411741920957937,-0.004568702784301372,2.779977321624756,2019-07-26 14:46:56:872,-177.9626204242968,-177.3218932043021,0,-23.240537643432617,37.33479690551758,-40.03369903564453
0.19115132093429565,-0.3594471514225006,9.823579788208008,0.005170458076618337,-0.0008420308093281202,0.003156350175860466,2.789976119995117,2019-07-26 14:46:56:882,-177.98060038257458,-177.33644756626188,0,-23.240537643432617,37.33479690551758,-40.03369903564453
0.2079145610332489,-0.33789438009262085,9.734973907470703,0.002240265413062541,-0.002173936447274243,-0.007232514580342268,2.799960136413574,2019-07-26 14:46:56:892,-177.99529950854702,-177.35121651373382,0,-23.240537643432617,37.33479690551758,-40.03369903564453
0.18636181950569153,-0.30436789989471436,9.773289680480957,0.0006419785825086126,-0.008034321644348672,-0.003503178534018799,2.809980630874634,2019-07-26 14:46:56:902,-178.00902478663332,-177.36887786843235,0,-23.240537643432617,37.33479690551758,-40.03369903564453
0.17678281664848328,-0.3666313886642456,9.773289680480957,0.0009083597100978372,-0.009366227282294795,-4.022355432963424e-05,2.8199527263641357,2019-07-26 14:46:56:912,-178.02287436476539,-177.379041646679,0,-23.240537643432617,37.33479690551758,-40.03369903564453
0.23186205327510834,-0.342683881521225,9.79963207244873,-0.0009563083130638975,-0.0035058422152575287,-0.0024376537635875752,2.829965829849243,2019-07-26 14:46:56:922,-178.03333814456863,-177.39086787968054,0,-23.240537643432617,37.33479690551758,-40.03369903564453
0.23665155470371246,-0.37621039152145386,9.806816101074219,0.0003755974224100973,-0.0035058422152575287,-0.005101465039479822,2.839977741241455,2019-07-26 14:46:56:932,-178.0430534050905,-177.39932344901894,0,-23.240537643432617,37.33479690551758,-40.03369903564453
0.2007303088903427,-0.3546576499938965,9.77807903289795,-0.001489070633260928,-0.006702416006402549,-0.0029704160187660244,2.849973201751709,2019-07-26 14:46:56:942,-178.0549099046411,-177.4089563139945,0,-23.240537643432617,37.33479690551758,-40.03369903564453
0.22228306531906128,-0.3474733829498291,9.802026748657227,0.002506646540651766,-0.006968797133991773,-0.0005729858704630034,2.859954595565796,2019-07-26 14:46:56:952,-178.06392424949192,-177.42157733234805,0,-23.240537643432617,37.33479690551758,-40.03369903564453
0.2270725667476654,-0.3522628843784332,9.770895004272461,0.00010921627043890474,-0.006702416006402549,-0.001372129253230677,2.8700790405273438,2019-07-26 14:46:56:962,-178.07220960357068,-177.431912907541,0,-23.240537643432617,37.33479690551758,-40.03369903564453
0.22467781603336334,-0.3331048786640167,9.806816101074219,0.004637695821439887,-0.006968797133991773,0.0028899690482712416,2.87996244430542,2019-07-26 14:46:56:972,-178.08064930328936,-177.4469403696727,0,-23.240537643432617,37.33479690551758,-40.03369903564453
0.23904630541801453,-0.3546576499938965,9.763710975646973,-0.0009563083130638975,-0.004571366985688751,-0.003503178534018799,2.8899667263031006,2019-07-26 14:46:56:982,-178.0884183933542,-177.45585834915883,0,-23.240537643432617,37.33479690551758,-40.03369903564453
0.24862530827522278,-0.3666313886642456,9.806816101074219,-0.00015716488153228781,-0.0056368914960456505,-4.022355432963424e-05,2.8999881744384766,2019-07-26 14:46:56:992,-178.09443276015222,-177.46383221585094,0,-22.790719985961914,37.18486022949219,-39.58388137817383
0.19115132093429565,-0.33789438009262085,9.746947288513184,-0.0012226895056717034,-0.004837748113277977,0.0023572067930927925,2.9099624156951904,2019-07-26 14:46:57:002,-178.10736457989478,-177.4741616054299,0,-22.790719985961914,37.18486022949219,-39.58388137817383
0.24862530827522278,-0.34986814856529236,9.746947288513184,0.0014411220302948675,-0.0019075553196850185,0.0023572067930927925,2.9199583530426025,2019-07-26 14:46:57:012,-178.11492293518168,-177.4843720714127,0,-22.790719985961914,37.18486022949219,-39.58388137817383
0.19354607164859772,-0.342683881521225,9.754131317138672,0.00010921627043890474,-0.004571366985688751,0.002090825535466405,2.929950714111328,2019-07-26 14:46:57:022,-178.12732480701968,-177.49450394801838,0,-22.790719985961914,37.18486022949219,-39.58388137817383
0.20551981031894684,-0.3211311399936676,9.74934196472168,-0.0004235460253761578,-0.005104129240867201,-0.0019048915084091261,2.9408044815063477,2019-07-26 14:46:57:033,-178.13751490667752,-177.50662435852703,0,-22.790719985961914,37.18486022949219,-39.58388137817383
0.2150988131761551,-0.36423665285110474,9.8187894821167,0.0009083597100978372,-0.010165371185211118,0.000226157593577897,2.949942111968994,2019-07-26 14:46:57:042,-178.1444495994974,-177.51446866315837,0,-22.790719985961914,37.18486022949219,-39.58388137817383
0.18396706879138947,-0.3331048786640167,9.792448043823242,0.0017075031578840923,-0.0024403177049006305,-0.0011057481256414525,2.9599530696868896,2019-07-26 14:46:57:052,-178.15866351433627,-177.52617407980546,0,-22.790719985961914,37.18486022949219,-39.58388137817383
0.18396706879138947,-0.297183632850647,9.782868385314941,-0.001489070633260928,-0.0056368914960456505,0.0015580632802879558,2.969956874847412,2019-07-26 14:46:57:062,-178.17077750286904,-177.54001428734412,0,-22.790719985961914,37.18486022949219,-39.58388137817383
0.2342568039894104,-0.36423665285110474,9.775684356689453,0.006235982586975235,-0.005903272623634875,0.0015580632802879558,2.9800233840942383,2019-07-26 14:46:57:072,-178.17657066282734,-177.55006233878117,0,-22.790719985961914,37.18486022949219,-39.58388137817383
0.21030931174755096,-0.388184130191803,9.849921226501465,0.0014411220302948675,-0.009366227282294795,-0.0011057481256414525,2.989954948425293,2019-07-26 14:46:57:082,-178.18335296617997,-177.554727714467,0,-22.790719985961914,37.18486022949219,-39.58388137817383
0.1959408074617386,-0.36423665285110474,9.814000129699707,0.00010921627043890474,-0.0061696537512241,-0.0008393669980522279,2.9999759197235107,2019-07-26 14:46:57:092,-178.19333872267387,-177.56118463089467,0,-22.790719985961914,37.18486022949219,-39.58388137817383
0.21270406246185303,-0.328315407037735,9.775684356689453,-0.0012226895056717034,-0.007501559389170223,0.0023572067930927925,3.0099823474884033,2019-07-26 14:46:57:102,-178.20032767405849,-177.57080295505003,0,-22.790719985961914,37.18486022949219,-39.58388137817383
0.1815723180770874,-0.3522628843784332,9.746947288513184,0.0035721710510086637,-0.008300702771937896,-0.002171272635998351,3.0199623107910156,2019-07-26 14:46:57:112,-178.21032525218038,-177.57999230880068,0,-22.790719985961914,37.18486022949219,-39.58388137817383
0.1959408074617386,-0.3690261244773865,9.797237396240234,0.0006419785825086126,-0.002173936447274243,0.0004925387374217668,3.0299763679504395,2019-07-26 14:46:57:122,-178.22198157281645,-177.58561138233804,0,-22.940658569335938,37.63467788696289,-39.43394470214844
0.21030931174755096,-0.3546576499938965,9.816394805908203,0.001973884285473317,-0.003239461087668304,-0.0008393669980522279,3.0399553775787354,2019-07-26 14:46:57:132,-178.2311801310339,-177.59362224587693,0,-22.940658569335938,37.63467788696289,-39.43394470214844
0.1887565702199936,-0.39536839723587036,9.8187894821167,-0.00015716488153228781,-0.0061696537512241,-0.0011057481256414525,3.049984931945801,2019-07-26 14:46:57:142,-178.2410556508377,-177.59554418313226,0,-22.940658569335938,37.63467788696289,-39.43394470214844
0.2079145610332489,-0.3139469027519226,9.792448043823242,0.0003755974224100973,-0.007501559389170223,0.0018244444078771805,3.0599515438079834,2019-07-26 14:46:57:152,-178.24770990853682,-177.60711789911556,0,-22.940658569335938,37.63467788696289,-39.43394470214844
0.22946731746196747,-0.3474733829498291,9.734973907470703,-0.0017554517608501525,-0.004571366985688751,0.0010253010251095067,3.0699830055236816,2019-07-26 14:46:57:162,-178.25317494288527,-177.6131025991324,0,-22.940658569335938,37.63467788696289,-39.43394470214844
0.23665155470371246,-0.33549964427948,9.804421424865723,-0.001489070633260928,-0.008300702771937896,0.0015580632802879558,3.0799596309661865,2019-07-26 14:46:57:172,-178.25580764900957,-177.620809348355,0,-22.940658569335938,37.63467788696289,-39.43394470214844
0.1959408074617386,-0.342683881521225,9.74934196472168,0.001973884285473317,-0.0005756496817388956,0.002090825535466405,3.089967966079712,2019-07-26 14:46:57:182,-178.26734066113312,-177.6292407060762,0,-22.940658569335938,37.63467788696289,-39.43394470214844
0.20551981031894684,-0.33549964427948,9.802026748657227,-0.002554595143617826,-0.0013747930645065694,-0.0019048915084091261,3.0999603271484375,2019-07-26 14:46:57:192,-178.27719951723316,-177.63601597542305,0,-22.940658569335938,37.63467788696289,-39.43394470214844
0.21030931174755096,-0.3857893943786621,9.761316299438477,-0.0009563083130638975,-0.006968797133991773,-0.0019048915084091261,3.10996675491333,2019-07-26 14:46:57:202,-178.28305490363874,-177.63749271635606,0,-22.940658569335938,37.63467788696289,-39.43394470214844
0.22228306531906128,-0.3546576499938965,9.780473709106445,0.002506646540651766,-0.007501559389170223,0.0007589198975202821,3.1199536323547363,2019-07-26 14:46:57:212,-178.28714821422668,-177.6446137222772,0,-22.940658569335938,37.63467788696289,-39.43394470214844
0.2270725667476654,-0.3402891457080841,9.79005241394043,0.001973884285473317,-0.003239461087668304,0.000226157593577897,3.129973888397217,2019-07-26 14:46:57:222,-178.2930087661548,-177.65301755983737,0,-22.940658569335938,37.63467788696289,-39.43394470214844
0.21270406246185303,-0.41692113876342773,9.79963207244873,-0.0009563083130638975,-0.0037722233428467535,-0.0027040348911768,3.1399545669555664,2019-07-26 14:46:57:232,-178.30016603555828,-177.65069817631877,0,-22.940658569335938,37.63467788696289,-39.43394470214844
0.19354607164859772,-0.3163416385650635,9.74934196472168,0.0003755974224100973,0.00075625608624439,-0.001372129253230677,3.149973154067993,2019-07-26 14:46:57:242,-178.31184216148063,-177.66072646264695,0,-23.090599060058594,36.88498306274414,-40.18363952636719
0.22946731746196747,-0.3546576499938965,9.79963207244873,0.0035721710510086637,-0.004571366985688751,0.0023572067930927925,3.1599655151367188,2019-07-26 14:46:57:252,-178.31621270716695,-177.66806252891953,0,-23.090599060058594,36.88498306274414,-40.18363952636719
0.1887565702199936,-0.3594471514225006,9.782868385314941,-0.002288214016028602,-0.004304985598025202,0.005287399456648588,3.1699700355529785,2019-07-26 14:46:57:262,-178.32536287249178,-177.6713309836103,0,-23.090599060058594,36.88498306274414,-40.18363952636719
0.21030931174755096,-0.3786051273345947,9.775684356689453,0.0006419785825086126,-0.004038604470435978,0.0034227313034496903,3.1799540519714355,2019-07-26 14:46:57:272,-178.33194270110297,-177.6739059522396,0,-23.090599060058594,36.88498306274414,-40.18363952636719
0.18636181950569153,-0.342683881521225,9.852315902709961,0.0014411220302948675,-0.0011084119369173448,-4.022355432963424e-05,3.1899778842926025,2019-07-26 14:46:57:282,-178.34300697096836,-177.68139770178615,0,-23.090599060058594,36.88498306274414,-40.18363952636719
0.19115132093429565,-0.342683881521225,9.797237396240234,0.0009083597100978372,-0.005903272623634875,-0.0024376537635875752,3.200230360031128,2019-07-26 14:46:57:292,-178.35039364313215,-177.68822762072045,0,-23.090599060058594,36.88498306274414,-40.18363952636719
0.20312505960464478,-0.33789438009262085,9.768500328063965,0.0006419785825086126,-0.009366227282294795,-0.0011057481256414525,3.2099525928497314,2019-07-26 14:46:57:302,-178.35444812550895,-177.695191873433,0,-23.090599060058594,36.88498306274414,-40.18363952636719
0.22228306531906128,-0.3402891457080841,9.785263061523438,0.0006419785825086126,-0.005903272623634875,0.003156350175860466,3.219965696334839,2019-07-26 14:46:57:312,-178.35801387703302,-177.7018150407086,0,-23.090599060058594,36.88498306274414,-40.18363952636719
0.2007303088903427,-0.3857893943786621,9.79963207244873,0.001973884285473317,-0.004571366985688751,-0.001372129253230677,3.229973316192627,2019-07-26 14:46:57:322,-178.3648158003933,-177.70379909116633,0,-23.090599060058594,36.88498306274414,-40.18363952636719
0.16480906307697296,-0.37621039152145386,9.797237396240234,-0.005751168674688521,-0.004038604470435978,0.0010253010251095067,3.2399837970733643,2019-07-26 14:46:57:332,-178.37597467020925,-177.70250931367536,0,-23.090599060058594,36.88498306274414,-40.18363952636719
0.2007303088903427,-0.3522628843784332,9.763710975646973,0.0003755974224100973,-0.002706698832489855,0.0007589198975202821,3.250016450881958,2019-07-26 14:46:57:342,-178.38337506021801,-177.70734538935704,0,-23.090599060058594,36.88498306274414,-40.18363952636719
0.20551981031894684,-0.33549964427948,9.780473709106445,0.005170458076618337,-0.010165371185211118,0.0007589198975202821,3.259991407394409,2019-07-26 14:46:57:352,-178.38593811202392,-177.71680147433034,0,-23.090599060058594,36.88498306274414,-40.18363952636719
0.21270406246185303,-0.39536839723587036,9.816394805908203,0.001174740902705643,-0.007767940516759447,-0.0008393669980522279,3.2699875831604004,2019-07-26 14:46:57:362,-178.3890332331841,-177.71699646089627,0,-23.090599060058594,36.88498306274414,-40.18363952636719
0.21270406246185303,-0.32352590560913086,9.701447486877441,-0.0009563083130638975,-0.006968797133991773,0.002623587920682017,3.2799556255340576,2019-07-26 14:46:57:372,-178.39223194914618,-177.7239212050354,0,-24.14017105102539,36.735042572021484,-39.43394470214844
0.25102004408836365,-0.3738156259059906,9.847526550292969,-0.0017554517608501525,-0.008300702771937896,-0.004302321916786473,3.2899739742279053,2019-07-26 14:46:57:382,-178.39051409351848,-177.7249767993561,0,-24.14017105102539,36.735042572021484,-39.43394470214844
0.2079145610332489,-0.33549964427948,9.74934196472168,0.00010921627043890474,-0.008833465027116346,0.0015580632802879558,3.2999491691589355,2019-07-26 14:46:57:392,-178.39332203310607,-177.73112012225369,0,-24.14017105102539,36.735042572021484,-39.43394470214844
0.2558095455169678,-0.3594471514225006,9.787657737731934,-0.0004235460253761578,-0.002973079960079079,0.004488256073880914,3.309959888458252,2019-07-26 14:46:57:402,-178.39384166863405,-177.73419533420306,0,-24.14017105102539,36.735042572021484,-39.43394470214844
0.2150988131761551,-0.35705238580703735,9.79963207244873,0.003039408795830215,0.00022349378230200473,0.0015580632802879558,3.319963216781616,2019-07-26 14:46:57:412,-178.40094192326472,-177.73948531938635,0,-24.14017105102539,36.735042572021484,-39.43394470214844
0.21749356389045715,-0.342683881521225,9.787657737731934,0.0049040769490291125,-0.005903272623634875,0.000226157593577897,3.329977512359619,2019-07-26 14:46:57:422,-178.40414422966717,-177.74734895327484,0,-24.14017105102539,36.735042572021484,-39.43394470214844
0.21270406246185303,-0.34986814856529236,9.806816101074219,0.0003755974224100973,-0.002973079960079079,0.0004925387374217668,3.3399505615234375,2019-07-26 14:46:57:432,-178.4095461262289,-177.75174792915945,0,-24.14017105102539,36.735042572021484,-39.43394470214844
0.21030931174755096,-0.3522628843784332,9.74934196472168,0.0009083597100978372,-0.006702416006402549,0.006352923967005486,3.3499879837036133,2019-07-26 14:46:57:442,-178.41286227542773,-177.7558387436846,0,-24.14017105102539,36.735042572021484,-39.43394470214844
0.23904630541801453,-0.3211311399936676,9.74934196472168,0.0017075031578840923,-0.007501559389170223,0.000226157593577897,3.359973192214966,2019-07-26 14:46:57:452,-178.41230781166533,-177.76394792568698,0,-24.14017105102539,36.735042572021484,-39.43394470214844
0.21030931174755096,-0.3857893943786621,9.787657737731934,0.002506646540651766,-0.006702416006402549,0.004488256073880914,3.3699798583984375,2019-07-26 14:46:57:462,-178.41567702566783,-177.76493345226874,0,-24.14017105102539,36.735042572021484,-39.43394470214844
0.21270406246185303,-0.3594471514225006,9.837947845458984,-0.000689927185474673,-0.005370510368456426,0.0015580632802879558,3.379953622817993,2019-07-26 14:46:57:472,-178.4195841379496,-177.76739893101887,0,-24.14017105102539,36.735042572021484,-39.43394470214844
0.2007303088903427,-0.34507864713668823,9.842737197875977,0.005436839204207561,-0.005370510368456426,-0.00030660471036448813,3.3899729251861572,2019-07-26 14:46:57:482,-178.42480482468167,-177.77495116904987,0,-24.14017105102539,36.735042572021484,-39.43394470214844
0.20551981031894684,-0.3546576499938965,9.756525993347168,0.002240265413062541,-0.007501559389170223,0.0015580632802879558,3.3999550342559814,2019-07-26 14:46:57:492,-178.427969171698,-177.77907117086363,0,-23.090599060058594,36.88498306274414,-40.483516693115234
0.23186205327510834,-0.34507864713668823,9.77807903289795,-0.0038865007815639487,-0.006968797133991773,-0.0016385103808199016,3.4099838733673096,2019-07-26 14:46:57:502,-178.42831817686553,-177.7808774045572,0,-23.090599060058594,36.88498306274414,-40.483516693115234
0.17917756736278534,-0.342683881521225,9.711026191711426,-0.002021832888439377,-0.002173936447274243,-0.001372129253230677,3.4199671745300293,2019-07-26 14:46:57:512,-178.43739236767772,-177.78370605841562,0,-23.090599060058594,36.88498306274414,-40.483516693115234
0.17678281664848328,-0.38339462876319885,9.763710975646973,0.0009083597100978372,-0.0064360348788133235,-0.0005729858704630034,3.429983615875244,2019-07-26 14:46:57:522,-178.44427894797045,-177.78356890609257,0,-23.090599060058594,36.88498306274414,-40.483516693115234
0.2079145610332489,-0.33071014285087585,9.732579231262207,0.0003755974224100973,-0.0056368914960456505,-0.0016385103808199016,3.439934015274048,2019-07-26 14:46:57:532,-178.44776778716408,-177.78918448474687,0,-23.090599060058594,36.88498306274414,-40.483516693115234
0.20551981031894684,-0.3402891457080841,9.746947288513184,0.005703220331796786,-0.0024403177049006305,-4.022355432963424e-05,3.449960470199585,2019-07-26 14:46:57:542,-178.45327988307824,-177.79662121711567,0,-23.090599060058594,36.88498306274414,-40.483516693115234
0.1815723180770874,-0.33789438009262085,9.74934196472168,-0.0004235460253761578,-0.0016411741920957937,0.0007589198975202821,3.4599852561950684,2019-07-26 14:46:57:552,-178.4619513518996,-177.8007509324912,0,-23.090599060058594,36.88498306274414,-40.483516693115234
0.1743880659341812,-0.3546576499938965,9.845131874084473,0.00010921627043890474,-0.004837748113277977,-0.003503178534018799,3.469954490661621,2019-07-26 14:46:57:562,-178.46970866766742,-177.8035348227669,0,-23.090599060058594,36.88498306274414,-40.483516693115234
0.21030931174755096,-0.32592064142227173,9.792448043823242,-0.0012226895056717034,-0.006968797133991773,-0.003503178534018799,3.4799647331237793,2019-07-26 14:46:57:572,-178.47179083219012,-177.8086516142506,0,-23.090599060058594,36.88498306274414,-40.483516693115234
0.21270406246185303,-0.3474733829498291,9.773289680480957,0.0014411220302948675,-0.0056368914960456505,-0.0029704160187660244,3.4899635314941406,2019-07-26 14:46:57:582,-178.47425473129687,-177.8125636651323,0,-23.090599060058594,36.88498306274414,-40.483516693115234
0.21749356389045715,-0.3618418872356415,9.756525993347168,0.0006419785825086126,-0.006702416006402549,-0.0005729858704630034,3.4999771118164062,2019-07-26 14:46:57:592,-178.47546048059377,-177.81419406015436,0,-23.090599060058594,36.88498306274414,-40.483516693115234
0.2079145610332489,-0.33071014285087585,9.742157936096191,0.001174740902705643,-0.005370510368456426,-0.0008393669980522279,3.5099639892578125,2019-07-26 14:46:57:602,-178.47848757801432,-177.8196842746482,0,-23.090599060058594,36.88498306274414,-40.483516693115234
0.20312505960464478,-0.39536839723587036,9.780473709106445,-0.0012226895056717034,-0.010698133440389567,0.0010253010251095067,3.5199782848358154,2019-07-26 14:46:57:612,-178.47910680765486,-177.81630548883365,0,-23.090599060058594,36.88498306274414,-40.483516693115234
0.23904630541801453,-0.3331048786640167,9.780473709106445,-0.00015716488153228781,-0.005903272623634875,-0.0011057481256414525,3.529951810836792,2019-07-26 14:46:57:622,-178.4782168145202,-177.82087867499908,0,-22.490842819213867,36.88498306274414,-38.984127044677734
0.18636181950569153,-0.34507864713668823,9.770895004272461,0.002506646540651766,-0.005903272623634875,-0.003503178534018799,3.539971351623535,2019-07-26 14:46:57:632,-178.48347774273176,-177.82541784909534,0,-22.490842819213867,36.88498306274414,-38.984127044677734
0.24383580684661865,-0.37142089009284973,9.715815544128418,0.0006419785825086126,-0.0013747930645065694,0.002623587920682017,3.5499813556671143,2019-07-26 14:46:57:642,-178.48428270099546,-177.8254850292985,0,-22.490842819213867,36.88498306274414,-38.984127044677734
0.22467781603336334,-0.3618418872356415,9.814000129699707,0.004104933306187114,-0.004304985598025202,-4.022355432963424e-05,3.5599517822265625,2019-07-26 14:46:57:652,-178.48595739804935,-177.82904268283323,0,-22.490842819213867,36.88498306274414,-38.984127044677734
0.1695985645055771,-0.3331048786640167,9.787657737731934,-0.0017554517608501525,-0.0024403177049006305,0.0018244444078771805,3.5699634552001953,2019-07-26 14:46:57:662,-178.4950122076308,-177.83249091776773,0,-22.490842819213867,36.88498306274414,-38.984127044677734
0.1959408074617386,-0.3594471514225006,9.766105651855469,-0.00015716488153228781,-0.004304985598025202,-0.0024376537635875752,3.5799543857574463,2019-07-26 14:46:57:672,-178.49970908946568,-177.83359587649232,0,-22.490842819213867,36.88498306274414,-38.984127044677734
0.19354607164859772,-0.328315407037735,9.794842720031738,-0.001489070633260928,-0.0008420308093281202,0.0010253010251095067,3.5899658203125,2019-07-26 14:46:57:682,-178.50660122462327,-177.83769107987905,0,-22.490842819213867,36.88498306274414,-38.984127044677734
0.22228306531906128,-0.37142089009284973,9.802026748657227,0.00010921627043890474,-0.0024403177049006305,0.0034227313034496903,3.5999767780303955,2019-07-26 14:46:57:692,-178.5091156961018,-177.83759808922153,0,-22.490842819213867,36.88498306274414,-38.984127044677734
0.2558095455169678,-0.36423665285110474,9.754131317138672,0.001174740902705643,-0.0019075553196850185,-0.0005729858704630034,3.6099517345428467,2019-07-26 14:46:57:702,-178.50781935016633,-177.8387334324326,0,-22.490842819213867,36.88498306274414,-38.984127044677734
0.16480906307697296,-0.3474733829498291,9.797237396240234,0.003039408795830215,-0.0024403177049006305,-0.0011057481256414525,3.6199605464935303,2019-07-26 14:46:57:712,-178.5170167541052,-177.8430423434686,0,-22.490842819213867,36.88498306274414,-38.984127044677734
0.22946731746196747,-0.32352590560913086,9.734973907470703,0.00010921627043890474,-0.0061696537512241,0.000226157593577897,3.629953145980835,2019-07-26 14:46:57:722,-178.5162088550672,-177.84817416002974,0,-22.490842819213867,36.88498306274414,-38.984127044677734
0.20551981031894684,-0.33549964427948,9.785263061523438,0.004104933306187114,-0.0056368914960456505,0.004221874686217364,3.639954090118408,2019-07-26 14:46:57:732,-178.51865515327677,-177.85424208382594,0,-22.490842819213867,36.88498306274414,-38.984127044677734
0.23186205327510834,-0.3546576499938965,9.746947288513184,0.0033057899234194394,-0.0061696537512241,0.000226157593577897,3.6499555110931396,2019-07-26 14:46:57:742,-178.5175632092758,-177.85733619029705,0,-22.790719985961914,37.18486022949219,-40.78339385986328
0.21270406246185303,-0.31155213713645935,9.739763259887695,0.001174740902705643,-0.005903272623634875,0.0023572067930927925,3.65997052192688,2019-07-26 14:46:57:752,-178.51887092578644,-177.8642074196443,0,-22.790719985961914,37.18486022949219,-40.78339385986328
0.21030931174755096,-0.3211311399936676,9.775684356689453,0.001174740902705643,-0.0035058422152575287,0.000226157593577897,3.669975996017456,2019-07-26 14:46:57:762,-178.52187503647403,-177.86995346310584,0,-22.790719985961914,37.18486022949219,-40.78339385986328
0.19833555817604065,-0.3522628843784332,9.79963207244873,0.004371314693850663,-0.004038604470435978,0.003156350175860466,3.679954767227173,2019-07-26 14:46:57:772,-178.52598556499623,-177.87382969606134,0,-22.790719985961914,37.18486022949219,-40.78339385986328
0.21030931174755096,-0.3402891457080841,9.751736640930176,0.004104933306187114,-0.002173936447274243,-4.022355432963424e-05,3.6899664402008057,2019-07-26 14:46:57:782,-178.5295343864525,-177.87868993142072,0,-22.790719985961914,37.18486022949219,-40.78339385986328
0.21030931174755096,-0.342683881521225,9.816394805908203,0.0009083597100978372,-0.0037722233428467535,-0.0027040348911768,3.699950695037842,2019-07-26 14:46:57:792,-178.53228226004623,-177.88163845168884,0,-22.790719985961914,37.18486022949219,-40.78339385986328
0.2079145610332489,-0.3666313886642456,9.775684356689453,-0.000689927185474673,-0.004571366985688751,-0.0016385103808199016,3.7099649906158447,2019-07-26 14:46:57:802,-178.53469784822184,-177.8806609673166,0,-22.790719985961914,37.18486022949219,-40.78339385986328
0.24383580684661865,-0.380999892950058,9.780473709106445,0.0014411220302948675,-0.004571366985688751,0.006086542839416261,3.719956398010254,2019-07-26 14:46:57:812,-178.53287651426265,-177.8792394781047,0,-22.790719985961914,37.18486022949219,-40.78339385986328
0.21749356389045715,-0.328315407037735,9.7373685836792,0.0006419785825086126,-0.006702416006402549,-0.0029704160187660244,3.729964017868042,2019-07-26 14:46:57:822,-178.5328618387881,-177.8833931639197,0,-22.790719985961914,37.18486022949219,-40.78339385986328
0.2007303088903427,-0.34507864713668823,9.768500328063965,-0.000689927185474673,-0.002973079960079079,0.0018244444078771805,3.7399561405181885,2019-07-26 14:46:57:832,-178.53699273615499,-177.88487482264537,0,-22.790719985961914,37.18486022949219,-40.78339385986328
0.21270406246185303,-0.3163416385650635,9.828369140625,-0.0009563083130638975,-0.004038604470435978,-0.0019048915084091261,3.7500312328338623,2019-07-26 14:46:57:842,-178.53917232275003,-177.88976594741294,0,-22.790719985961914,37.18486022949219,-40.78339385986328
0.1959408074617386,-0.342683881521225,9.706236839294434,0.003838552178597889,-0.004571366985688751,0.0012916821526987312,3.759953498840332,2019-07-26 14:46:57:852,-178.5427124378169,-177.8936688504546,0,-22.790719985961914,37.18486022949219,-40.78339385986328
0.21988831460475922,-0.34507864713668823,9.7373685836792,0.0006419785825086126,-0.004571366985688751,0.002623587920682017,3.769977331161499,2019-07-26 14:46:57:862,-178.5434126977252,-177.89556415349102,0,-22.790719985961914,37.18486022949219,-40.78339385986328
0.19833555817604065,-0.32352590560913086,9.715815544128418,-0.000689927185474673,0.001289018341422839,-4.022355432963424e-05,3.779956579208374,2019-07-26 14:46:57:872,-178.5498776171604,-177.89912265405968,0,-22.64078140258789,36.43516540527344,-40.33357620239258
0.23904630541801453,-0.33549964427948,9.780473709106445,0.0003755974224100973,-0.008300702771937896,0.0012916821526987312,3.7899680137634277,2019-07-26 14:46:57:882,-178.5462119493319,-177.90205839779642,0,-22.64078140258789,36.43516540527344,-40.33357620239258
0.18636181950569153,-0.328315407037735,9.770895004272461,0.001973884285473317,-0.004571366985688751,0.002090825535466405,3.7999579906463623,2019-07-26 14:46:57:892,-178.55086988794523,-177.90663460587345,0,-22.64078140258789,36.43516540527344,-40.33357620239258
0.21749356389045715,-0.3618418872356415,9.725394248962402,0.001973884285473317,-0.0037722233428467535,-0.0016385103808199016,3.80997896194458,2019-07-26 14:46:57:902,-178.55210757179185,-177.9069974257286,0,-22.64078140258789,36.43516540527344,-40.33357620239258
0.1959408074617386,-0.36423665285110474,9.770895004272461,0.003039408795830215,-0.004837748113277977,-0.001372129253230677,3.819953680038452,2019-07-26 14:46:57:912,-178.5553793409696,-177.90786244055255,0,-22.64078140258789,36.43516540527344,-40.33357620239258
0.19833555817604065,-0.34507864713668823,9.730184555053711,-0.000689927185474673,-0.007767940516759447,0.0010253010251095067,3.8299551010131836,2019-07-26 14:46:57:922,-178.55655486986817,-177.90869514894646,0,-22.64078140258789,36.43516540527344,-40.33357620239258
0.18636181950569153,-0.3786051273345947,9.742157936096191,0.001174740902705643,-0.004571366985688751,0.0010253010251095067,3.839959144592285,2019-07-26 14:46:57:932,-178.56093789220301,-177.90667032213344,0,-22.64078140258789,36.43516540527344,-40.33357620239258
0.2007303088903427,-0.3618418872356415,9.763710975646973,0.001174740902705643,-0.004837748113277977,-0.0019048915084091261,3.849979877471924,2019-07-26 14:46:57:942,-178.56344176739503,-177.90674983871074,0,-22.64078140258789,36.43516540527344,-40.33357620239258
0.2150988131761551,-0.36423665285110474,9.809210777282715,0.0017075031578840923,-0.006702416006402549,-4.022355432963424e-05,3.8599510192871094,2019-07-26 14:46:57:952,-178.5632964994539,-177.90704011667972,0,-22.64078140258789,36.43516540527344,-40.33357620239258
0.2079145610332489,-0.3546576499938965,9.72060489654541,0.0003755974224100973,-0.005903272623634875,0.003689112431038915,3.86997389793396,2019-07-26 14:46:57:962,-178.56420199051092,-177.90732033797659,0,-22.64078140258789,36.43516540527344,-40.33357620239258
0.19833555817604065,-0.3738156259059906,9.766105651855469,-0.0004235460253761578,-0.004837748113277977,-0.0008393669980522279,3.8799610137939453,2019-07-26 14:46:57:972,-178.56693636281494,-177.90509579599174,0,-22.64078140258789,36.43516540527344,-40.33357620239258
0.1959408074617386,-0.3402891457080841,9.802026748657227,0.003039408795830215,-0.0056368914960456505,0.0010253010251095067,3.8899753093719482,2019-07-26 14:46:57:982,-178.56952440127105,-177.90893707632895,0,-22.64078140258789,36.43516540527344,-40.33357620239258
0.18396706879138947,-0.3402891457080841,9.809210777282715,0.003838552178597889,-0.005370510368456426,0.0007589198975202821,3.899972915649414,2019-07-26 14:46:57:992,-178.57363051973536,-177.91317639354386,0,-24.739927291870117,37.93455505371094,-40.03369903564453
0.17678281664848328,-0.3522628843784332,9.699052810668945,0.00010921627043890474,-0.0056368914960456505,-0.004302321916786473,3.9099812507629395,2019-07-26 14:46:58:002,-178.57810608819625,-177.91337366577613,0,-24.739927291870117,37.93455505371094,-40.03369903564453
0.19115132093429565,-0.35705238580703735,9.770895004272461,0.001973884285473317,-0.004837748113277977,-0.002171272635998351,3.9199514389038086,2019-07-26 14:46:58:012,-178.58142060087388,-177.91435528924615,0,-24.739927291870117,37.93455505371094,-40.03369903564453
0.22467781603336334,-0.3331048786640167,9.837947845458984,0.0033057899234194394,-0.005370510368456426,0.0012916821526987312,3.929962158203125,2019-07-26 14:46:58:022,-178.58060769440985,-177.91914142085147,0,-24.739927291870117,37.93455505371094,-40.03369903564453
0.21988831460475922,-0.34507864713668823,9.854711532592773,0.0033057899234194394,-0.003239461087668304,0.003156350175860466,3.939955711364746,2019-07-26 14:46:58:032,-178.58161317183402,-177.92250389472738,0,-24.739927291870117,37.93455505371094,-40.03369903564453
0.21988831460475922,-0.36423665285110474,9.703842163085938,0.0017075031578840923,-0.004571366985688751,0.0007589198975202821,3.9499757289886475,2019-07-26 14:46:58:042,-178.58144703801483,-177.92202239113618,0,-24.739927291870117,37.93455505371094,-40.03369903564453
0.20551981031894684,-0.3546576499938965,9.794842720031738,0.0027730276682409903,-0.005370510368456426,-0.0027040348911768,3.959956169128418,2019-07-26 14:46:58:052,-178.5827678709211,-177.92366205577935,0,-24.739927291870117,37.93455505371094,-40.03369903564453
0.2150988131761551,-0.33789438009262085,9.854711532592773,0.002506646540651766,0.00022349378230200473,0.0023572067930927925,3.969960927963257,2019-07-26 14:46:58:062,-178.58623013313823,-177.92732165721,0,-24.739927291870117,37.93455505371094,-40.03369903564453
0.25102004408836365,-0.380999892950058,9.74934196472168,0.001174740902705643,-0.00856708389952712,-0.003503178534018799,3.979952096939087,2019-07-26 14:46:58:072,-178.58020156187376,-177.92467516807574,0,-24.739927291870117,37.93455505371094,-40.03369903564453
0.22228306531906128,-0.3474733829498291,9.739763259887695,0.0033057899234194394,-0.004837748113277977,0.004754637201470138,3.9899799823760986,2019-07-26 14:46:58:082,-178.5797257629327,-177.9271789672483,0,-24.739927291870117,37.93455505371094,-40.03369903564453
0.20551981031894684,-0.328315407037735,9.792448043823242,-0.0004235460253761578,-0.005370510368456426,-0.0019048915084091261,3.999979257583618,2019-07-26 14:46:58:092,-178.58106946432488,-177.92999239032562,0,-24.739927291870117,37.93455505371094,-40.03369903564453
0.22946731746196747,-0.388184130191803,9.84034252166748,0.0003755974224100973,-0.004304985598025202,0.005287399456648588,4.009950876235962,2019-07-26 14:46:58:102,-178.5803208851511,-177.92642192212656,0,-24.739927291870117,37.93455505371094,-40.03369903564453
0.23186205327510834,-0.36423665285110474,9.756525993347168,-0.0036201196539747244,-0.0056368914960456505,0.002090825535466405,4.019964933395386,2019-07-26 14:46:58:112,-178.57831756210666,-177.9230977635589,0,-24.739927291870117,37.93455505371094,-40.03369903564453
0.21988831460475922,-0.37621039152145386,9.770895004272461,0.001174740902705643,-0.004837748113277977,0.002090825535466405,4.029956102371216,2019-07-26 14:46:58:122,-178.57825340835726,-177.92119524694726,0,-22.190963745117188,36.88498306274414,-40.483516693115234
0.1959408074617386,-0.34507864713668823,9.79005241394043,-0.0017554517608501525,-0.006968797133991773,-0.002171272635998351,4.03998327255249,2019-07-26 14:46:58:132,-178.57983312958464,-177.92140859354697,0,-22.190963745117188,36.88498306274414,-40.483516693115234
0.2150988131761551,-0.34507864713668823,9.8187894821167,0.003039408795830215,-0.004038604470435978,0.003156350175860466,4.049958944320679,2019-07-26 14:46:58:142,-178.58087491904791,-177.92442657519098,0,-22.190963745117188,36.88498306274414,-40.483516693115234
0.21030931174755096,-0.342683881521225,9.773289680480957,-0.0012226895056717034,-0.00909984667485422,-0.00030660471036448813,4.059977293014526,2019-07-26 14:46:58:152,-178.5794835885429,-177.92508710634934,0,-22.190963745117188,36.88498306274414,-40.483516693115234
0.21030931174755096,-0.3139469027519226,9.758920669555664,0.001973884285473317,-0.002173936447274243,-0.0008393669980522279,4.0699851512908936,2019-07-26 14:46:58:162,-178.58198109935032,-177.93084288865595,0,-22.190963745117188,36.88498306274414,-40.483516693115234
0.19115132093429565,-0.29957839846611023,9.785263061523438,0.00010921627043890474,-0.005104129240867201,-0.002171272635998351,4.079976320266724,2019-07-26 14:46:58:172,-178.5850958765333,-177.93721574949197,0,-22.190963745117188,36.88498306274414,-40.483516693115234
0.21030931174755096,-0.3786051273345947,9.792448043823242,-0.002288214016028602,-0.0035058422152575287,-0.0016385103808199016,4.089951753616333,2019-07-26 14:46:58:182,-178.5868235852062,-177.93290731752234,0,-22.190963745117188,36.88498306274414,-40.483516693115234
0.17917756736278534,-0.342683881521225,9.825974464416504,0.002506646540651766,-0.0035058422152575287,0.0039554935586281394,4.099971294403076,2019-07-26 14:46:58:192,-178.59222117841256,-177.93571143228547,0,-22.190963745117188,36.88498306274414,-40.483516693115234
0.2007303088903427,-0.3019731342792511,9.794842720031738,0.0006419785825086126,-0.006968797133991773,-0.00030660471036448813,4.109949588775635,2019-07-26 14:46:58:202,-178.59299177884125,-177.94203971862115,0,-22.190963745117188,36.88498306274414,-40.483516693115234
0.22946731746196747,-0.3474733829498291,9.766105651855469,0.00010921627043890474,-0.003239461087668304,0.002090825535466405,4.119956731796265,2019-07-26 14:46:58:212,-178.5923918713158,-177.94250635350815,0,-22.190963745117188,36.88498306274414,-40.483516693115234
0.1887565702199936,-0.3738156259059906,9.677499771118164,-0.00015716488153228781,-0.005104129240867201,0.0004925387374217668,4.129971981048584,2019-07-26 14:46:58:222,-178.59532581463804,-177.93932622102895,0,-22.190963745117188,36.88498306274414,-40.483516693115234
0.21988831460475922,-0.342683881521225,9.833158493041992,-0.00015716488153228781,-0.002706698832489855,0.0004925387374217668,4.13995361328125,2019-07-26 14:46:58:232,-178.5962816781447,-177.94053280505887,0,-22.190963745117188,36.88498306274414,-40.483516693115234
0.19354607164859772,-0.3163416385650635,9.775684356689453,0.0009083597100978372,-0.006968797133991773,0.0004925387374217668,4.149965047836304,2019-07-26 14:46:58:242,-178.59775389798023,-177.94516382423316,0,-22.64078140258789,37.33479690551758,-40.03369903564453
0.1887565702199936,-0.3474733829498291,9.742157936096191,0.0003755974224100973,-0.005903272623634875,-0.0027040348911768,4.159991025924683,2019-07-26 14:46:58:252,-178.6002759267841,-177.94561795907026,0,-22.64078140258789,37.33479690551758,-40.03369903564453
0.2150988131761551,-0.3402891457080841,9.79963207244873,-0.00015716488153228781,-0.003239461087668304,-0.006433371197574595,4.16997766494751,2019-07-26 14:46:58:262,-178.6013054403359,-177.9468418930265,0,-22.64078140258789,37.33479690551758,-40.03369903564453
0.20312505960464478,-0.3522628843784332,9.775684356689453,0.001973884285473317,-0.0064360348788133235,-0.0029704160187660244,4.180059194564819,2019-07-26 14:46:58:272,-178.6018289446026,-177.9477476725413,0,-22.64078140258789,37.33479690551758,-40.03369903564453
0.21030931174755096,-0.3690261244773865,9.773289680480957,-0.0004235460253761578,-0.005903272623634875,-0.0024376537635875752,4.189957857131958,2019-07-26 14:46:58:282,-178.60185637103768,-177.9453096397387,0,-22.64078140258789,37.33479690551758,-40.03369903564453
0.24623055756092072,-0.3474733829498291,9.754131317138672,-0.0017554517608501525,-0.002973079960079079,0.0039554935586281394,4.199942588806152,2019-07-26 14:46:58:292,-178.59923138231042,-177.94461534084704,0,-22.64078140258789,37.33479690551758,-40.03369903564453
0.2079145610332489,-0.39057889580726624,9.785263061523438,-0.002554595143617826,-0.002973079960079079,-0.0032367971463552496,4.209961652755737,2019-07-26 14:46:58:302,-178.60122975765262,-177.9385709303907,0,-22.64078140258789,37.33479690551758,-40.03369903564453
0.2079145610332489,-0.34507864713668823,9.718210220336914,0.0027730276682409903,-0.0013747930645065694,0.000226157593577897,4.219982862472534,2019-07-26 14:46:58:312,-178.60391922813193,-177.94068725963112,0,-22.64078140258789,37.33479690551758,-40.03369903564453
0.21270406246185303,-0.3738156259059906,9.797237396240234,-0.002021832888439377,-0.002973079960079079,-4.022355432963424e-05,4.22995662689209,2019-07-26 14:46:58:322,-178.60530121691107,-177.93703978821407,0,-22.64078140258789,37.33479690551758,-40.03369903564453
0.17917756736278534,-0.342683881521225,9.706236839294434,0.00010921627043890474,0.0004898749261458747,-0.0019048915084091261,4.239955186843872,2019-07-26 14:46:58:332,-178.6123189662532,-177.93791994290373,0,-22.64078140258789,37.33479690551758,-40.03369903564453
0.19833555817604065,-0.3139469027519226,9.780473709106445,-0.0004235460253761578,-0.008833465027116346,-0.0040359407891972475,4.249938488006592,2019-07-26 14:46:58:342,-178.61188636581804,-177.94215359432997,0,-22.64078140258789,37.33479690551758,-40.03369903564453
0.2079145610332489,-0.342683881521225,9.751736640930176,0.001973884285473317,-0.004571366985688751,0.0034227313034496903,4.259979248046875,2019-07-26 14:46:58:352,-178.61264325491547,-177.944171539593,0,-22.64078140258789,37.33479690551758,-40.03369903564453
0.20551981031894684,-0.33789438009262085,9.811605453491211,-0.000689927185474673,-0.007767940516759447,-0.0027040348911768,4.269978761672974,2019-07-26 14:46:58:362,-178.61202938387862,-177.9454530133728,0,-22.64078140258789,37.33479690551758,-40.03369903564453
0.18636181950569153,-0.3091574013233185,9.711026191711426,-0.0004235460253761578,-0.005104129240867201,-0.0040359407891972475,4.279952049255371,2019-07-26 14:46:58:372,-178.61494221634334,-177.94983805007263,0,-22.790719985961914,36.88498306274414,-40.18363952636719
0.24623055756092072,-0.3618418872356415,9.773289680480957,-0.0009563083130638975,-0.003239461087668304,0.0015580632802879558,4.28995943069458,2019-07-26 14:46:58:382,-178.6119587158092,-177.94789743185913,0,-22.790719985961914,36.88498306274414,-40.18363952636719
0.21988831460475922,-0.3786051273345947,9.797237396240234,0.0009083597100978372,-0.0024403177049006305,-0.001372129253230677,4.299958944320679,2019-07-26 14:46:58:392,-178.61263486379985,-177.94518868265925,0,-22.790719985961914,36.88498306274414,-40.18363952636719
0.21749356389045715,-0.3546576499938965,9.773289680480957,0.0006419785825086126,-0.0016411741920957937,0.0034227313034496903,4.30998420715332,2019-07-26 14:46:58:402,-178.61396146790221,-177.94508101425268,0,-22.790719985961914,36.88498306274414,-40.18363952636719
0.2414410561323166,-0.3211311399936676,9.775684356689453,-0.00015716488153228781,-0.002973079960079079,0.0012916821526987312,4.319952011108398,2019-07-26 14:46:58:412,-178.61172202116904,-177.9484616455804,0,-22.790719985961914,36.88498306274414,-40.18363952636719
0.17199331521987915,-0.33549964427948,9.768500328063965,0.00010921627043890474,-0.004571366985688751,-0.00030660471036448813,4.329960584640503,2019-07-26 14:46:58:422,-178.6167445910389,-177.95021272418725,0,-22.790719985961914,36.88498306274414,-40.18363952636719
0.1887565702199936,-0.3019731342792511,9.782868385314941,-0.000689927185474673,-0.006702416006402549,-0.0008393669980522279,4.339991807937622,2019-07-26 14:46:58:432,-178.6185273069013,-177.95545949308772,0,-22.790719985961914,36.88498306274414,-40.18363952636719
0.19115132093429565,-0.31155213713645935,9.794842720031738,0.0009083597100978372,-0.005903272623634875,-0.002171272635998351,4.349973440170288,2019-07-26 14:46:58:442,-178.62048788429425,-177.96042267055867,0,-22.790719985961914,36.88498306274414,-40.18363952636719
0.2150988131761551,-0.3618418872356415,9.763710975646973,0.002506646540651766,-0.0016411741920957937,0.004221874686217364,4.359953165054321,2019-07-26 14:46:58:452,-178.62191754039864,-177.9601707821188,0,-22.790719985961914,36.88498306274414,-40.18363952636719
0.28454655408859253,-0.342683881521225,9.77807903289795,0.003838552178597889,-0.006702416006402549,0.000226157593577897,4.369962930679321,2019-07-26 14:46:58:462,-178.6123748595306,-177.9629813300049,0,-22.790719985961914,36.88498306274414,-40.18363952636719
0.19115132093429565,-0.342683881521225,9.797237396240234,0.003039408795830215,-0.006968797133991773,0.0004925387374217668,4.379950284957886,2019-07-26 14:46:58:472,-178.61386451921015,-177.96536112204578,0,-22.790719985961914,36.88498306274414,-40.18363952636719
0.21749356389045715,-0.38339462876319885,9.77807903289795,-0.0004235460253761578,-0.0024403177049006305,0.0028899690482712416,4.390105247497559,2019-07-26 14:46:58:482,-178.6147113910809,-177.96090449894106,0,-22.790719985961914,36.88498306274414,-40.18363952636719
0.19354607164859772,-0.3474733829498291,9.821184158325195,-0.0036201196539747244,-0.003239461087668304,0.0012916821526987312,4.399966478347778,2019-07-26 14:46:58:492,-178.61804381646775,-177.9591563473213,0,-23.840293884277344,36.735042572021484,-40.03369903564453
0.2270725667476654,-0.3666313886642456,9.7373685836792,0.0003755974224100973,-0.008300702771937896,0.000226157593577897,4.409965515136719,2019-07-26 14:46:58:502,-178.61430498416533,-177.95705845691066,0,-23.840293884277344,36.735042572021484,-40.03369903564453
0.21988831460475922,-0.3786051273345947,9.794842720031738,0.005170458076618337,-0.0037722233428467535,0.0018244444078771805,4.419944763183594,2019-07-26 14:46:58:512,-178.6141843877496,-177.9565428394611,0,-23.840293884277344,36.735042572021484,-40.03369903564453
0.22467781603336334,-0.3929736316204071,9.8187894821167,-0.0030873573987962753,-0.004571366985688751,0.005820161711827037,4.42997670173645,2019-07-26 14:46:58:522,-178.6131089212561,-177.9498348246346,0,-23.840293884277344,36.735042572021484,-40.03369903564453
0.21749356389045715,-0.3690261244773865,9.806816101074219,0.0009083597100978372,-0.003239461087668304,-0.0005729858704630034,4.439971208572388,2019-07-26 14:46:58:532,-178.61361907259254,-177.94824793240562,0,-23.840293884277344,36.735042572021484,-40.03369903564453
0.1959408074617386,-0.3402891457080841,9.797237396240234,-0.0017554517608501525,-0.007235178261580997,-0.0016385103808199016,4.449939012527466,2019-07-26 14:46:58:542,-178.61438243211424,-177.948515172311,0,-23.840293884277344,36.735042572021484,-40.03369903564453
0.1959408074617386,-0.37621039152145386,9.785263061523438,-0.002820976271207051,-0.0024403177049006305,0.0012916821526987312,4.4599854946136475,2019-07-26 14:46:58:552,-178.6177753496029,-177.94391862689494,0,-23.840293884277344,36.735042572021484,-40.03369903564453
0.2605990469455719,-0.3474733829498291,9.770895004272461,0.006768744842153685,-0.002706698832489855,-0.004302321916786473,4.469954013824463,2019-07-26 14:46:58:562,-178.6133494062857,-177.94809495065903,0,-23.840293884277344,36.735042572021484,-40.03369903564453
0.22228306531906128,-0.3546576499938965,9.828369140625,-0.0004235460253761578,-0.004304985598025202,0.006619305094594711,4.479958772659302,2019-07-26 14:46:58:572,-178.61275187039982,-177.94756257711484,0,-23.840293884277344,36.735042572021484,-40.03369903564453
0.20312505960464478,-0.3618418872356415,9.821184158325195,-0.00015716488153228781,-0.005903272623634875,0.0004925387374217668,4.489963531494141,2019-07-26 14:46:58:582,-178.61348373986596,-177.94632315492663,0,-23.840293884277344,36.735042572021484,-40.03369903564453
0.18636181950569153,-0.39536839723587036,9.804421424865723,-0.001489070633260928,-0.0056368914960456505,-0.0016385103808199016,4.49999475479126,2019-07-26 14:46:58:592,-178.6162602075855,-177.94037335093313,0,-23.840293884277344,36.735042572021484,-40.03369903564453
