ACCELEROMETER X (m/s²),ACCELEROMETER Y (m/s²),ACCELEROMETER Z (m/s²),GYROSCOPE X (rad/s),GYROSCOPE Y (rad/s),GYROSCOPE Z (rad/s),Time since start in ms ,YYYY-MO-DD HH-MI-SS_SSS,Pitch (Deg),Roll (Deg),Heading (Deg),MagX,MagY,MagZ
0.23364615440368652,0.013441730290651321,9.775543212890625,-0.00851327504179126,0.003583092872295566,-0.04731222189823458,0.0,2019-07-25 15:09:12:680,-3.572616580013789,3.5984243250470067,0,-22.490842819213867,48.58021926879883,-49.479854583740234
0.30309388041496277,0.015836479142308235,9.813858985900879,-0.0031856519698581177,0.002517568101864343,-0.04544755140436675,0.009997129440307617,2019-07-25 15:09:12:690,-7.067197931985716,7.126394918883946,0,-22.490842819213867,48.58021926879883,-49.479854583740234
0.2695674002170563,0.008652230724692345,9.761174201965332,-0.005316700990571915,0.0019848058466858938,-0.04411564628656928,0.019985675811767578,2019-07-25 15:09:12:700,-10.495329268777029,10.585833190986982,0,-22.490842819213867,48.58021926879883,-49.479854583740234
0.259988397359848,0.04936297610402107,9.87612247467041,-0.0007882218215550968,-0.0025436735824052492,-0.04438202897460446,0.02999734878540039,2019-07-25 15:09:12:710,-13.853833545656945,13.968832145336508,0,-22.490842819213867,48.58021926879883,-49.479854583740234
0.2887254059314728,0.03499447554349899,9.80667495727539,-0.0047839387353934655,-0.0030764358375836983,-0.04438202897460446,0.03999900817871094,2019-07-25 15:09:12:720,-17.141301187428436,17.28805301609119,0,-22.490842819213867,48.58021926879883,-49.479854583740234
0.24083039164543152,0.08288946747779846,9.78512191772461,-0.004251176740289341,0.0003865190486412555,-0.04438202897460446,0.04999685287475586,2019-07-25 15:09:12:730,-20.370494685393474,20.534971687620722,0,-22.490842819213867,48.58021926879883,-49.479854583740234
0.2216724008321762,0.06612621992826462,9.787516593933105,-0.006648607148666687,-0.00041262439914499955,-0.04011993093317686,0.06000065803527832,2019-07-25 15:09:12:740,-23.536904202236986,23.7202649645333,0,-22.490842819213867,48.58021926879883,-49.479854583740234
0.2551988959312439,0.058941975235939026,9.799490928649902,-0.004251176740289341,-0.0012117678144219638,-0.0438492677597233,0.06998610496520996,2019-07-25 15:09:12:750,-26.635651447351062,26.84135085168748,0,-22.490842819213867,48.58021926879883,-49.479854583740234
0.24083039164543152,0.020625978708267212,9.789911270141602,-0.006115844893488239,0.0057141418930093625,-0.0438492677597233,0.07999682426452637,2019-07-25 15:09:12:760,-29.67796666814312,29.905547273408093,0,-22.490842819213867,48.58021926879883,-49.479854583740234
0.24561989307403564,0.051757726818323135,9.722858428955078,-0.0007882218215550968,0.0019848058466858938,-0.03878802581537939,0.09000396728515625,2019-07-25 15:09:12:770,-32.65658050965752,32.90177923064627,0,-22.490842819213867,48.58021926879883,-49.479854583740234
0.252804160118103,0.058941975235939026,9.761174201965332,-0.001320984076733546,0.0038494739998847904,-0.03745612069758192,0.09999656677246094,2019-07-25 15:09:12:780,-35.57593739688451,35.837565403425366,0,-22.190963745117188,48.880096435546875,-48.58021926879883
0.25040939450263977,0.03499447554349899,9.751595497131348,-0.0005218406614565815,0.004115855127474016,-0.04038631362121203,0.1100015640258789,2019-07-25 15:09:12:790,-38.437311564288926,38.71699505132692,0,-22.190963745117188,48.880096435546875,-48.58021926879883
0.2623831331729889,0.03978397697210312,9.746806144714355,-0.0018537463319119952,0.0049149985102416895,-0.04091907483609319,0.11998200416564941,2019-07-25 15:09:12:800,-41.240479205062265,41.53901668118114,0,-22.190963745117188,48.880096435546875,-48.58021926879883
0.2743569016456604,0.04217872768640518,9.84738540649414,-0.011177086317683507,-0.0012117678144219638,-0.041451836050974335,0.12999892234802246,2019-07-25 15:09:12:810,-43.98307009481427,44.30961468108351,0,-22.190963745117188,48.880096435546875,-48.58021926879883
0.2887254059314728,0.05654722452163696,9.761174201965332,0.0013428273291958624,0.0009192813363289952,-0.04038631362121203,0.14027786254882812,2019-07-25 15:09:12:820,-46.67005415193082,47.01600905786623,0,-22.190963745117188,48.880096435546875,-48.58021926879883
0.29830437898635864,0.023020729422569275,9.770753860473633,-0.004251176740289341,0.0003865190486412555,-0.041451836050974335,0.15001845359802246,2019-07-25 15:09:12:830,-49.301890146969626,49.67531411510244,0,-22.190963745117188,48.880096435546875,-48.58021926879883
0.267172634601593,0.02541547827422619,9.801885604858398,-0.0018537463319119952,0.003050330357042792,-0.03985354824514169,0.15999579429626465,2019-07-25 15:09:12:840,-51.88633442153984,52.27987509264776,0,-22.190963745117188,48.880096435546875,-48.58021926879883
0.267172634601593,0.013441730290651321,9.804280281066895,-0.00212012745950122,0.0027839492294535677,-0.045713934092401924,0.16998863220214844,2019-07-25 15:09:12:850,-54.41895062270754,54.83389613032839,0,-22.190963745117188,48.880096435546875,-48.58021926879883
0.24561989307403564,0.037389226257801056,9.75638484954834,-0.00212012745950122,0.004648617382652464,-0.03905440434222536,0.17999792098999023,2019-07-25 15:09:12:860,-56.90434155343898,57.334018311031144,0,-22.190963745117188,48.880096435546875,-48.58021926879883
0.25040939450263977,0.018231229856610298,9.770753860473633,-0.0039847956127001165,0.0017184247190966692,-0.041451836050974335,0.18999671936035156,2019-07-25 15:09:12:870,-59.33785787264099,59.787436974165495,0,-22.190963745117188,48.880096435546875,-48.58021926879883
0.28393590450286865,0.008652230724692345,9.78512191772461,-0.0039847956127001165,-0.0001462432553011296,-0.048377744327996866,0.20000147819519043,2019-07-25 15:09:12:880,-61.71777673606997,62.19291351200684,0,-22.190963745117188,48.880096435546875,-48.58021926879883
0.267172634601593,0.015836479142308235,9.768359184265137,-0.00212012745950122,0.0009192813363289952,-0.044914790189485604,0.20999622344970703,2019-07-25 15:09:12:890,-64.05260318592212,64.54838730638542,0,-22.190963745117188,48.880096435546875,-48.58021926879883
0.259988397359848,0.023020729422569275,9.794700622558594,-0.0007882218215550968,0.0033167117447063417,-0.04011993093317686,0.21999168395996094,2019-07-25 15:09:12:900,-66.34300281302379,66.85516867576347,0,-23.990232467651367,49.77973175048828,-46.78095245361328
0.23364615440368652,0.03499447554349899,9.761174201965332,-0.003718414485110892,-0.0012117678144219638,-0.04065269214805801,0.23000001907348633,2019-07-25 15:09:12:910,-68.5880380690779,69.11604675921777,0,-23.990232467651367,49.77973175048828,-46.78095245361328
0.23364615440368652,0.013441730290651321,9.768359184265137,-0.005050319862982691,0.002251186974275118,-0.041185453362939155,0.23999476432800293,2019-07-25 15:09:12:920,-70.79013713076249,71.33498324788712,0,-23.990232467651367,49.77973175048828,-46.78095245361328
0.22646190226078033,0.023020729422569275,9.763568878173828,-0.006115844893488239,0.002517568101864343,-0.04225097995389066,0.24999690055847168,2019-07-25 15:09:12:930,-72.94917403254755,73.50901649841784,0,-23.990232467651367,49.77973175048828,-46.78095245361328
0.21688289940357208,0.03259972855448723,9.787516593933105,-0.009312417904410284,0.0009192813363289952,-0.041185453362939155,0.259998083114624,2019-07-25 15:09:12:940,-75.06531844505334,75.64024895749776,0,-23.990232467651367,49.77973175048828,-46.78095245361328
0.18575115501880646,0.04696822538971901,9.739622116088867,-0.004517557607804241,0.002517568101864343,-0.04411564628656928,0.26998400688171387,2019-07-25 15:09:12:950,-77.14357178770094,77.7244510048058,0,-23.990232467651367,49.77973175048828,-46.78095245361328
0.2360409051179886,0.020625978708267212,9.818648338317871,-0.0026528897146796686,0.0006529002087397708,-0.041451836050974335,0.2799968719482422,2019-07-25 15:09:12:960,-79.17352485048269,79.76904628022638,0,-23.990232467651367,49.77973175048828,-46.78095245361328
0.21448814868927002,0.013441730290651321,9.83541202545166,-0.0026528897146796686,0.003050330357042792,-0.04305012385680698,0.2899966239929199,2019-07-25 15:09:12:970,-81.1667811937883,81.77358882792552,0,-23.990232467651367,49.77973175048828,-46.78095245361328
0.20490914583206177,0.04696822538971901,9.789911270141602,-0.004251176740289341,0.0006529002087397708,-0.04171821873900951,0.29999661445617676,2019-07-25 15:09:12:980,-83.1198309226609,83.7350064593732,0,-23.990232467651367,49.77973175048828,-46.78095245361328
0.19772490859031677,0.04936297610402107,9.799490928649902,-0.001320984076733546,-0.0009453866868327393,-0.04651307799531825,0.3100016117095947,2019-07-25 15:09:12:990,-85.03378513578377,85.65527615977587,0,-23.990232467651367,49.77973175048828,-46.78095245361328
0.2025144100189209,0.037389226257801056,9.782727241516113,-0.0005218406614565815,-0.0006790055592435148,-0.04305012385680698,0.31998229026794434,2019-07-25 15:09:13:000,-86.90901044352474,87.53808345704572,0,-23.990232467651367,49.77973175048828,-46.78095245361328
0.20011965930461884,0.023020729422569275,9.809069633483887,-0.0058494637658990135,-0.004674722603119046,-0.04198459726585548,0.3300013542175293,2019-07-25 15:09:13:010,-88.74482523481328,89.38792319154994,0,-23.990232467651367,49.77973175048828,-46.78095245361328
0.18096165359020233,0.015836479142308235,9.706095695495605,-0.0007882218215550968,0.0049149985102416895,-0.04038631362121203,0.339993953704834,2019-07-25 15:09:13:020,-90.55132433509547,91.19873730986257,0,-23.990232467651367,49.77973175048828,-46.78095245361328
0.20011965930461884,0.04936297610402107,9.737227439880371,-0.0010546029491443213,0.004648617382652464,-0.04464841166263963,0.3500025272369385,2019-07-25 15:09:13:030,-92.31936271744003,92.96954604819847,0,-21.741147994995117,48.130401611328125,-48.130401611328125
0.15940891206264496,0.02541547827422619,9.775543212890625,-0.0031856519698581177,0.004115855127474016,-0.04305012385680698,0.360029935836792,2019-07-25 15:09:13:040,-94.05660815704869,94.70896950483785,0,-21.741147994995117,48.130401611328125,-48.130401611328125
0.2480146437883377,0.03499447554349899,9.696516036987305,-0.0002554595176127117,0.003583092872295566,-0.045713934092401924,0.3699817657470703,2019-07-25 15:09:13:050,-95.74817470058066,96.41079730219258,0,-21.741147994995117,48.130401611328125,-48.130401611328125
0.21688289940357208,0.0541524738073349,9.789911270141602,-0.0058494637658990135,0.00118566246391822,-0.045713934092401924,0.37999749183654785,2019-07-25 15:09:13:060,-97.40849586641004,98.07953246903871,0,-21.741147994995117,48.130401611328125,-48.130401611328125
0.2480146437883377,0.03499447554349899,9.823437690734863,-0.0029192708422688934,0.005181379637830914,-0.04225097995389066,0.3899967670440674,2019-07-25 15:09:13:070,-99.0343100199651,99.71549873788854,0,-21.741147994995117,48.130401611328125,-48.130401611328125
0.23364615440368652,0.03259972855448723,9.770753860473633,-0.0031856519698581177,0.0003865190486412555,-0.04411564628656928,0.40000462532043457,2019-07-25 15:09:13:080,-100.62644418256802,101.31915562077633,0,-21.741147994995117,48.130401611328125,-48.130401611328125
0.24083039164543152,0.02541547827422619,9.828227996826172,-0.0058494637658990135,0.005980523020598588,-0.04438202897460446,0.40998220443725586,2019-07-25 15:09:13:090,-102.18919198692747,102.89308631636338,0,-21.741147994995117,48.130401611328125,-48.130401611328125
0.21927765011787415,0.04936297610402107,9.751595497131348,-0.0039847956127001165,0.0014520435915074442,-0.04518117287752078,0.4199864864349365,2019-07-25 15:09:13:100,-103.72046071580361,104.43166238328756,0,-21.741147994995117,48.130401611328125,-48.130401611328125
0.26477789878845215,0.0014679816085845232,9.816253662109375,-0.0002554595176127117,-0.0009453866868327393,-0.048377744327996866,0.42999911308288574,2019-07-25 15:09:13:110,-105.21461823225714,105.94300138980243,0,-21.741147994995117,48.130401611328125,-48.130401611328125
0.2815411388874054,0.02541547827422619,9.76596450805664,-0.004517557607804241,0.0033167117447063417,-0.04518117287752078,0.4399986267089844,2019-07-25 15:09:13:120,-106.67916187025708,107.42369565463089,0,-21.741147994995117,48.130401611328125,-48.130401611328125
0.22406715154647827,0.011046980507671833,9.758779525756836,-0.00212012745950122,-0.0001462432553011296,-0.04411564628656928,0.45043110847473145,2019-07-25 15:09:13:130,-108.11918671182023,108.8751664941208,0,-21.741147994995117,48.130401611328125,-48.130401611328125
0.20490914583206177,0.03259972855448723,9.818648338317871,-0.006382226021077464,0.002517568101864343,-0.04731222189823458,0.46002674102783203,2019-07-25 15:09:13:140,-109.53424834488547,110.29729722816266,0,-21.741147994995117,48.130401611328125,-48.130401611328125
0.26477789878845215,0.04696822538971901,9.763568878173828,-0.00798051278661281,0.00118566246391822,-0.03985354824514169,0.4699845314025879,2019-07-25 15:09:13:150,-110.91315788388782,111.69030096415675,0,-22.490842819213867,49.17997741699219,-47.380706787109375
0.25040939450263977,0.06133672222495079,9.758779525756836,0.0008100650740174133,0.003050330357042792,-0.048377744327996866,0.4799990653991699,2019-07-25 15:09:13:160,-112.26721233308814,113.04883712075929,0,-22.490842819213867,49.17997741699219,-47.380706787109375
0.2623831331729889,0.020625978708267212,9.734832763671875,-0.0031856519698581177,0.0027839492294535677,-0.047844983113115726,0.49001336097717285,2019-07-25 15:09:13:170,-113.59255509594452,114.38722373414808,0,-22.490842819213867,49.17997741699219,-47.380706787109375
0.24083039164543152,0.058941975235939026,9.761174201965332,-0.0047839387353934655,-0.001744530069600413,-0.04651307799531825,0.4999969005584717,2019-07-25 15:09:13:180,-114.89145944309908,115.69524158854782,0,-22.490842819213867,49.17997741699219,-47.380706787109375
0.24561989307403564,0.03499447554349899,9.789911270141602,-0.0058494637658990135,0.0017184247190966692,-0.04358288507168813,0.5099987983703613,2019-07-25 15:09:13:190,-116.16585138959502,116.98052573698581,0,-22.490842819213867,49.17997741699219,-47.380706787109375
0.2623831331729889,0.03978397697210312,9.722858428955078,-0.0058494637658990135,0.00012013789667006295,-0.04358288507168813,0.5199971199035645,2019-07-25 15:09:13:200,-117.41168538856319,118.23951030744513,0,-22.490842819213867,49.17997741699219,-47.380706787109375
0.2480146437883377,0.04936297610402107,9.763568878173828,-0.0047839387353934655,-0.0001462432553011296,-0.047844983113115726,0.5300090312957764,2019-07-25 15:09:13:210,-118.63426712342985,119.4716159672231,0,-22.490842819213867,49.17997741699219,-47.380706787109375
0.2935148775577545,0.03499447554349899,9.773148536682129,-0.00212012745950122,0.00118566246391822,-0.042517362641925835,0.5399956703186035,2019-07-25 15:09:13:220,-119.82784194323101,120.67926937142605,0,-22.490842819213867,49.17997741699219,-47.380706787109375
0.2695674002170563,0.03259972855448723,9.751595497131348,-0.004517557607804241,0.0009192813363289952,-0.0470458392101994,0.5499973297119141,2019-07-25 15:09:13:230,-121.0001324101992,121.86439020880502,0,-22.490842819213867,49.17997741699219,-47.380706787109375
0.267172634601593,0.02541547827422619,9.797096252441406,-0.0023865085870904443,0.003583092872295566,-0.041185453362939155,0.5599992275238037,2019-07-25 15:09:13:240,-122.15089998994753,123.02546997011538,0,-22.490842819213867,49.17997741699219,-47.380706787109375
0.2887254059314728,0.018231229856610298,9.84738540649414,-0.006115844893488239,0.00118566246391822,-0.04305012385680698,0.5699849128723145,2019-07-25 15:09:13:250,-123.2749581550085,124.16626817343295,0,-22.490842819213867,49.17997741699219,-47.380706787109375
0.2935148775577545,0.023020729422569275,9.775543212890625,-0.003718414485110892,-0.0006790055592435148,-0.046779460683353424,0.5800015926361084,2019-07-25 15:09:13:260,-124.3746808221113,125.28233563006047,0,-22.490842819213867,49.17997741699219,-47.380706787109375
0.2623831331729889,0.020625978708267212,9.804280281066895,-0.001320984076733546,0.0006529002087397708,-0.04411564628656928,0.5899996757507324,2019-07-25 15:09:13:270,-125.45689394812345,126.37501976348427,0,-22.490842819213867,49.17997741699219,-47.380706787109375
0.21448814868927002,0.02541547827422619,9.811464309692383,-0.006648607148666687,-0.0006790055592435148,-0.04065269214805801,0.6000008583068848,2019-07-25 15:09:13:280,-126.52232792396542,127.44828463666512,0,-22.041025161743164,49.03003692626953,-49.32991409301758
0.2695674002170563,0.020625978708267212,9.742016792297363,-0.001320984076733546,0.0017184247190966692,-0.041451836050974335,0.6099948883056641,2019-07-25 15:09:13:290,-127.56114560535448,128.49763408175588,0,-22.041025161743164,49.03003692626953,-49.32991409301758
0.20490914583206177,0.02781022898852825,9.80667495727539,-0.0015873652043227706,-0.00041262439914499955,-0.04225097995389066,0.6199884414672852,2019-07-25 15:09:13:300,-128.58575088708767,129.5253224964262,0,-22.041025161743164,49.03003692626953,-49.32991409301758
0.2480146437883377,0.0541524738073349,9.811464309692383,-0.004251176740289341,0.0038494739998847904,-0.04225097995389066,0.6299991607666016,2019-07-25 15:09:13:310,-129.58723932128518,130.5308810406125,0,-22.041025161743164,49.03003692626953,-49.32991409301758
0.2216724008321762,0.03978397697210312,9.74441146850586,-0.0018537463319119952,0.00012013789667006295,-0.03958716971829571,0.639998197555542,2019-07-25 15:09:13:320,-130.5694984253789,131.51662573693193,0,-22.041025161743164,49.03003692626953,-49.32991409301758
0.21927765011787415,0.030204977840185165,9.739622116088867,-0.007447750531434362,0.006513285275777036,-0.042517362641925835,0.6499967575073242,2019-07-25 15:09:13:330,-131.53597036891486,132.48692076540715,0,-22.041025161743164,49.03003692626953,-49.32991409301758
0.22646190226078033,0.023020729422569275,9.789911270141602,-0.0039847956127001165,0.002251186974275118,-0.045713934092401924,0.6600010395050049,2019-07-25 15:09:13:340,-132.4800127522708,133.43672617885107,0,-22.041025161743164,49.03003692626953,-49.32991409301758
0.22646190226078033,0.04217872768640518,9.80667495727539,-0.00212012745950122,0.002517568101864343,-0.04997603213382952,0.6699888706207275,2019-07-25 15:09:13:350,-133.4053668873114,134.36425207719674,0,-22.041025161743164,49.03003692626953,-49.32991409301758
0.23843564093112946,0.018231229856610298,9.75638484954834,-0.001320984076733546,0.004115855127474016,-0.04011993093317686,0.6800029277801514,2019-07-25 15:09:13:360,-134.3115744637708,135.27556850094624,0,-22.041025161743164,49.03003692626953,-49.32991409301758
0.22406715154647827,0.06612621992826462,9.809069633483887,0.000543683913918898,0.003050330357042792,-0.041185453362939155,0.6900002956390381,2019-07-25 15:09:13:370,-135.20088384820525,136.1620270501732,0,-22.041025161743164,49.03003692626953,-49.32991409301758
0.21688289940357208,0.030204977840185165,9.82583236694336,-0.0005218406614565815,0.00438223625506324,-0.042517362641925835,0.6999969482421875,2019-07-25 15:09:13:380,-136.0740365936475,137.0355568474287,0,-22.041025161743164,49.03003692626953,-49.32991409301758
0.2288566529750824,0.0541524738073349,9.799490928649902,-0.006382226021077464,0.0009192813363289952,-0.04970965360698355,0.71000075340271,2019-07-25 15:09:13:390,-136.92631546140515,137.89209836329223,0,-22.041025161743164,49.03003692626953,-49.32991409301758
0.252804160118103,0.06852097064256668,9.761174201965332,-0.003452033357521668,0.003050330357042792,-0.04518117287752078,0.7199892997741699,2019-07-25 15:09:13:400,-137.75982856940357,138.72814858290036,0,-22.041025161743164,49.03003692626953,-49.03003692626953
0.24561989307403564,0.03499447554349899,9.739622116088867,-0.00558308263830979,0.002251186974275118,-0.03985354824514169,0.7299821376800537,2019-07-25 15:09:13:410,-138.57700283769773,139.55260100074545,0,-22.041025161743164,49.03003692626953,-49.03003692626953
0.27675163745880127,0.04696822538971901,9.775543212890625,-0.006648607148666687,0.0017184247190966692,-0.045713934092401924,0.739999532699585,2019-07-25 15:09:13:420,-139.37399644079863,140.35978295854898,0,-22.041025161743164,49.03003692626953,-49.03003692626953
0.24083039164543152,0.03978397697210312,9.789911270141602,0.000543683913918898,0.0049149985102416895,-0.04225097995389066,0.7499966621398926,2019-07-25 15:09:13:430,-140.1610918123239,141.14762539404396,0,-22.041025161743164,49.03003692626953,-49.03003692626953
0.27675163745880127,0.044573474675416946,9.777937889099121,-0.0010546029491443213,0.0019848058466858938,-0.042517362641925835,0.7600016593933105,2019-07-25 15:09:13:440,-140.92656002584303,141.92004163287888,0,-22.041025161743164,49.03003692626953,-49.03003692626953
0.2695674002170563,0.06133672222495079,9.794700622558594,-0.003452033357521668,0.002251186974275118,-0.042517362641925835,0.7699828147888184,2019-07-25 15:09:13:450,-141.67776082689133,142.67639956006172,0,-22.041025161743164,49.03003692626953,-49.03003692626953
0.24322514235973358,0.030204977840185165,9.746806144714355,-0.006115844893488239,0.0003865190486412555,-0.04171821873900951,0.7800014019012451,2019-07-25 15:09:13:460,-142.41583340659096,143.4227608533035,0,-22.041025161743164,49.03003692626953,-49.03003692626953
0.259988397359848,0.051757726818323135,9.737227439880371,-0.0029192708422688934,0.003583092872295566,-0.04091907483609319,0.7899994850158691,2019-07-25 15:09:13:470,-143.13893905537202,144.1498534911835,0,-22.041025161743164,49.03003692626953,-49.03003692626953
0.24561989307403564,0.06133672222495079,9.797096252441406,-0.0058494637658990135,0.003050330357042792,-0.0438492677597233,0.7999989986419678,2019-07-25 15:09:13:480,-143.84915007776738,144.86296658267398,0,-22.041025161743164,49.03003692626953,-49.03003692626953
0.22646190226078033,0.04936297610402107,9.758779525756836,-0.00851327504179126,0.0017184247190966692,-0.03772249922442789,0.8099970817565918,2019-07-25 15:09:13:490,-144.54654447847798,145.56469017503875,0,-22.041025161743164,49.03003692626953,-49.03003692626953
0.27675163745880127,0.015836479142308235,9.82583236694336,-0.0026528897146796686,-0.00041262439914499955,-0.03639059410663042,0.8199863433837891,2019-07-25 15:09:13:500,-145.22311514342837,146.25303747377484,0,-22.041025161743164,49.03003692626953,-49.03003692626953
0.259988397359848,0.044573474675416946,9.837806701660156,-0.005050319862982691,0.00118566246391822,-0.0438492677597233,0.8299970626831055,2019-07-25 15:09:13:510,-145.88904269285925,146.92562359331197,0,-22.041025161743164,49.03003692626953,-49.03003692626953
0.24561989307403564,0.02541547827422619,9.732437133789062,-0.005316700990571915,0.003050330357042792,-0.04225097995389066,0.8400335311889648,2019-07-25 15:09:13:520,-146.54406722737048,147.58711486906466,0,-22.041025161743164,49.03003692626953,-49.03003692626953
0.21448814868927002,0.051757726818323135,9.749200820922852,-0.0010546029491443213,0.0033167117447063417,-0.041185453362939155,0.84999680519104,2019-07-25 15:09:13:530,-147.1898346221857,148.22987903804994,0,-22.490842819213867,48.880096435546875,-48.880096435546875
0.23125140368938446,0.020625978708267212,9.761174201965332,-0.0029192708422688934,0.0027839492294535677,-0.04091907483609319,0.8600013256072998,2019-07-25 15:09:13:540,-147.8204590785363,148.864499976322,0,-22.490842819213867,48.880096435546875,-48.880096435546875
0.2695674002170563,0.023020729422569275,9.809069633483887,-0.005316700990571915,0.00012013789667006295,-0.041451836050974335,0.8699822425842285,2019-07-25 15:09:13:550,-148.43263373426134,149.48750027648427,0,-22.490842819213867,48.880096435546875,-48.880096435546875
0.23125140368938446,0.044573474675416946,9.797096252441406,-0.0039847956127001165,0.0006529002087397708,-0.04305012385680698,0.8799965381622314,2019-07-25 15:09:13:560,-149.0373049293089,150.0947774344159,0,-22.490842819213867,48.880096435546875,-48.880096435546875
0.25759363174438477,0.011046980507671833,9.787516593933105,-0.0015873652043227706,0.0049149985102416895,-0.04171821873900951,0.8900015354156494,2019-07-25 15:09:13:570,-149.62916805324068,150.6924802623424,0,-22.490842819213867,48.880096435546875,-48.880096435546875
0.25040939450263977,0.018231229856610298,9.737227439880371,-0.0029192708422688934,0.003050330357042792,-0.04171821873900951,0.8999969959259033,2019-07-25 15:09:13:580,-150.20883399302272,151.278123558587,0,-22.490842819213867,48.880096435546875,-48.880096435546875
0.22646190226078033,0.03259972855448723,9.809069633483887,-0.0029192708422688934,0.004115855127474016,-0.03932078703026053,0.9099979400634766,2019-07-25 15:09:13:590,-150.78051753438285,151.85039205579207,0,-22.490842819213867,48.880096435546875,-48.880096435546875
0.24322514235973358,0.013441730290651321,9.763568878173828,-0.0031856519698581177,0.005181379637830914,-0.0438492677597233,0.9199855327606201,2019-07-25 15:09:13:600,-151.339272338774,152.41359312717367,0,-22.490842819213867,48.880096435546875,-48.880096435546875
0.17856690287590027,0.020625978708267212,9.852174758911133,-0.0047839387353934655,-0.0006790055592435148,-0.042517362641925835,0.9300041198730469,2019-07-25 15:09:13:610,-151.89133791424203,152.96561340932197,0,-22.490842819213867,48.880096435546875,-48.880096435546875
0.21688289940357208,0.044573474675416946,9.737227439880371,-0.0010546029491443213,0.004648617382652464,-0.04278374116877181,0.9399805068969727,2019-07-25 15:09:13:620,-152.4305957636462,153.50164635413967,0,-22.490842819213867,48.880096435546875,-48.880096435546875
0.22406715154647827,0.06373147666454315,9.758779525756836,-0.006914988276255913,0.00438223625506324,-0.04624669530728308,0.9499952793121338,2019-07-25 15:09:13:630,-152.95814184869482,154.02801841647496,0,-22.490842819213867,48.880096435546875,-48.880096435546875
0.2288566529750824,0.04217872768640518,9.770753860473633,-0.003718414485110892,0.0014520435915074442,-0.0481113658011509,0.9599990844726562,2019-07-25 15:09:13:640,-153.47295920401444,154.54460003002688,0,-22.490842819213867,48.880096435546875,-48.880096435546875
0.23843564093112946,0.020625978708267212,9.775543212890625,-0.007181369403845137,0.003583092872295566,-0.04651307799531825,0.9699850082397461,2019-07-25 15:09:13:650,-153.97756456032377,155.05531685320358,0,-22.64078140258789,49.03003692626953,-48.130401611328125
0.259988397359848,0.011046980507671833,9.770753860473633,-0.005050319862982691,0.004115855127474016,-0.04917688823091319,0.9800012111663818,2019-07-25 15:09:13:660,-154.46984377276632,155.55575526750604,0,-22.64078140258789,49.03003692626953,-48.130401611328125
0.2288566529750824,0.011046980507671833,9.794700622558594,-0.0039847956127001165,0.0017184247190966692,-0.043316502383652956,0.9899914264678955,2019-07-25 15:09:13:670,-154.95464099312426,156.04558300662822,0,-22.64078140258789,49.03003692626953,-48.130401611328125
0.20011965930461884,0.020625978708267212,9.804280281066895,-0.005050319862982691,0.0006529002087397708,-0.04438202897460446,1.0000033378601074,2019-07-25 15:09:13:680,-155.4325286515591,156.52509972944154,0,-22.64078140258789,49.03003692626953,-48.130401611328125
0.20011965930461884,0.011046980507671833,9.789911270141602,-0.006115844893488239,0.0006529002087397708,-0.041185453362939155,1.0099925994873047,2019-07-25 15:09:13:690,-155.90082341071937,156.99673503001222,0,-22.64078140258789,49.03003692626953,-48.130401611328125
0.2216724008321762,0.04217872768640518,9.837806701660156,-0.0010546029491443213,0.007046047530955486,-0.048377744327996866,1.0200037956237793,2019-07-25 15:09:13:700,-156.3609515082695,157.45248016870013,0,-22.64078140258789,49.03003692626953,-48.130401611328125
0.2623831331729889,0.03978397697210312,9.775543212890625,-0.0018537463319119952,-0.0009453866868327393,-0.03958716971829571,1.0300049781799316,2019-07-25 15:09:13:710,-156.80245170505637,157.89980800492316,0,-22.64078140258789,49.03003692626953,-48.130401611328125
0.22406715154647827,0.008652230724692345,9.799490928649902,-0.005316700990571915,-0.003609198092762148,-0.04624669530728308,1.039996862411499,2019-07-25 15:09:13:720,-157.23818075116142,158.34378298334258,0,-22.64078140258789,49.03003692626953,-48.130401611328125
0.16180366277694702,0.03978397697210312,9.794700622558594,-0.001320984076733546,0.002517568101864343,-0.04624669530728308,1.0500307083129883,2019-07-25 15:09:13:730,-157.67590728839696,158.77299712669074,0,-22.64078140258789,49.03003692626953,-48.130401611328125
0.2025144100189209,0.018231229856610298,9.761174201965332,-0.0039847956127001165,0.0038494739998847904,-0.04438202897460446,1.0599820613861084,2019-07-25 15:09:13:740,-158.1007692803792,159.19762349943548,0,-22.64078140258789,49.03003692626953,-48.130401611328125
0.2695674002170563,0.020625978708267212,9.861754417419434,-0.0039847956127001165,-0.0009453866868327393,-0.047844983113115726,1.0699849128723145,2019-07-25 15:09:13:750,-158.5069075301934,159.6135124319389,0,-22.64078140258789,49.03003692626953,-48.130401611328125
0.21448814868927002,0.03978397697210312,9.777937889099121,0.0016092084567850867,0.0014520435915074442,-0.047844983113115726,1.080009937286377,2019-07-25 15:09:13:760,-158.91245404830096,160.01567393640065,0,-22.64078140258789,49.03003692626953,-48.130401611328125
0.252804160118103,0.06852097064256668,9.770753860473633,-0.0002554595176127117,0.0019848058466858938,-0.04358288507168813,1.0899968147277832,2019-07-25 15:09:13:770,-159.30567567134787,160.40746769085024,0,-22.64078140258789,49.03003692626953,-48.130401611328125
0.259988397359848,0.03499447554349899,9.789911270141602,-0.003452033357521668,0.0057141418930093625,-0.04198459726585548,1.09999680519104,2019-07-25 15:09:13:780,-159.69234597497046,160.79716053815187,0,-22.64078140258789,48.43028259277344,-49.03003692626953
0.27196213603019714,0.013441730290651321,9.801885604858398,-0.0031856519698581177,0.0006529002087397708,-0.04651307799531825,1.1099967956542969,2019-07-25 15:09:13:790,-160.0670793535939,161.18143462456896,0,-22.64078140258789,48.43028259277344,-49.03003692626953
0.27196213603019714,0.0541524738073349,9.78512191772461,-0.003452033357521668,0.0019848058466858938,-0.04544755140436675,1.119997262954712,2019-07-25 15:09:13:800,-160.43501155257854,161.5534027141122,0,-22.64078140258789,48.43028259277344,-49.03003692626953
0.2551988959312439,0.04217872768640518,9.76596450805664,-0.0023865085870904443,0.00012013789667006295,-0.04411564628656928,1.1299993991851807,2019-07-25 15:09:13:810,-160.79644116064432,161.91872584425516,0,-22.64078140258789,48.43028259277344,-49.03003692626953
0.2551988959312439,0.020625978708267212,9.734832763671875,-0.0018537463319119952,0.005980523020598588,-0.04997603213382952,1.1400010585784912,2019-07-25 15:09:13:820,-161.15383762163407,162.2789644355869,0,-22.64078140258789,48.43028259277344,-49.03003692626953
0.2360409051179886,0.02541547827422619,9.75638484954834,-0.006914988276255913,0.004115855127474016,-0.0470458392101994,1.1499924659729004,2019-07-25 15:09:13:830,-161.50535165136918,162.6342794524777,0,-22.64078140258789,48.43028259277344,-49.03003692626953
0.25040939450263977,0.023020729422569275,9.768359184265137,-0.0029192708422688934,0.005447760765420138,-0.04171821873900951,1.160024642944336,2019-07-25 15:09:13:840,-161.84894454957868,162.98053777264727,0,-22.64078140258789,48.43028259277344,-49.03003692626953
0.24083039164543152,0.04696822538971901,9.78512191772461,-0.0026528897146796686,0.0019848058466858938,-0.04225097995389066,1.16998291015625,2019-07-25 15:09:13:850,-162.184878011963,163.31691008421367,0,-22.64078140258789,48.43028259277344,-49.03003692626953
0.24083039164543152,0.04217872768640518,9.797096252441406,1.0921627247073539e-05,-0.0006790055592435148,-0.04411564628656928,1.180018424987793,2019-07-25 15:09:13:860,-162.51263482553975,163.64563233150005,0,-22.64078140258789,48.43028259277344,-49.03003692626953
0.26477789878845215,0.02781022898852825,9.775543212890625,-0.005050319862982691,0.00784519091372316,-0.044914790189485604,1.1899967193603516,2019-07-25 15:09:13:870,-162.8357472376938,163.97228929603804,0,-22.64078140258789,48.43028259277344,-49.03003692626953
0.25759363174438477,0.04936297610402107,9.753990173339844,-0.006115844893488239,0.0038494739998847904,-0.04091907483609319,1.1999969482421875,2019-07-25 15:09:13:880,-163.15093830511685,164.29047842923126,0,-22.64078140258789,48.43028259277344,-49.03003692626953
0.27675163745880127,0.05654722452163696,9.833017349243164,-0.0047839387353934655,0.00118566246391822,-0.03905440434222536,1.209977149963379,2019-07-25 15:09:13:890,-163.45634052761457,164.60075991613502,0,-22.64078140258789,48.43028259277344,-49.03003692626953
0.21927765011787415,0.03259972855448723,9.78512191772461,-0.0026528897146796686,-0.0001462432553011296,-0.03878802581537939,1.2199821472167969,2019-07-25 15:09:13:900,-163.76145670125334,164.90641738283463,0,-21.741147994995117,49.92966842651367,-48.130401611328125
0.2288566529750824,0.04217872768640518,9.713279724121094,-0.0031856519698581177,0.003050330357042792,-0.03958716971829571,1.229996919631958,2019-07-25 15:09:13:910,-164.06094868672875,165.20510444998115,0,-21.741147994995117,49.92966842651367,-48.130401611328125
0.22406715154647827,0.04696822538971901,9.818648338317871,-0.003718414485110892,-0.0009453866868327393,-0.037988881912463066,1.2399976253509521,2019-07-25 15:09:13:920,-164.353052933383,165.49760886343128,0,-21.741147994995117,49.92966842651367,-48.130401611328125
0.2096986472606659,0.044573474675416946,9.782727241516113,-0.008779655649231834,0.00012013789667006295,-0.041451836050974335,1.2499969005584717,2019-07-25 15:09:13:930,-164.64149969774888,165.78736494358256,0,-21.741147994995117,49.92966842651367,-48.130401611328125
0.22646190226078033,0.05654722452163696,9.753990173339844,-0.007714131659023586,0.0057141418930093625,-0.04358288507168813,1.2600252628326416,2019-07-25 15:09:13:940,-164.9252869306923,166.06931821313486,0,-21.741147994995117,49.92966842651367,-48.130401611328125
0.22646190226078033,0.06133672222495079,9.746806144714355,-0.003718414485110892,0.0009192813363289952,-0.04011993093317686,1.2699742317199707,2019-07-25 15:09:13:950,-165.20067477807396,166.34279791885356,0,-21.741147994995117,49.92966842651367,-48.130401611328125
0.2025144100189209,0.015836479142308235,9.753990173339844,-0.005316700990571915,-0.0020109111971896377,-0.04065269214805801,1.2799956798553467,2019-07-25 15:09:13:960,-165.4717414123915,166.61707318855215,0,-21.741147994995117,49.92966842651367,-48.130401611328125
0.21688289940357208,0.04936297610402107,9.746806144714355,-0.003718414485110892,0.0019848058466858938,-0.03825526043930904,1.2899940013885498,2019-07-25 15:09:13:970,-165.73792651267524,166.88101578662747,0,-21.741147994995117,49.92966842651367,-48.130401611328125
0.2288566529750824,0.03978397697210312,9.804280281066895,-0.003718414485110892,0.004648617382652464,-0.04358288507168813,1.299997329711914,2019-07-25 15:09:13:980,-165.99903533734232,167.14083416003518,0,-21.741147994995117,49.92966842651367,-48.130401611328125
0.19772490859031677,0.018231229856610298,9.792305946350098,-0.003718414485110892,0.002251186974275118,-0.04544755140436675,1.309997320175171,2019-07-25 15:09:13:990,-166.25718364000983,167.39797190632424,0,-21.741147994995117,49.92966842651367,-48.130401611328125
0.22646190226078033,0.04936297610402107,9.758779525756836,-0.003718414485110892,0.0014520435915074442,-0.037988881912463066,1.320000410079956,2019-07-25 15:09:14:000,-166.5062682337202,167.64630464598272,0,-21.741147994995117,49.92966842651367,-48.130401611328125
0.20011965930461884,0.013441730290651321,9.837806701660156,-0.0023865085870904443,-0.00041262439914499955,-0.03905440434222536,1.3299965858459473,2019-07-25 15:09:14:010,-166.75260438607762,167.89315235941467,0,-21.741147994995117,49.92966842651367,-48.130401611328125
0.20730389654636383,0.037389226257801056,9.859359741210938,-0.003718414485110892,0.004115855127474016,-0.04225097995389066,1.3400051593780518,2019-07-25 15:09:14:020,-166.99577473923205,168.13303340133677,0,-21.741147994995117,49.92966842651367,-48.130401611328125
0.15461941063404083,0.058941975235939026,9.773148536682129,-0.001320984076733546,-0.0001462432553011296,-0.03852164312734421,1.349992036819458,2019-07-25 15:09:14:030,-167.2376494029818,168.36420254394685,0,-20.841514587402344,48.130401611328125,-50.52942657470703
0.20490914583206177,0.09007371962070465,9.78512191772461,-0.00212012745950122,0.00438223625506324,-0.03932078703026053,1.3600139617919922,2019-07-25 15:09:14:040,-167.47136944578403,168.58756350087447,0,-20.841514587402344,48.130401611328125,-50.52942657470703
0.2216724008321762,0.037389226257801056,9.83541202545166,-0.004251176740289341,0.003583092872295566,-0.04624669530728308,1.3700029850006104,2019-07-25 15:09:14:050,-167.6981292568302,168.8138404742702,0,-20.841514587402344,48.130401611328125,-50.52942657470703
0.2288566529750824,0.023020729422569275,9.811464309692383,0.0008100650740174133,0.00012013789667006295,-0.0438492677597233,1.3799920082092285,2019-07-25 15:09:14:060,-167.91750992358482,169.03442064621763,0,-20.841514587402344,48.130401611328125,-50.52942657470703
0.2096986472606659,0.04936297610402107,9.856964111328125,-0.0029192708422688934,0.0009192813363289952,-0.04038631362121203,1.3901162147521973,2019-07-25 15:09:14:070,-168.13530759494122,169.24965314351508,0,-20.841514587402344,48.130401611328125,-50.52942657470703
0.23125140368938446,0.011046980507671833,9.770753860473633,-0.0026528897146796686,0.0006529002087397708,-0.04411564628656928,1.3999862670898438,2019-07-25 15:09:14:080,-168.34584714212124,169.46483472657877,0,-20.841514587402344,48.130401611328125,-50.52942657470703
0.22406715154647827,0.07091572135686874,9.75638484954834,-0.001320984076733546,0.0009192813363289952,-0.0438492677597233,1.4099960327148438,2019-07-25 15:09:14:090,-168.55313416974928,169.66795137746348,0,-20.841514587402344,48.130401611328125,-50.52942657470703
0.2623831331729889,0.06612621992826462,9.78512191772461,-0.0023865085870904443,0.005980523020598588,-0.04544755140436675,1.4199838638305664,2019-07-25 15:09:14:100,-168.75470566535932,169.86818695225682,0,-20.841514587402344,48.130401611328125,-50.52942657470703
0.2216724008321762,0.03499447554349899,9.792305946350098,-0.007447750531434362,0.0014520435915074442,-0.045713934092401924,1.43001389503479,2019-07-25 15:09:14:110,-168.95449319486846,170.07092256637085,0,-20.841514587402344,48.130401611328125,-50.52942657470703
0.25040939450263977,0.06133672222495079,9.751595497131348,-0.004251176740289341,0.00012013789667006295,-0.04997603213382952,1.4399964809417725,2019-07-25 15:09:14:120,-169.14605138416587,170.26467936977932,0,-20.841514587402344,48.130401611328125,-50.52942657470703
0.2959096431732178,0.04696822538971901,9.789911270141602,-0.0005218406614565815,0.002251186974275118,-0.045980316780437104,1.4500133991241455,2019-07-25 15:09:14:130,-169.3297706562274,170.45418167125732,0,-20.841514587402344,48.130401611328125,-50.52942657470703
0.27675163745880127,0.07570522278547287,9.873727798461914,-0.0005218406614565815,-0.0006790055592435148,-0.04970965360698355,1.4599964618682861,2019-07-25 15:09:14:140,-169.51068406043703,170.636604602712,0,-20.841514587402344,48.130401611328125,-50.52942657470703
0.22646190226078033,0.03499447554349899,9.804280281066895,0.0002773027863296734,0.002517568101864343,-0.04544755140436675,1.4699976444244385,2019-07-25 15:09:14:150,-169.69542019679324,170.8196266811889,0,-22.790719985961914,48.28034210205078,-49.479854583740234
0.24561989307403564,0.023020729422569275,9.768359184265137,-0.0031856519698581177,0.00012013789667006295,-0.04731222189823458,1.4800019264221191,2019-07-25 15:09:14:160,-169.87277194657952,171.00232312102094,0,-22.790719985961914,48.28034210205078,-49.479854583740234
0.2288566529750824,0.05654722452163696,9.804280281066895,-0.009312417904410284,-0.0009453866868327393,-0.04651307799531825,1.4899957180023193,2019-07-25 15:09:14:170,-170.04804229770286,171.18089320605154,0,-22.790719985961914,48.28034210205078,-49.479854583740234
0.2288566529750824,0.011046980507671833,9.751595497131348,-0.004251176740289341,0.0038494739998847904,-0.052107081154543315,1.4999966621398926,2019-07-25 15:09:14:180,-170.22235498917024,171.35836446078187,0,-22.790719985961914,48.28034210205078,-49.479854583740234
0.23843564093112946,0.011046980507671833,9.780332565307617,-0.0026528897146796686,-0.0033428169651729235,-0.04970965360698355,1.5100014209747314,2019-07-25 15:09:14:190,-170.38809915839693,171.53139315217936,0,-22.790719985961914,48.28034210205078,-49.479854583740234
0.24083039164543152,0.044573474675416946,9.84738540649414,-0.00212012745950122,-0.0012117678144219638,-0.04970965360698355,1.5199863910675049,2019-07-25 15:09:14:200,-170.55163854735466,171.69676708033572,0,-22.790719985961914,48.28034210205078,-49.479854583740234
0.21448814868927002,0.011046980507671833,9.777937889099121,-0.0002554595176127117,0.0027839492294535677,-0.045980316780437104,1.5300183296203613,2019-07-25 15:09:14:210,-170.71704126061306,171.86168099781574,0,-22.790719985961914,48.28034210205078,-49.479854583740234
0.2743569016456604,0.03259972855448723,9.76596450805664,-0.007181369403845137,-0.0009453866868327393,-0.051307937251626995,1.5399954319000244,2019-07-25 15:09:14:220,-170.8699868810284,172.0246453116772,0,-22.790719985961914,48.28034210205078,-49.479854583740234
0.2743569016456604,0.013441730290651321,9.780332565307617,-0.0007882218215550968,0.0014520435915074442,-0.0481113658011509,1.5499985218048096,2019-07-25 15:09:14:230,-171.02126603517485,172.1830202243203,0,-22.790719985961914,48.28034210205078,-49.479854583740234
0.29830437898635864,0.020625978708267212,9.746806144714355,-0.006914988276255913,0.0019848058466858938,-0.04065269214805801,1.5599994659423828,2019-07-25 15:09:14:240,-171.16689508589545,172.34081798495265,0,-22.790719985961914,48.28034210205078,-49.479854583740234
0.26477789878845215,0.02541547827422619,9.816253662109375,0.0002773027863296734,0.003050330357042792,-0.05050879334871067,1.5699942111968994,2019-07-25 15:09:14:250,-171.31436727488472,172.49087909330487,0,-22.790719985961914,48.28034210205078,-49.479854583740234
0.28393590450286865,0.020625978708267212,9.76596450805664,-0.004517557607804241,0.003050330357042792,-0.04198459726585548,1.580000638961792,2019-07-25 15:09:14:260,-171.45648678984003,172.6411795435251,0,-22.790719985961914,48.28034210205078,-49.479854583740234
0.27675163745880127,0.037389226257801056,9.782727241516113,-0.0002554595176127117,0.004648617382652464,-0.04305012385680698,1.589994192123413,2019-07-25 15:09:14:270,-171.59755645658905,172.78411967413967,0,-22.790719985961914,48.28034210205078,-49.479854583740234
0.23843564093112946,0.03978397697210312,9.854569435119629,-0.0015873652043227706,0.0003865190486412555,-0.04651307799531825,1.6000044345855713,2019-07-25 15:09:14:280,-171.73810205659012,172.92470333526379,0,-23.090599060058594,48.58021926879883,-47.980464935302734
0.2623831331729889,0.020625978708267212,9.821043014526367,1.0921627247073539e-05,0.00118566246391822,-0.04464841166263963,1.6099967956542969,2019-07-25 15:09:14:290,-171.8733977706828,173.0637965128958,0,-23.090599060058594,48.58021926879883,-47.980464935302734
0.22646190226078033,0.04217872768640518,9.76596450805664,0.000543683913918898,0.0033167117447063417,-0.04464841166263963,1.619992971420288,2019-07-25 15:09:14:300,-172.01122367999687,173.197266298447,0,-23.090599060058594,48.58021926879883,-47.980464935302734
0.2743569016456604,0.0733104720711708,9.780332565307617,-0.00558308263830979,0.0019848058466858938,-0.04464841166263963,1.6300010681152344,2019-07-25 15:09:14:310,-172.1399778938679,173.3278691214848,0,-23.090599060058594,48.58021926879883,-47.980464935302734
0.23125140368938446,0.10444221645593643,9.797096252441406,-0.00851327504179126,0.005181379637830914,-0.045713934092401924,1.6399967670440674,2019-07-25 15:09:14:320,-172.27304316535415,173.45387427320492,0,-23.090599060058594,48.58021926879883,-47.980464935302734
0.24561989307403564,0.06612621992826462,9.789911270141602,-0.0015873652043227706,0.004648617382652464,-0.04757860042508055,1.6499969959259033,2019-07-25 15:09:14:330,-172.40144861322224,173.57794811146533,0,-23.090599060058594,48.58021926879883,-47.980464935302734
0.27196213603019714,0.0996527224779129,9.746806144714355,-0.0007882218215550968,0.0014520435915074442,-0.04970965360698355,1.6600050926208496,2019-07-25 15:09:14:340,-172.52226978515276,173.69511649845288,0,-23.090599060058594,48.58021926879883,-47.980464935302734
0.25040939450263977,0.08288946747779846,9.84738540649414,-0.001320984076733546,0.0038494739998847904,-0.044914790189485604,1.6699838638305664,2019-07-25 15:09:14:350,-172.6448480393311,173.81230891259221,0,-23.090599060058594,48.58021926879883,-47.980464935302734
0.2480146437883377,0.06133672222495079,9.792305946350098,-0.0047839387353934655,0.003050330357042792,-0.04225097995389066,1.679997444152832,2019-07-25 15:09:14:360,-172.76464918557235,173.93157490302602,0,-23.090599060058594,48.58021926879883,-47.980464935302734
0.2935148775577545,0.037389226257801056,9.859359741210938,-0.005050319862982691,0.0014520435915074442,-0.04544755140436675,1.6899902820587158,2019-07-25 15:09:14:370,-172.8760669019641,174.05143153608932,0,-23.090599060058594,48.58021926879883,-47.980464935302734
0.2695674002170563,0.04936297610402107,9.737227439880371,-0.004251176740289341,0.003583092872295566,-0.04278374116877181,1.6999962329864502,2019-07-25 15:09:14:380,-172.98884300169365,174.16698217455024,0,-23.090599060058594,48.58021926879883,-47.980464935302734
0.2551988959312439,0.03259972855448723,9.797096252441406,-0.003452033357521668,0.0033167117447063417,-0.04278374116877181,1.7100226879119873,2019-07-25 15:09:14:390,-173.10109085325746,174.28177296360377,0,-23.090599060058594,48.58021926879883,-47.980464935302734
0.28393590450286865,-0.012900516390800476,9.809069633483887,-0.0047839387353934655,0.002517568101864343,-0.04358288507168813,1.7199819087982178,2019-07-25 15:09:14:400,-173.20731616876057,167.20031978929646,0,-22.64078140258789,49.03003692626953,-48.130401611328125
0.2480146437883377,-0.02247951552271843,9.753990173339844,0.0002773027863296734,0.0049149985102416895,-0.04225097995389066,1.7300136089324951,2019-07-25 15:09:14:410,-173.31680744763898,160.25879812236894,0,-22.64078140258789,49.03003692626953,-48.130401611328125
0.267172634601593,-0.0081110168248415,9.780332565307617,-0.00558308263830979,0.0057141418930093625,-0.03958716971829571,1.739997148513794,2019-07-25 15:09:14:420,-173.4223789217329,153.4577022225544,0,-22.64078140258789,49.03003692626953,-48.130401611328125
0.25759363174438477,0.006257480941712856,9.792305946350098,-0.007181369403845137,-0.0009453866868327393,-0.03852164312734421,1.7499945163726807,2019-07-25 15:09:14:430,-173.52326346840667,153.99184718281785,0,-22.64078140258789,49.03003692626953,-48.130401611328125
0.23364615440368652,-0.03205851465463638,9.789911270141602,-0.0002554595176127117,-0.0012117678144219638,-0.03745612069758192,1.7599966526031494,2019-07-25 15:09:14:440,-173.62477440143843,147.31590616690949,0,-22.64078140258789,49.03003692626953,-48.130401611328125
0.20730389654636383,0.013441730290651321,9.75638484954834,-0.008779655649231834,0.0006529002087397708,-0.036923355321511565,1.7699861526489258,2019-07-25 15:09:14:450,-173.72830035270678,147.97293386297918,0,-22.64078140258789,49.03003692626953,-48.130401611328125
0.1953301578760147,0.030204977840185165,9.787516593933105,-0.0002554595176127117,0.0014520435915074442,-0.03319402057555972,1.7800161838531494,2019-07-25 15:09:14:460,-173.83168603194613,148.61008269022776,0,-22.64078140258789,49.03003692626953,-48.130401611328125
0.2623831331729889,0.02781022898852825,9.828227996826172,-0.003718414485110892,-0.00041262439914499955,-0.02680087351341833,1.78999662399292,2019-07-25 15:09:14:470,-173.9242359575189,149.23672233105412,0,-22.64078140258789,49.03003692626953,-48.130401611328125
0.19772490859031677,0.044573474675416946,9.770753860473633,-0.0018537463319119952,0.0017184247190966692,-0.032394876672643395,1.7999982833862305,2019-07-25 15:09:14:480,-174.02353024706332,149.84780138515538,0,-22.64078140258789,49.03003692626953,-48.130401611328125
0.24561989307403564,0.07809997349977493,9.799490928649902,-0.005316700990571915,0.0038494739998847904,-0.035325071676868124,1.8099968433380127,2019-07-25 15:09:14:490,-174.1165049517289,150.44469772429545,0,-22.64078140258789,49.03003692626953,-48.130401611328125
0.2288566529750824,0.11402121931314468,9.821043014526367,-0.0018537463319119952,0.00118566246391822,-0.03212849606520282,1.8200056552886963,2019-07-25 15:09:14:500,-174.20814311114705,151.02354220795118,0,-22.64078140258789,49.03003692626953,-48.130401611328125
0.24083039164543152,0.13557396829128265,9.818648338317871,-0.0039847956127001165,-0.00041262439914499955,-0.03612421141859524,1.829984426498413,2019-07-25 15:09:14:510,-174.29564783472577,151.58948249923225,0,-22.64078140258789,49.03003692626953,-48.130401611328125
0.20490914583206177,0.06852097064256668,9.775543212890625,-0.003452033357521668,0.003583092872295566,-0.03718973800954674,1.8400020599365234,2019-07-25 15:09:14:520,-174.3877338407585,152.15160249740183,0,-22.64078140258789,49.03003692626953,-48.130401611328125
0.21688289940357208,0.02541547827422619,9.804280281066895,-0.004517557607804241,0.007578809786133935,-0.03452592569335719,1.84999418258667,2019-07-25 15:09:14:530,-174.47888635569487,152.70813451981027,0,-23.090599060058594,48.28034210205078,-49.479854583740234
0.26477789878845215,0.03259972855448723,9.82583236694336,-0.00558308263830979,-0.002277292454816025,-0.04091907483609319,1.860004186630249,2019-07-25 15:09:14:540,-174.55715699710552,153.25330800284013,0,-23.090599060058594,48.28034210205078,-49.479854583740234
0.22646190226078033,0.037389226257801056,9.780332565307617,-0.0018537463319119952,0.003050330357042792,-0.03612421141859524,1.8699891567230225,2019-07-25 15:09:14:550,-174.64119530315332,153.7849004558623,0,-23.090599060058594,48.28034210205078,-49.479854583740234
0.20011965930461884,0.0014679816085845232,9.775543212890625,0.004273019862714496,0.0009192813363289952,-0.03878802581537939,1.8799970149993896,2019-07-25 15:09:14:560,-174.72543268690777,154.306629185705,0,-23.090599060058594,48.28034210205078,-49.479854583740234
0.17856690287590027,-0.005716267507523298,9.801885604858398,-0.004251176740289341,0.0027839492294535677,-0.04225097995389066,1.889997959136963,2019-07-25 15:09:14:570,-174.8116138331958,147.62355213274364,0,-23.090599060058594,48.28034210205078,-49.479854583740234
0.18096165359020233,-0.02247951552271843,9.797096252441406,-0.006382226021077464,0.0019848058466858938,-0.04358288507168813,1.8999967575073242,2019-07-25 15:09:14:580,-174.89533214796538,141.07729357854842,0,-23.090599060058594,48.28034210205078,-49.479854583740234
0.16180366277694702,-0.0081110168248415,9.844990730285645,-0.0031856519698581177,0.0049149985102416895,-0.04305012385680698,1.9099979400634766,2019-07-25 15:09:14:590,-174.98135402469876,134.6584807458456,0,-23.090599060058594,48.28034210205078,-49.479854583740234
0.1833564043045044,-0.015295266173779964,9.775543212890625,-0.006382226021077464,0.0038494739998847904,-0.045713934092401924,1.920003890991211,2019-07-25 15:09:14:600,-175.06239869175616,128.37068982570358,0,-23.090599060058594,48.28034210205078,-49.479854583740234
0.2288566529750824,0.04936297610402107,9.811464309692383,-0.004251176740289341,0.00012013789667006295,-0.0481113658011509,1.9299969673156738,2019-07-25 15:09:14:610,-175.13449399715344,129.39989617865896,0,-23.090599060058594,48.28034210205078,-49.479854583740234
0.21448814868927002,0.05654722452163696,9.84738540649414,-0.0007882218215550968,0.002517568101864343,-0.04970965360698355,1.9400041103363037,2019-07-25 15:09:14:620,-175.20826323503218,130.4057609700603,0,-23.090599060058594,48.28034210205078,-49.479854583740234
0.18575115501880646,0.06133672222495079,9.833017349243164,-0.0047839387353934655,0.0014520435915074442,-0.050242414821864693,1.9499967098236084,2019-07-25 15:09:14:630,-175.28326828035335,131.39318200022046,0,-23.090599060058594,48.28034210205078,-49.479854583740234
0.21927765011787415,0.044573474675416946,9.804280281066895,-0.0023865085870904443,0.003050330357042792,-0.051307937251626995,1.959993839263916,2019-07-25 15:09:14:640,-175.35369047407855,132.36144832455489,0,-23.090599060058594,48.28034210205078,-49.479854583740234
0.22406715154647827,0.05654722452163696,9.75638484954834,-0.0026528897146796686,0.00012013789667006295,-0.04864412701603205,1.9699974060058594,2019-07-25 15:09:14:650,-175.4203714370964,133.30906792279177,0,-22.490842819213867,49.479854583740234,-47.980464935302734
0.2623831331729889,0.04936297610402107,9.6989107131958,-0.0026528897146796686,-0.0014781489420111885,-0.05157431993966217,1.979997158050537,2019-07-25 15:09:14:660,-175.4801413321451,134.2385439906073,0,-22.490842819213867,49.479854583740234,-47.980464935302734
0.25040939450263977,0.06133672222495079,9.746806144714355,-0.00798051278661281,0.005447760765420138,-0.052107081154543315,1.9899969100952148,2019-07-25 15:09:14:670,-175.5441636037185,135.15104288677097,0,-22.490842819213867,49.479854583740234,-47.980464935302734
0.21209339797496796,0.020625978708267212,9.78512191772461,-0.0026528897146796686,0.003050330357042792,-0.048910509704067226,2.0000081062316895,2019-07-25 15:09:14:680,-175.61016107067837,136.04709782821797,0,-22.490842819213867,49.479854583740234,-47.980464935302734
0.23125140368938446,0.04696822538971901,9.782727241516113,-0.0023865085870904443,-0.0006790055592435148,-0.04997603213382952,2.0099973678588867,2019-07-25 15:09:14:690,-175.670494034307,136.9219927971792,0,-22.490842819213867,49.479854583740234,-47.980464935302734
0.21688289940357208,0.04217872768640518,9.761174201965332,-0.007714131659023586,0.003583092872295566,-0.04518117287752078,2.0201051235198975,2019-07-25 15:09:14:700,-175.73366089888955,137.78297953783866,0,-22.490842819213867,49.479854583740234,-47.980464935302734
0.2551988959312439,0.018231229856610298,9.761174201965332,-0.005050319862982691,0.0014520435915074442,-0.045980316780437104,2.0299980640411377,2019-07-25 15:09:14:710,-175.78984195484097,138.62798507795185,0,-22.490842819213867,49.479854583740234,-47.980464935302734
0.20011965930461884,0.015836479142308235,9.818648338317871,-0.00957879955214816,0.0003865190486412555,-0.0470458392101994,2.0399930477142334,2019-07-25 15:09:14:720,-175.85090968893425,139.45895291782082,0,-22.490842819213867,49.479854583740234,-47.980464935302734
0.21448814868927002,0.011046980507671833,9.76596450805664,-0.005050319862982691,-0.0012117678144219638,-0.041185453362939155,2.0499966144561768,2019-07-25 15:09:14:730,-175.90804735083654,140.271314392154,0,-22.490842819213867,49.479854583740234,-47.980464935302734
0.1761721521615982,0.02781022898852825,9.782727241516113,-0.004251176740289341,-0.0012117678144219638,-0.04305012385680698,2.0600013732910156,2019-07-25 15:09:14:740,-175.96857169422202,141.06501868280154,0,-22.490842819213867,49.479854583740234,-47.980464935302734
0.22406715154647827,0.044573474675416946,9.773148536682129,-0.004517557607804241,0.005181379637830914,-0.03878802581537939,2.0699820518493652,2019-07-25 15:09:14:750,-176.02583638571082,141.84102374333835,0,-22.490842819213867,49.479854583740234,-47.980464935302734
0.252804160118103,0.051757726818323135,9.82583236694336,-0.007447750531434362,-0.0001462432553011296,-0.03905440434222536,2.080021858215332,2019-07-25 15:09:14:760,-176.07576100225498,142.60236574429038,0,-22.490842819213867,49.479854583740234,-47.980464935302734
0.2360409051179886,0.04217872768640518,9.746806144714355,-0.006648607148666687,0.0006529002087397708,-0.03772249922442789,2.089999198913574,2019-07-25 15:09:14:770,-176.12686604541148,143.34908430308286,0,-22.490842819213867,49.479854583740234,-47.980464935302734
0.25040939450263977,0.03499447554349899,9.78512191772461,-0.005316700990571915,-0.002810054709994474,-0.03372678387103547,2.100001096725464,2019-07-25 15:09:14:780,-176.17343205077577,144.08099039005083,0,-22.190963745117188,47.980464935302734,-48.880096435546875
0.23843564093112946,0.14994245767593384,9.761174201965332,0.0010764462016066379,0.0027839492294535677,-0.03452592569335719,2.1099965572357178,2019-07-25 15:09:14:790,-176.22354023486116,144.78116528396296,0,-22.190963745117188,47.980464935302734,-48.880096435546875
0.267172634601593,-0.034453265368938446,9.859359741210938,-0.007447750531434362,-0.007072152751422067,-0.03825526043930904,2.120014190673828,2019-07-25 15:09:14:800,-176.26404657005173,138.29373560887268,0,-22.190963745117188,47.980464935302734,-48.880096435546875
0.12109291553497314,-0.10150625556707382,9.770753860473633,-0.018102995635003345,-0.0030764358375836983,-0.03825526043930904,2.129995107650757,2019-07-25 15:09:14:810,-176.3228404509072,131.94991054837598,0,-22.190963745117188,47.980464935302734,-48.880096435546875
0.20011965930461884,-0.1613750010728836,9.90485954284668,-0.00798051278661281,-0.005207484858297496,-0.036923355321511565,2.1400129795074463,2019-07-25 15:09:14:820,-176.37030527430838,125.73406957992046,0,-22.190963745117188,47.980464935302734,-48.880096435546875
0.0588294193148613,-0.039242763072252274,9.833017349243164,-0.008246893914202035,0.0003865190486412555,-0.03425954508591662,2.1499946117401123,2019-07-25 15:09:14:830,-176.4362600464718,119.62858353316058,0,-22.190963745117188,47.980464935302734,-48.880096435546875
0.27675163745880127,0.04696822538971901,9.952754974365234,-0.0015873652043227706,-0.00893682064454664,-0.03372678387103547,2.160003900527954,2019-07-25 15:09:14:840,-176.47065643753555,120.83149632303903,0,-22.190963745117188,47.980464935302734,-48.880096435546875
0.09235591441392899,0.13078446686267853,9.770753860473633,-0.006648607148666687,0.003050330357042792,-0.035857832891749264,2.1699867248535156,2019-07-25 15:09:14:850,-176.53212192936707,122.003255661005,0,-22.190963745117188,47.980464935302734,-48.880096435546875
0.21927765011787415,0.080494724214077,9.856964111328125,-0.005050319862982691,-0.00041262439914499955,-0.02946468374901328,2.1799991130828857,2019-07-25 15:09:14:860,-176.5757597248563,123.15667214949252,0,-22.190963745117188,47.980464935302734,-48.880096435546875
0.13546140491962433,0.20262695848941803,9.768359184265137,-0.0002554595176127117,0.005447760765420138,-0.035857832891749264,2.1899945735931396,2019-07-25 15:09:14:870,-176.63141224047013,124.26991554183401,0,-22.190963745117188,47.980464935302734,-48.880096435546875
0.19772490859031677,0.06133672222495079,9.849780082702637,0.0008100650740174133,-0.0020109111971896377,-0.03479230838139237,2.1999967098236084,2019-07-25 15:09:14:880,-176.6746545608508,125.37692651009226,0,-22.190963745117188,47.980464935302734,-48.880096435546875
0.1953301578760147,0.19065320491790771,9.751595497131348,-0.00558308263830979,-0.0014781489420111885,-0.03399316447847604,2.209991931915283,2019-07-25 15:09:14:890,-176.71738159755566,126.45012046159857,0,-22.190963745117188,47.980464935302734,-48.880096435546875
0.358173131942749,-0.1350327581167221,9.830622673034668,0.0024083519695899235,0.008910715424080057,-0.03559145020371409,2.2199862003326416,2019-07-25 15:09:14:900,-176.7463021308843,120.3355057691414,0,-21.741147994995117,47.83052444458008,-49.03003692626953
0.21448814868927002,0.018231229856610298,9.605515480041504,0.0002773027863296734,-0.005207484858297496,-0.035058688988832944,2.2300007343292236,2019-07-25 15:09:14:910,-176.78286415863232,121.52646478173683,0,-21.741147994995117,47.83052444458008,-49.03003692626953
0.31746238470077515,0.1259949654340744,9.794700622558594,-0.004517557607804241,0.012107288955150754,-0.02733363472829948,2.2399938106536865,2019-07-25 15:09:14:920,-176.8168723801343,122.68373056249492,0,-21.741147994995117,47.83052444458008,-49.03003692626953
0.0779874175786972,-0.02247951552271843,9.780332565307617,0.004273019862714496,0.005181379637830914,-0.035325071676868124,2.2500052452087402,2019-07-25 15:09:14:930,-176.87431037139393,116.63028772744156,0,-21.741147994995117,47.83052444458008,-49.03003692626953
0.3318308889865875,0.15712670981884003,9.734832763671875,-0.018635758930479095,0.0017184247190966692,-0.02786639802377523,2.2599968910217285,2019-07-25 15:09:14:940,-176.89874258610854,117.88964294650451,0,-21.741147994995117,47.83052444458008,-49.03003692626953
0.365357369184494,0.006257480941712856,9.883306503295898,0.0181248397977258,-0.001744530069600413,-0.05050879334871067,2.2699880599975586,2019-07-25 15:09:14:950,-176.9174471306778,119.12095648133315,0,-21.741147994995117,47.83052444458008,-49.03003692626953
-0.04653956741094589,-0.010505766607820988,9.401962280273438,0.006936831398681066,0.005980523020598588,-0.04997603213382952,2.279995918273926,2019-07-25 15:09:14:960,-169.7881311005201,113.1359197167487,0,-21.741147994995117,47.83052444458008,-49.03003692626953
0.27196213603019714,-0.15898025035858154,10.031781196594238,-0.019701283440835993,-0.0038755792203513722,-0.03745612069758192,2.289996862411499,2019-07-25 15:09:14:970,-169.9591339136788,107.30242317045898,0,-21.741147994995117,47.83052444458008,-49.03003692626953
0.2815411388874054,-0.49185046553611755,9.71567440032959,1.0921627247073539e-05,0.003583092872295566,-0.05903299359275506,2.3000075817108154,2019-07-25 15:09:14:980,-170.128768203435,101.61433040833698,0,-21.741147994995117,47.83052444458008,-49.03003692626953
0.20490914583206177,-0.0081110168248415,9.813858985900879,-0.01836937624244392,-0.0030764358375836983,-0.04864412701603205,2.310000419616699,2019-07-25 15:09:14:990,-170.30054391440862,95.99329787562766,0,-21.741147994995117,47.83052444458008,-49.03003692626953
0.305488646030426,0.11881071329116821,9.919227600097656,-0.003718414485110892,0.004115855127474016,-0.060364898710552534,2.3199970722198486,2019-07-25 15:09:15:000,-170.46156298319303,97.66179419064368,0,-21.741147994995117,47.83052444458008,-49.03003692626953
0.259988397359848,0.08767896890640259,9.67496395111084,0.00400663873512527,0.002517568101864343,-0.058500228216684706,2.329993724822998,2019-07-25 15:09:15:010,-170.62295889900017,99.29592480836618,0,-21.741147994995117,47.83052444458008,-49.03003692626953
0.37493637204170227,0.09725797176361084,9.809069633483887,-0.017037471124646448,-0.0009453866868327393,-0.05690194041085206,2.3399980068206787,2019-07-25 15:09:15:020,-170.76618913881867,100.90821542242182,0,-21.741147994995117,47.83052444458008,-49.03003692626953
0.3605678677558899,0.20262695848941803,9.694121360778809,0.004805782377967269,-0.00041262439914499955,-0.07048738259924037,2.34999680519104,2019-07-25 15:09:15:030,-170.90803159212558,102.4634045062699,0,-20.69157600402832,47.68058776855469,-49.479854583740234
0.21448814868927002,0.14036346971988678,9.722858428955078,-0.010111561807326608,-0.002277292454816025,-0.05823384968983873,2.3599934577941895,2019-07-25 15:09:15:040,-171.06331767033683,104.00327035037749,0,-20.69157600402832,47.68058776855469,-49.479854583740234
0.2695674002170563,0.17628471553325653,9.816253662109375,-0.00798051278661281,0.0057141418930093625,-0.06462699675198012,2.3699870109558105,2019-07-25 15:09:15:050,-171.21379726975272,105.50710644384515,0,-20.69157600402832,47.68058776855469,-49.479854583740234
0.3869101405143738,-0.015295266173779964,9.885701179504395,-0.0026528897146796686,-0.0006790055592435148,-0.07022099991120519,2.3799965381622314,2019-07-25 15:09:15:060,-171.3443133216681,99.80022829995718,0,-20.69157600402832,47.68058776855469,-49.479854583740234
0.358173131942749,-0.12305900454521179,9.789911270141602,-0.019168520145360243,-0.003609198092762148,-0.07421671526459761,2.3899893760681152,2019-07-25 15:09:15:070,-171.47349623552844,94.22938250262264,0,-20.69157600402832,47.68058776855469,-49.479854583740234
0.2863306403160095,-0.02966376394033432,9.6989107131958,0.0008100650740174133,0.00784519091372316,-0.07208567040507301,2.4000046253204346,2019-07-25 15:09:15:080,-171.61461826615746,88.74784403854444,0,-20.69157600402832,47.68058776855469,-49.479854583740234
0.2959096431732178,-0.020084764808416367,9.749200820922852,-0.005316700990571915,0.002251186974275118,-0.06649166308465874,2.40999698638916,2019-07-25 15:09:15:090,-171.7488185952114,83.37823094631727,0,-20.69157600402832,47.68058776855469,-49.479854583740234
0.31027814745903015,-0.08474300801753998,9.818648338317871,-0.0031856519698581177,0.0014520435915074442,-0.06329509163418265,2.4200069904327393,2019-07-25 15:09:15:100,-171.8784584395209,78.12234680424517,0,-20.69157600402832,47.68058776855469,-49.479854583740234
0.22646190226078033,-0.13263800740242004,9.787516593933105,-0.006382226021077464,-0.003609198092762148,-0.0659589018697776,2.429990768432617,2019-07-25 15:09:15:110,-172.01235672742027,72.97900588055566,0,-20.69157600402832,47.68058776855469,-49.479854583740234
0.16419841349124908,-0.024874264374375343,9.821043014526367,-0.009845181199886033,-0.0009453866868327393,-0.06888909479340771,2.4399960041046143,2019-07-25 15:09:15:120,-172.15242165753844,67.92785902666806,0,-20.69157600402832,47.68058776855469,-49.479854583740234
0.08996116369962692,-0.00332151772454381,9.770753860473633,-0.007181369403845137,0.004115855127474016,-0.06196318235519598,2.4499964714050293,2019-07-25 15:09:15:130,-172.30113401775264,62.973723911833645,0,-20.69157600402832,47.68058776855469,-49.479854583740234
0.2959096431732178,0.018231229856610298,9.959939002990723,-0.009845181199886033,0.003050330357042792,-0.057434705786922405,2.459993362426758,2019-07-25 15:09:15:140,-172.42278843742233,65.31767822508696,0,-20.69157600402832,47.68058776855469,-49.479854583740234
0.27675163745880127,0.1331792175769806,9.78512191772461,-0.0015873652043227706,-0.001744530069600413,-0.06409423137590978,2.4699978828430176,2019-07-25 15:09:15:150,-172.5409514947078,67.59662098436938,0,-22.340904235839844,49.32991409301758,-48.130401611328125
0.2887254059314728,0.12120546400547028,9.739622116088867,-0.005050319862982691,0.003583092872295566,-0.06089765992543368,2.479996919631958,2019-07-25 15:09:15:160,-172.65818412038448,69.83326434213544,0,-22.340904235839844,49.32991409301758,-48.130401611328125
0.312672883272171,-0.03684801235795021,9.770753860473633,-0.001320984076733546,0.012107288955150754,-0.05450451286329229,2.4900002479553223,2019-07-25 15:09:15:170,-172.7751631105081,64.84166255327742,0,-22.340904235839844,49.32991409301758,-48.130401611328125
0.3773311376571655,-0.015295266173779964,9.813858985900879,-0.0058494637658990135,0.0009192813363289952,-0.05370536896037596,2.4999983310699463,2019-07-25 15:09:15:180,-172.87613853275437,59.94989908940979,0,-22.340904235839844,49.32991409301758,-48.130401611328125
0.3078833818435669,0.051757726818323135,9.720463752746582,-0.0018537463319119952,-0.0038755792203513722,-0.049443270918948366,2.5099966526031494,2019-07-25 15:09:15:190,-172.98015669966915,62.345840307311846,0,-22.340904235839844,49.32991409301758,-48.130401611328125
0.2863306403160095,0.015836479142308235,9.746806144714355,-0.0031856519698581177,0.004115855127474016,-0.04917688823091319,2.519998788833618,2019-07-25 15:09:15:200,-173.0892113738953,64.69885075597308,0,-22.340904235839844,49.32991409301758,-48.130401611328125
0.2959096431732178,0.0733104720711708,9.725253105163574,0.0021419707119635363,0.00438223625506324,-0.044914790189485604,2.529994010925293,2019-07-25 15:09:15:210,-173.19503064524886,66.99503367533822,0,-22.340904235839844,49.32991409301758,-48.130401611328125
0.27675163745880127,-0.0081110168248415,9.83541202545166,-0.00558308263830979,0.005980523020598588,-0.04624669530728308,2.539996862411499,2019-07-25 15:09:15:220,-173.30225345056084,62.05921379658631,0,-22.340904235839844,49.32991409301758,-48.130401611328125
0.2743569016456604,0.058941975235939026,9.837806701660156,0.004539401250378045,0.004115855127474016,-0.04278374116877181,2.549997329711914,2019-07-25 15:09:15:230,-173.4065705063144,64.40861500766816,0,-22.340904235839844,49.32991409301758,-48.130401611328125
0.2480146437883377,0.04217872768640518,9.770753860473633,-0.001320984076733546,0.0009192813363289952,-0.03825526043930904,2.559997320175171,2019-07-25 15:09:15:240,-173.50987431814505,66.71623774030326,0,-22.340904235839844,49.32991409301758,-48.130401611328125
0.19293540716171265,0.03259972855448723,9.777937889099121,-0.004517557607804241,0.005980523020598588,-0.03399316447847604,2.5700278282165527,2019-07-25 15:09:15:250,-173.6204371949759,68.98063684840035,0,-22.340904235839844,49.32991409301758,-48.130401611328125
0.25040939450263977,0.058941975235939026,9.789911270141602,-0.0058494637658990135,0.004648617382652464,-0.03452592569335719,2.5800201892852783,2019-07-25 15:09:15:260,-173.721332453871,71.19740695456466,0,-22.340904235839844,49.32991409301758,-48.130401611328125
0.3150676488876343,0.04696822538971901,9.871333122253418,-0.005316700990571915,0.006246904148187811,-0.031062971554845924,2.589991569519043,2019-07-25 15:09:15:270,-173.81384111828086,73.37098331765985,0,-22.340904235839844,49.32991409301758,-48.130401611328125
0.34859412908554077,0.0014679816085845232,9.751595497131348,-0.0018537463319119952,-0.00041262439914499955,-0.02680087351341833,2.5999984741210938,2019-07-25 15:09:15:280,-173.89638638688245,75.50443274267195,0,-21.89108657836914,48.880096435546875,-49.479854583740234
0.22646190226078033,0.06612621992826462,9.684542655944824,-0.0002554595176127117,0.0067796664033662616,-0.0291983031415727,2.610001564025879,2019-07-25 15:09:15:290,-173.99547557190618,77.58666336300459,0,-21.89108657836914,48.880096435546875,-49.479854583740234
0.3222518861293793,0.02541547827422619,9.773148536682129,-0.003452033357521668,0.00784519091372316,-0.023071536686871886,2.619981288909912,2019-07-25 15:09:15:300,-174.082191384962,79.63388448350642,0,-21.89108657836914,48.880096435546875,-49.479854583740234
0.24322514235973358,0.06133672222495079,9.801885604858398,-0.0031856519698581177,-0.0025436735824052492,-0.02839915923865638,2.630004405975342,2019-07-25 15:09:15:310,-174.17068693603562,81.63582902854611,0,-21.89108657836914,48.880096435546875,-49.479854583740234
0.29112014174461365,0.08528421819210052,9.775543212890625,-0.0026528897146796686,-0.0041419603479405966,-0.02786639802377523,2.6399967670440674,2019-07-25 15:09:15:320,-174.25083346225253,83.59460391117003,0,-21.89108657836914,48.880096435546875,-49.479854583740234
0.22406715154647827,0.04696822538971901,9.813858985900879,-0.0029192708422688934,-0.0001462432553011296,-0.028132778631215806,2.649994134902954,2019-07-25 15:09:15:330,-174.3395760351451,85.51886636347933,0,-21.89108657836914,48.880096435546875,-49.479854583740234
0.2695674002170563,0.003862731158733368,9.78512191772461,-0.004517557607804241,0.005447760765420138,-0.030530208259370174,2.65999174118042,2019-07-25 15:09:15:340,-174.4242821887146,87.41057267495434,0,-21.89108657836914,48.880096435546875,-49.479854583740234
0.2480146437883377,0.04936297610402107,9.86414909362793,-0.0029192708422688934,-0.002277292454816025,-0.02680087351341833,2.669985294342041,2019-07-25 15:09:15:350,-174.50571294617077,89.25826489531192,0,-21.89108657836914,48.880096435546875,-49.479854583740234
0.23843564093112946,-0.02247951552271843,9.792305946350098,-0.001320984076733546,0.003050330357042792,-0.03212849606520282,2.679996967315674,2019-07-25 15:09:15:360,-174.58941673079042,83.87647278806725,0,-21.89108657836914,48.880096435546875,-49.479854583740234
0.20730389654636383,0.020625978708267212,9.739622116088867,0.0002773027863296734,0.006513285275777036,-0.02520258570758568,2.6899971961975098,2019-07-25 15:09:15:370,-174.67689901551603,85.79636087696622,0,-21.89108657836914,48.880096435546875,-49.479854583740234
0.22406715154647827,0.008652230724692345,9.801885604858398,-0.0007882218215550968,-0.0001462432553011296,-0.027600017416334655,2.699995756149292,2019-07-25 15:09:15:380,-174.75708832485807,87.67986466931643,0,-21.89108657836914,48.880096435546875,-49.479854583740234
0.25759363174438477,0.006257480941712856,9.818648338317871,-0.004517557607804241,0.0049149985102416895,-0.02893192253413213,2.7100048065185547,2019-07-25 15:09:15:390,-174.83465245748138,89.52807597561444,0,-21.89108657836914,48.880096435546875,-49.479854583740234
0.2360409051179886,0.03499447554349899,9.818648338317871,0.0016092084567850867,0.00118566246391822,-0.030530208259370174,2.719984292984009,2019-07-25 15:09:15:400,-174.91108121482802,91.33252862054286,0,-22.190963745117188,47.380706787109375,-48.58021926879883
0.23125140368938446,0.06133672222495079,9.789911270141602,-0.0018537463319119952,0.0019848058466858938,-0.031062971554845924,2.7300050258636475,2019-07-25 15:09:15:410,-174.98691326986707,93.09974167223866,0,-22.190963745117188,47.380706787109375,-48.58021926879883
0.2360409051179886,0.02781022898852825,9.823437690734863,-0.0023865085870904443,0.00438223625506324,-0.031062971554845924,2.7399964332580566,2019-07-25 15:09:15:420,-175.0621043572049,94.83584162135239,0,-22.190963745117188,47.380706787109375,-48.58021926879883
0.1761721521615982,0.04936297610402107,9.84738540649414,0.0002773027863296734,0.00012013789667006295,-0.036923355321511565,2.75000262260437,2019-07-25 15:09:15:430,-175.14043124345542,96.53322478956402,0,-22.190963745117188,47.380706787109375,-48.58021926879883
0.21448814868927002,0.03499447554349899,9.80667495727539,-0.0058494637658990135,0.00012013789667006295,-0.04011993093317686,2.7600386142730713,2019-07-25 15:09:15:440,-175.21263125083345,98.20176747388776,0,-22.190963745117188,47.380706787109375,-48.58021926879883
0.19054065644741058,0.044573474675416946,9.799490928649902,-0.0015873652043227706,0.004648617382652464,-0.03665697679466559,2.769981622695923,2019-07-25 15:09:15:450,-175.28869564223746,99.8334061296962,0,-22.190963745117188,47.380706787109375,-48.58021926879883
0.23843564093112946,-0.0081110168248415,9.749200820922852,-0.00212012745950122,0.004115855127474016,-0.04065269214805801,2.780007839202881,2019-07-25 15:09:15:460,-175.3572188296088,94.23888494086964,0,-22.190963745117188,47.380706787109375,-48.58021926879883
0.1833564043045044,0.030204977840185165,9.80667495727539,-0.0023865085870904443,0.003050330357042792,-0.045713934092401924,2.789991855621338,2019-07-25 15:09:15:470,-175.4303616669214,95.95191566372819,0,-22.190963745117188,47.380706787109375,-48.58021926879883
0.2096986472606659,0.015836479142308235,9.818648338317871,-0.0018537463319119952,0.0038494739998847904,-0.04757860042508055,2.7999980449676514,2019-07-25 15:09:15:480,-175.4994474394358,97.6320706272676,0,-22.190963745117188,47.380706787109375,-48.58021926879883
0.16898790001869202,0.018231229856610298,9.777937889099121,-0.003452033357521668,0.00438223625506324,-0.0470458392101994,2.8099966049194336,2019-07-25 15:09:15:490,-175.57211636054632,99.2792306594698,0,-22.190963745117188,47.380706787109375,-48.58021926879883
0.18575115501880646,-0.015295266173779964,9.799490928649902,-0.0007882218215550968,0.0019848058466858938,-0.05184070262769734,2.819986343383789,2019-07-25 15:09:15:500,-175.6400689153723,93.69587674701242,0,-22.190963745117188,47.380706787109375,-48.58021926879883
0.19293540716171265,0.037389226257801056,9.804280281066895,-0.00212012745950122,0.0017184247190966692,-0.046779460683353424,2.8299965858459473,2019-07-25 15:09:15:510,-175.70568620926846,95.41878088162379,0,-22.190963745117188,47.380706787109375,-48.58021926879883
0.21209339797496796,0.008652230724692345,9.840201377868652,-0.0023865085870904443,0.007578809786133935,-0.04864412701603205,2.8399930000305176,2019-07-25 15:09:15:520,-175.7711314776913,97.11073723157483,0,-22.190963745117188,47.380706787109375,-48.58021926879883
0.2096986472606659,0.05654722452163696,9.770753860473633,-0.003452033357521668,0.006246904148187811,-0.049443270918948366,2.8499906063079834,2019-07-25 15:09:15:530,-175.83462592045493,98.7638285414175,0,-21.291330337524414,48.880096435546875,-49.479854583740234
0.22646190226078033,0.0541524738073349,9.780332565307617,-0.0015873652043227706,0.00438223625506324,-0.050242414821864693,2.8599965572357178,2019-07-25 15:09:15:540,-175.89386674993898,100.38309907844535,0,-21.291330337524414,48.880096435546875,-49.479854583740234
0.20730389654636383,0.03499447554349899,9.761174201965332,-0.008246893914202035,0.005447760765420138,-0.05423813017525712,2.869990110397339,2019-07-25 15:09:15:550,-175.95471351607105,101.97595656332197,0,-21.291330337524414,48.880096435546875,-49.479854583740234
0.22406715154647827,0.0541524738073349,9.799490928649902,-0.006382226021077464,0.0017184247190966692,-0.04997603213382952,2.8800125122070312,2019-07-25 15:09:15:560,-176.0103892957412,103.53369674918375,0,-21.291330337524414,48.880096435546875,-49.479854583740234
0.23125140368938446,0.006257480941712856,9.82583236694336,-0.0018537463319119952,-0.0014781489420111885,-0.053172607745494815,2.8899991512298584,2019-07-25 15:09:15:570,-176.06238844327234,105.06333253499487,0,-21.291330337524414,48.880096435546875,-49.479854583740234
0.22646190226078033,0.02541547827422619,9.75638484954834,-0.0031856519698581177,0.0017184247190966692,-0.05450451286329229,2.899996757507324,2019-07-25 15:09:15:580,-176.1155115072291,106.56086908076124,0,-21.291330337524414,48.880096435546875,-49.479854583740234
0.22406715154647827,0.04936297610402107,9.742016792297363,-0.004251176740289341,0.0019848058466858938,-0.05503727407817343,2.90999436378479,2019-07-25 15:09:15:590,-176.167963973521,108.02623183228584,0,-21.291330337524414,48.880096435546875,-49.479854583740234
0.24083039164543152,-0.015295266173779964,9.823437690734863,-0.0031856519698581177,0.002251186974275118,-0.05370536896037596,2.9199931621551514,2019-07-25 15:09:15:600,-176.21778105765316,102.26927992933932,0,-21.291330337524414,48.880096435546875,-49.479854583740234
0.2935148775577545,0.011046980507671833,9.777937889099121,-0.001320984076733546,0.002251186974275118,-0.05530365676620862,2.930004358291626,2019-07-25 15:09:15:610,-176.26030303579037,103.82334225275402,0,-21.291330337524414,48.880096435546875,-49.479854583740234
0.2288566529750824,0.06133672222495079,9.76596450805664,-0.0029192708422688934,0.0038494739998847904,-0.05557003529305459,2.9399964809417725,2019-07-25 15:09:15:620,-176.31040815274494,105.34131626919904,0,-21.291330337524414,48.880096435546875,-49.479854583740234
0.23125140368938446,0.03499447554349899,9.76596450805664,-0.00212012745950122,0.0003865190486412555,-0.04624669530728308,2.949997663497925,2019-07-25 15:09:15:630,-176.3572876125595,106.83157438037773,0,-21.291330337524414,48.880096435546875,-49.479854583740234
0.2695674002170563,0.03978397697210312,9.844990730285645,-0.006382226021077464,0.0027839492294535677,-0.05157431993966217,2.96000337600708,2019-07-25 15:09:15:640,-176.40033726104664,108.2938978884431,0,-21.291330337524414,48.880096435546875,-49.479854583740234
0.2480146437883377,0.05654722452163696,9.720463752746582,-0.0058494637658990135,0.002517568101864343,-0.05397175164841114,2.9699909687042236,2019-07-25 15:09:15:650,-176.44451103113718,109.72463421821098,0,-22.490842819213867,48.28034210205078,-49.479854583740234
0.26477789878845215,0.030204977840185165,9.758779525756836,-0.0005218406614565815,0.0017184247190966692,-0.05290622505745964,2.9799959659576416,2019-07-25 15:09:15:660,-176.4855025138811,111.12688791304933,0,-22.490842819213867,48.28034210205078,-49.479854583740234
0.2791464030742645,0.037389226257801056,9.818648338317871,-0.0015873652043227706,0.0033167117447063417,-0.05263984236942447,2.9899966716766357,2019-07-25 15:09:15:670,-176.52508505685407,112.50087791739492,0,-22.490842819213867,48.28034210205078,-49.479854583740234
0.2887254059314728,0.06133672222495079,9.794700622558594,-0.006648607148666687,0.0019848058466858938,-0.05157431993966217,3.000005006790161,2019-07-25 15:09:15:680,-176.56192955459812,113.84742075504485,0,-22.490842819213867,48.28034210205078,-49.479854583740234
0.2887254059314728,0.037389226257801056,9.82583236694336,-0.003452033357521668,0.00118566246391822,-0.04651307799531825,3.0099937915802,2019-07-25 15:09:15:690,-176.59769370012242,115.16804806478343,0,-22.490842819213867,48.28034210205078,-49.479854583740234
0.259988397359848,0.02781022898852825,9.768359184265137,-0.004517557607804241,0.005447760765420138,-0.04970965360698355,3.0199999809265137,2019-07-25 15:09:15:700,-176.63830887208417,116.46396289703063,0,-22.490842819213867,48.28034210205078,-49.479854583740234
0.2959096431732178,0.04936297610402107,9.761174201965332,-0.003718414485110892,-0.001744530069600413,-0.050242414821864693,3.0299923419952393,2019-07-25 15:09:15:710,-176.6698361375768,117.73097499879314,0,-22.490842819213867,48.28034210205078,-49.479854583740234
0.2935148775577545,0.03499447554349899,9.782727241516113,-0.001320984076733546,0.002517568101864343,-0.048377744327996866,3.0400021076202393,2019-07-25 15:09:15:720,-176.70348337724445,118.97299883687285,0,-22.490842819213867,48.28034210205078,-49.479854583740234
0.26477789878845215,0.06852097064256668,9.761174201965332,-0.0058494637658990135,0.0003865190486412555,-0.0470458392101994,3.049992322921753,2019-07-25 15:09:15:730,-176.73855447722048,120.18877620724102,0,-22.490842819213867,48.28034210205078,-49.479854583740234
0.267172634601593,-0.020084764808416367,9.739622116088867,-0.006382226021077464,0.0014520435915074442,-0.04358288507168813,3.0600006580352783,2019-07-25 15:09:15:740,-176.7731730628911,114.19095035167892,0,-22.490842819213867,48.28034210205078,-49.479854583740234
0.23843564093112946,0.020625978708267212,9.804280281066895,-0.010644324062505057,0.0057141418930093625,-0.04464841166263963,3.0699973106384277,2019-07-25 15:09:15:750,-176.8130543562903,115.51069537490343,0,-22.490842819213867,48.28034210205078,-49.479854583740234
0.23843564093112946,0.04217872768640518,9.797096252441406,-0.006115844893488239,0.0006529002087397708,-0.044914790189485604,3.0799994468688965,2019-07-25 15:09:15:760,-176.84927687271835,116.7989828428095,0,-22.490842819213867,48.28034210205078,-49.479854583740234
0.2360409051179886,0.03978397697210312,9.761174201965332,-0.003452033357521668,0.007578809786133935,-0.04651307799531825,3.0899899005889893,2019-07-25 15:09:15:770,-176.88883807990567,118.06026922313156,0,-22.490842819213867,48.28034210205078,-49.479854583740234
0.2360409051179886,0.03499447554349899,9.749200820922852,-0.006115844893488239,0.0019848058466858938,-0.043316502383652956,3.100001335144043,2019-07-25 15:09:15:780,-176.9244383621605,119.29838859058412,0,-22.340904235839844,48.730159759521484,-49.32991409301758
0.23843564093112946,0.04217872768640518,9.83541202545166,-0.003452033357521668,-0.0006790055592435148,-0.04544755140436675,3.109998941421509,2019-07-25 15:09:15:790,-176.95779392950922,120.50944448883288,0,-22.340904235839844,48.730159759521484,-49.32991409301758
0.19772490859031677,0.06133672222495079,9.86414909362793,-0.003452033357521668,0.00012013789667006295,-0.043316502383652956,3.1199841499328613,2019-07-25 15:09:15:800,-176.99573883370502,121.69406566507928,0,-22.340904235839844,48.730159759521484,-49.32991409301758
0.24083039164543152,0.04936297610402107,9.780332565307617,-0.0018537463319119952,-0.0001462432553011296,-0.04624669530728308,3.130002737045288,2019-07-25 15:09:15:810,-177.0275305250844,122.85544358375886,0,-22.340904235839844,48.730159759521484,-49.32991409301758
0.23364615440368652,0.030204977840185165,9.768359184265137,-0.0058494637658990135,0.005447760765420138,-0.04038631362121203,3.1399967670440674,2019-07-25 15:09:15:820,-177.062633447533,123.9980739154,0,-22.340904235839844,48.730159759521484,-49.32991409301758
0.23364615440368652,0.013441730290651321,9.773148536682129,-0.00212012745950122,-0.0001462432553011296,-0.03905440434222536,3.1499969959259033,2019-07-25 15:09:15:830,-177.0939085342309,125.11772685198875,0,-22.340904235839844,48.730159759521484,-49.32991409301758
0.27675163745880127,0.015836479142308235,9.775543212890625,-0.0007882218215550968,0.0057141418930093625,-0.03985354824514169,3.159989833831787,2019-07-25 15:09:15:840,-177.1228036367779,126.21395819019192,0,-22.340904235839844,48.730159759521484,-49.32991409301758
0.259988397359848,0.02781022898852825,9.84738540649414,-0.00957879955214816,-0.0012117678144219638,-0.04198459726585548,3.1699984073638916,2019-07-25 15:09:15:850,-177.14941940236375,127.29182592243106,0,-22.340904235839844,48.730159759521484,-49.32991409301758
0.2551988959312439,0.006257480941712856,9.792305946350098,0.0008100650740174133,0.005181379637830914,-0.037988881912463066,3.180554151535034,2019-07-25 15:09:15:860,-177.17964490026927,128.34477701243023,0,-22.340904235839844,48.730159759521484,-49.32991409301758
0.2096986472606659,0.04696822538971901,9.816253662109375,-0.00212012745950122,0.0027839492294535677,-0.03985354824514169,3.19142746925354,2019-07-25 15:09:15:871,-177.21327592760235,129.37369301808891,0,-22.340904235839844,48.730159759521484,-49.32991409301758
0.25040939450263977,0.030204977840185165,9.813858985900879,0.0002773027863296734,0.0027839492294535677,-0.04011993093317686,3.2027103900909424,2019-07-25 15:09:15:882,-177.24154141806946,130.38251660268816,0,-22.340904235839844,48.730159759521484,-49.32991409301758
0.24322514235973358,0.06612621992826462,9.794700622558594,0.002674733097179148,-0.0020109111971896377,-0.037988881912463066,3.210806369781494,2019-07-25 15:09:15:890,-177.26734655726298,131.36591415310735,0,-22.340904235839844,48.730159759521484,-49.32991409301758
0.2551988959312439,-0.005716267507523298,9.816253662109375,-0.00558308263830979,0.002251186974275118,-0.037988881912463066,3.2201898097991943,2019-07-25 15:09:15:900,-177.2934013991625,125.14220477564778,0,-22.190963745117188,48.880096435546875,-48.28034210205078
0.1953301578760147,0.02781022898852825,9.804280281066895,-0.0010546029491443213,0.0019848058466858938,-0.035857832891749264,3.229980945587158,2019-07-25 15:09:15:910,-177.3257975638905,126.23669004399184,0,-22.190963745117188,48.880096435546875,-48.28034210205078
0.21927765011787415,0.015836479142308235,9.792305946350098,-0.0018537463319119952,0.00438223625506324,-0.03905440434222536,3.2400124073028564,2019-07-25 15:09:15:920,-177.35609394426433,127.31114717849458,0,-22.190963745117188,48.880096435546875,-48.28034210205078
0.24561989307403564,-0.0081110168248415,9.804280281066895,-0.0039847956127001165,0.006246904148187811,-0.04065269214805801,3.2500417232513428,2019-07-25 15:09:15:930,-177.3837881446734,121.16811625979904,0,-22.190963745117188,48.880096435546875,-48.28034210205078
0.252804160118103,0.011046980507671833,9.761174201965332,-0.001320984076733546,0.009443477679258508,-0.03852164312734421,3.260003089904785,2019-07-25 15:09:15:940,-177.41172301892425,122.34419593720736,0,-22.190963745117188,48.880096435546875,-48.28034210205078
0.2695674002170563,0.030204977840185165,9.739622116088867,-0.00558308263830979,0.004115855127474016,-0.04305012385680698,3.2700271606445312,2019-07-25 15:09:15:950,-177.43409730112316,123.49690070132658,0,-22.190963745117188,48.880096435546875,-48.28034210205078
0.25040939450263977,0.018231229856610298,9.782727241516113,0.0013428273291958624,0.0009192813363289952,-0.03745612069758192,3.280015230178833,2019-07-25 15:09:15:960,-177.4566052084739,124.62407404898701,0,-22.190963745117188,48.880096435546875,-48.28034210205078
0.24083039164543152,0.06373147666454315,9.80667495727539,-0.0023865085870904443,0.0027839492294535677,-0.041451836050974335,3.2899584770202637,2019-07-25 15:09:15:970,-177.48089190226426,125.72547802954354,0,-22.190963745117188,48.880096435546875,-48.28034210205078
0.20490914583206177,0.051757726818323135,9.761174201965332,0.000543683913918898,0.0038494739998847904,-0.03718973800954674,3.3000173568725586,2019-07-25 15:09:15:980,-177.50939643536404,126.80458533881368,0,-22.190963745117188,48.880096435546875,-48.28034210205078
0.2863306403160095,0.03259972855448723,9.799490928649902,-0.001320984076733546,0.002517568101864343,-0.04038631362121203,3.310012102127075,2019-07-25 15:09:15:990,-177.52714847100475,127.86542289752781,0,-22.190963745117188,48.880096435546875,-48.28034210205078
0.24083039164543152,0.06852097064256668,9.732437133789062,-0.0047839387353934655,0.0014520435915074442,-0.041451836050974335,3.3199965953826904,2019-07-25 15:09:16:000,-177.54906951662375,128.90272879365764,0,-22.190963745117188,48.880096435546875,-48.28034210205078
0.23364615440368652,0.08528421819210052,9.809069633483887,-0.0002554595176127117,0.0014520435915074442,-0.04065269214805801,3.3300039768218994,2019-07-25 15:09:16:010,-177.57161418698058,129.9148549379548,0,-22.190963745117188,48.880096435546875,-48.28034210205078
0.26477789878845215,0.03978397697210312,9.780332565307617,-0.0015873652043227706,0.0019848058466858938,-0.04038631362121203,3.3400137424468994,2019-07-25 15:09:16:020,-177.59028225139826,130.9127887371596,0,-22.190963745117188,48.880096435546875,-48.28034210205078
0.22646190226078033,0.07570522278547287,9.737227439880371,-0.0023865085870904443,-0.0009453866868327393,-0.04225097995389066,3.3500001430511475,2019-07-25 15:09:16:030,-177.61130036266215,131.88696204966993,0,-22.041025161743164,49.03003692626953,-48.130401611328125
0.2288566529750824,0.011046980507671833,9.787516593933105,-0.0015873652043227706,0.00118566246391822,-0.0438492677597233,3.3600175380706787,2019-07-25 15:09:16:040,-177.63295176623646,132.84882229030848,0,-22.041025161743164,49.03003692626953,-48.130401611328125
0.2288566529750824,0.04696822538971901,9.833017349243164,-0.0002554595176127117,-0.0020109111971896377,-0.04731222189823458,3.3699965476989746,2019-07-25 15:09:16:050,-177.65250040134518,133.78651546406778,0,-22.041025161743164,49.03003692626953,-48.130401611328125
0.259988397359848,0.03978397697210312,9.821043014526367,-0.005316700990571915,0.0027839492294535677,-0.04225097995389066,3.380012273788452,2019-07-25 15:09:16:060,-177.67068777060973,134.70913321588063,0,-22.041025161743164,49.03003692626953,-48.130401611328125
0.2288566529750824,0.051757726818323135,9.813858985900879,-0.00212012745950122,0.002251186974275118,-0.04624669530728308,3.3900015354156494,2019-07-25 15:09:16:070,-177.6918190835032,135.61009628513406,0,-22.041025161743164,49.03003692626953,-48.130401611328125
0.259988397359848,0.058941975235939026,9.787516593933105,-0.0015873652043227706,-0.00041262439914499955,-0.03852164312734421,3.400012254714966,2019-07-25 15:09:16:080,-177.70731866226038,136.4918858164765,0,-22.041025161743164,49.03003692626953,-48.130401611328125
0.21209339797496796,0.020625978708267212,9.809069633483887,-0.0018537463319119952,0.00118566246391822,-0.04278374116877181,3.4100053310394287,2019-07-25 15:09:16:090,-177.72906425128193,137.3606786900256,0,-22.041025161743164,49.03003692626953,-48.130401611328125
0.2288566529750824,0.03259972855448723,9.782727241516113,-0.006914988276255913,0.00438223625506324,-0.049443270918948366,3.420003890991211,2019-07-25 15:09:16:100,-177.75014062589358,138.2135287057598,0,-22.041025161743164,49.03003692626953,-48.130401611328125
0.19293540716171265,0.018231229856610298,9.861754417419434,-0.0029192708422688934,0.0006529002087397708,-0.042517362641925835,3.4300057888031006,2019-07-25 15:09:16:110,-177.77308864743594,139.04877918031545,0,-22.041025161743164,49.03003692626953,-48.130401611328125
0.25759363174438477,0.058941975235939026,9.787516593933105,-0.0002554595176127117,0.0027839492294535677,-0.04171821873900951,3.4400172233581543,2019-07-25 15:09:16:120,-177.7890399240404,139.86104639912625,0,-22.041025161743164,49.03003692626953,-48.130401611328125
0.2360409051179886,0.058941975235939026,9.789911270141602,-0.007181369403845137,0.0049149985102416895,-0.04464841166263963,3.45001220703125,2019-07-25 15:09:16:130,-177.8083941139289,140.66095666371217,0,-22.041025161743164,49.03003692626953,-48.130401611328125
0.252804160118103,0.06852097064256668,9.794700622558594,-0.0029192708422688934,0.0003865190486412555,-0.04731222189823458,3.460010290145874,2019-07-25 15:09:16:140,-177.82287336000186,141.44136001044345,0,-22.041025161743164,49.03003692626953,-48.130401611328125
0.2288566529750824,-0.0081110168248415,9.830622673034668,-0.003452033357521668,0.0027839492294535677,-0.044914790189485604,3.469996690750122,2019-07-25 15:09:16:150,-177.84130488171513,135.01541395421563,0,-22.190963745117188,49.77973175048828,-50.07960891723633
0.2815411388874054,0.037389226257801056,9.710885047912598,-0.003452033357521668,-0.001744530069600413,-0.04464841166263963,3.48000431060791,2019-07-25 15:09:16:160,-177.85028503260907,135.91263343728093,0,-22.190963745117188,49.77973175048828,-50.07960891723633
0.2360409051179886,0.008652230724692345,9.797096252441406,-0.00212012745950122,0.0009192813363289952,-0.04438202897460446,3.489997148513794,2019-07-25 15:09:16:170,-177.8661919958397,136.7945583582704,0,-22.190963745117188,49.77973175048828,-50.07960891723633
0.252804160118103,0.08288946747779846,9.773148536682129,-0.006648607148666687,0.0003865190486412555,-0.04757860042508055,3.5000123977661133,2019-07-25 15:09:16:180,-177.87945047739007,137.65268739266662,0,-22.190963745117188,49.77973175048828,-50.07960891723633
0.2216724008321762,0.011046980507671833,9.811464309692383,-0.0031856519698581177,-0.001744530069600413,-0.04464841166263963,3.510005474090576,2019-07-25 15:09:16:190,-177.89499709555474,138.5001309302463,0,-22.190963745117188,49.77973175048828,-50.07960891723633
0.20490914583206177,0.030204977840185165,9.75638484954834,-0.006914988276255913,0.00012013789667006295,-0.04731222189823458,3.5199966430664062,2019-07-25 15:09:16:200,-177.91310091790726,139.33045998869122,0,-22.190963745117188,49.77973175048828,-50.07960891723633
0.259988397359848,0.06612621992826462,9.816253662109375,-0.0039847956127001165,0.0009192813363289952,-0.04171821873900951,3.530026912689209,2019-07-25 15:09:16:210,-177.92501358226895,140.1383757888882,0,-22.190963745117188,49.77973175048828,-50.07960891723633
0.23364615440368652,0.03978397697210312,9.837806701660156,-0.005316700990571915,-0.002810054709994474,-0.047844983113115726,3.5400028228759766,2019-07-25 15:09:16:220,-177.9377290940804,140.93395235771587,0,-22.190963745117188,49.77973175048828,-50.07960891723633
0.23843564093112946,0.015836479142308235,9.813858985900879,-0.0023865085870904443,-0.00041262439914499955,-0.04731222189823458,3.5499753952026367,2019-07-25 15:09:16:230,-177.95090798971626,141.71476051107902,0,-22.190963745117188,49.77973175048828,-50.07960891723633
0.23125140368938446,0.020625978708267212,9.763568878173828,-0.0039847956127001165,0.00731242865854471,-0.04544755140436675,3.5599894523620605,2019-07-25 15:09:16:240,-177.9688654336007,142.4802851087407,0,-22.190963745117188,49.77973175048828,-50.07960891723633
0.23843564093112946,0.013441730290651321,9.78512191772461,-0.005050319862982691,-0.0009453866868327393,-0.046779460683353424,3.5699973106384277,2019-07-25 15:09:16:250,-177.98103968927614,143.2319432501867,0,-22.190963745117188,49.77973175048828,-50.07960891723633
0.25759363174438477,0.018231229856610298,9.76596450805664,-0.00212012745950122,0.0009192813363289952,-0.048910509704067226,3.580026388168335,2019-07-25 15:09:16:260,-177.99171813987337,143.96635908771972,0,-22.190963745117188,49.77973175048828,-50.07960891723633
0.2480146437883377,0.03978397697210312,9.811464309692383,-0.004517557607804241,-0.0014781489420111885,-0.044914790189485604,3.5899975299835205,2019-07-25 15:09:16:270,-178.00209585420149,144.6849147024395,0,-22.190963745117188,49.77973175048828,-50.07960891723633
0.26477789878845215,0.008652230724692345,9.751595497131348,-0.004251176740289341,0.0017184247190966692,-0.04464841166263963,3.6000351905822754,2019-07-25 15:09:16:280,-178.0119159039605,145.39259569970588,0,-20.991453170776367,48.58021926879883,-48.58021926879883
0.267172634601593,0.06612621992826462,9.739622116088867,-0.003718414485110892,0.002251186974275118,-0.045980316780437104,3.6100144386291504,2019-07-25 15:09:16:290,-178.02151267631277,146.07904737437372,0,-20.991453170776367,48.58021926879883,-48.58021926879883
0.259988397359848,0.06373147666454315,9.770753860473633,-0.0039847956127001165,0.0049149985102416895,-0.04198459726585548,3.6200122833251953,2019-07-25 15:09:16:300,-178.0333573049717,146.75222907008563,0,-20.991453170776367,48.58021926879883,-48.58021926879883
0.22646190226078033,0.05654722452163696,9.751595497131348,-0.0039847956127001165,0.0003865190486412555,-0.04518117287752078,3.6300013065338135,2019-07-25 15:09:16:310,-178.04630006473766,147.41277466761977,0,-20.991453170776367,48.58021926879883,-48.58021926879883
0.25759363174438477,0.006257480941712856,9.80667495727539,-0.003452033357521668,0.0006529002087397708,-0.0438492677597233,3.639997959136963,2019-07-25 15:09:16:320,-178.0556474995449,148.06572564733443,0,-20.991453170776367,48.58021926879883,-48.58021926879883
0.2288566529750824,-0.0009267681161873043,9.74441146850586,-0.0002554595176127117,0.0038494739998847904,-0.04225097995389066,3.6500017642974854,2019-07-25 15:09:16:330,-178.06978888948643,141.50466361448392,0,-20.991453170776367,48.58021926879883,-48.58021926879883
0.22406715154647827,0.04217872768640518,9.773148536682129,-0.00558308263830979,0.0019848058466858938,-0.046779460683353424,3.660205602645874,2019-07-25 15:09:16:340,-178.08326270358214,142.27282365143472,0,-20.991453170776367,48.58021926879883,-48.58021926879883
0.23364615440368652,0.018231229856610298,9.768359184265137,-0.0047839387353934655,0.0014520435915074442,-0.042517362641925835,3.6700034141540527,2019-07-25 15:09:16:350,-178.09499273403245,143.02786035886706,0,-20.991453170776367,48.58021926879883,-48.58021926879883
0.27196213603019714,0.023020729422569275,9.773148536682129,1.0921627247073539e-05,0.0017184247190966692,-0.04225097995389066,3.680021286010742,2019-07-25 15:09:16:360,-178.10217977619686,143.76459779991944,0,-20.991453170776367,48.58021926879883,-48.58021926879883
0.21688289940357208,0.04936297610402107,9.799490928649902,-0.0015873652043227706,0.00118566246391822,-0.04278374116877181,3.6899986267089844,2019-07-25 15:09:16:370,-178.11544308964795,144.48442285585892,0,-20.991453170776367,48.58021926879883,-48.58021926879883
0.22646190226078033,0.07091572135686874,9.773148536682129,-0.0031856519698581177,0.002517568101864343,-0.046779460683353424,3.700014352798462,2019-07-25 15:09:16:380,-178.1280018321564,145.1882111275377,0,-20.991453170776367,48.58021926879883,-48.58021926879883
0.25759363174438477,0.06612621992826462,9.775543212890625,0.0021419707119635363,0.0027839492294535677,-0.045980316780437104,3.7099862098693848,2019-07-25 15:09:16:390,-178.136811744468,145.87549620018066,0,-20.991453170776367,48.58021926879883,-48.58021926879883
0.252804160118103,0.044573474675416946,9.813858985900879,-0.0058494637658990135,0.005447760765420138,-0.04624669530728308,3.719968795776367,2019-07-25 15:09:16:400,-178.1476169330282,146.55606043496923,0,-21.291330337524414,47.980464935302734,-48.58021926879883
0.25040939450263977,0.07809997349977493,9.773148536682129,-0.0026528897146796686,-0.0014781489420111885,-0.04518117287752078,3.7299816608428955,2019-07-25 15:09:16:410,-178.15447911226573,147.21727359836444,0,-21.291330337524414,47.980464935302734,-48.58021926879883
0.2623831331729889,0.04217872768640518,9.718069076538086,-0.003718414485110892,0.005181379637830914,-0.045713934092401924,3.73997163772583,2019-07-25 15:09:16:420,-178.16336430326092,147.8700404037897,0,-21.291330337524414,47.980464935302734,-48.58021926879883
0.2695674002170563,0.0541524738073349,9.761174201965332,-0.004517557607804241,0.0027839492294535677,-0.04198459726585548,3.7499771118164062,2019-07-25 15:09:16:430,-178.17002316271734,148.50882040816055,0,-21.291330337524414,47.980464935302734,-48.58021926879883
0.23843564093112946,0.02781022898852825,9.837806701660156,-0.001320984076733546,0.003050330357042792,-0.0438492677597233,3.7599825859069824,2019-07-25 15:09:16:440,-178.18056865551296,149.13614678770998,0,-21.291330337524414,47.980464935302734,-48.58021926879883
0.2288566529750824,0.03259972855448723,9.739622116088867,-0.0029192708422688934,0.004115855127474016,-0.04518117287752078,3.769972085952759,2019-07-25 15:09:16:450,-178.19234471908527,149.75122578953193,0,-21.291330337524414,47.980464935302734,-48.58021926879883
0.23843564093112946,0.013441730290651321,9.763568878173828,-0.00558308263830979,0.004115855127474016,-0.04757860042508055,3.77998423576355,2019-07-25 15:09:16:460,-178.20283289185164,150.3577623684757,0,-21.291330337524414,47.980464935302734,-48.58021926879883
0.2216724008321762,0.03978397697210312,9.782727241516113,-0.0031856519698581177,-0.0014781489420111885,-0.04091907483609319,3.790003538131714,2019-07-25 15:09:16:470,-178.21198314061584,150.9477391781941,0,-21.291330337524414,47.980464935302734,-48.58021926879883
0.23843564093112946,0.051757726818323135,9.763568878173828,-0.0023865085870904443,-0.00041262439914499955,-0.04305012385680698,3.7999775409698486,2019-07-25 15:09:16:480,-178.21953360430433,151.52404636761383,0,-21.291330337524414,47.980464935302734,-48.58021926879883
0.22406715154647827,0.03259972855448723,9.828227996826172,-0.004517557607804241,-0.0012117678144219638,-0.04438202897460446,3.8099820613861084,2019-07-25 15:09:16:490,-178.22834178566808,152.09230226001725,0,-21.291330337524414,47.980464935302734,-48.58021926879883
0.19772490859031677,0.06612621992826462,9.82583236694336,0.0002773027863296734,0.0067796664033662616,-0.04278374116877181,3.8199729919433594,2019-07-25 15:09:16:500,-178.2445221600588,152.64258894571128,0,-21.291330337524414,47.980464935302734,-48.58021926879883
0.20730389654636383,0.02541547827422619,9.811464309692383,-0.0029192708422688934,0.0019848058466858938,-0.04038631362121203,3.8299853801727295,2019-07-25 15:09:16:510,-178.2565394105156,153.18841000715358,0,-21.291330337524414,47.980464935302734,-48.58021926879883
0.2360409051179886,0.02541547827422619,9.758779525756836,-0.004517557607804241,0.003583092872295566,-0.04171821873900951,3.8399691581726074,2019-07-25 15:09:16:520,-178.2657057803258,153.72418991248264,0,-21.291330337524414,47.980464935302734,-48.58021926879883
0.25759363174438477,0.013441730290651321,9.792305946350098,-0.0039847956127001165,0.00118566246391822,-0.04278374116877181,3.8499810695648193,2019-07-25 15:09:16:530,-178.27092102430154,154.25037325899677,0,-21.441268920898438,48.730159759521484,-49.03003692626953
0.2695674002170563,0.04696822538971901,9.770753860473633,-0.00558308263830979,0.003583092872295566,-0.04225097995389066,3.859976291656494,2019-07-25 15:09:16:540,-178.27590665382155,154.76299079066897,0,-21.441268920898438,48.730159759521484,-49.03003692626953
0.2551988959312439,0.044573474675416946,9.768359184265137,-0.0010546029491443213,0.0009192813363289952,-0.04411564628656928,3.869973659515381,2019-07-25 15:09:16:550,-178.2809742633006,155.2630941475735,0,-21.441268920898438,48.730159759521484,-49.03003692626953
0.2695674002170563,0.018231229856610298,9.753990173339844,-0.0002554595176127117,0.0038494739998847904,-0.04411564628656928,3.879958152770996,2019-07-25 15:09:16:560,-178.28585171666796,155.75583364852804,0,-21.441268920898438,48.730159759521484,-49.03003692626953
0.24083039164543152,0.03499447554349899,9.799490928649902,-0.0023865085870904443,0.0019848058466858938,-0.0438492677597233,3.8899478912353516,2019-07-25 15:09:16:570,-178.2930918724103,156.2379635169351,0,-21.441268920898438,48.730159759521484,-49.03003692626953
0.30309388041496277,0.044573474675416946,9.746806144714355,-0.005316700990571915,-0.00041262439914499955,-0.047844983113115726,3.899991273880005,2019-07-25 15:09:16:580,-178.29137458404722,156.71096212622788,0,-21.441268920898438,48.730159759521484,-49.03003692626953
0.24561989307403564,0.03259972855448723,9.773148536682129,0.0002773027863296734,0.0006529002087397708,-0.0481113658011509,3.9099607467651367,2019-07-25 15:09:16:590,-178.29711935453702,157.1727653034458,0,-21.441268920898438,48.730159759521484,-49.03003692626953
0.2695674002170563,0.003862731158733368,9.78512191772461,-0.007181369403845137,0.004115855127474016,-0.047844983113115726,3.919973611831665,2019-07-25 15:09:16:600,-178.30193048391106,157.63289515763066,0,-21.441268920898438,48.730159759521484,-49.03003692626953
0.26477789878845215,0.02541547827422619,9.782727241516113,-0.007714131659023586,0.0014520435915074442,-0.04305012385680698,3.9299612045288086,2019-07-25 15:09:16:610,-178.30569856555772,158.08158627822743,0,-21.441268920898438,48.730159759521484,-49.03003692626953
0.2815411388874054,0.06373147666454315,9.823437690734863,-0.003452033357521668,0.0033167117447063417,-0.04464841166263963,3.9399828910827637,2019-07-25 15:09:16:620,-178.30861784406977,158.51446282062432,0,-21.441268920898438,48.730159759521484,-49.03003692626953
0.24322514235973358,0.051757726818323135,9.797096252441406,-0.0010546029491443213,0.0003865190486412555,-0.04438202897460446,3.9500105381011963,2019-07-25 15:09:16:630,-178.31422017494185,158.93871358264158,0,-21.441268920898438,48.730159759521484,-49.03003692626953
0.267172634601593,0.04936297610402107,9.75638484954834,-0.005316700990571915,-0.00041262439914499955,-0.04438202897460446,3.959986925125122,2019-07-25 15:09:16:640,-178.3163322731232,159.35711980743187,0,-21.441268920898438,48.730159759521484,-49.03003692626953
0.23843564093112946,0.06852097064256668,9.732437133789062,-0.004251176740289341,-0.001744530069600413,-0.04358288507168813,3.97001051902771,2019-07-25 15:09:16:650,-178.32095551574187,159.76430241754662,0,-22.340904235839844,48.730159759521484,-49.32991409301758
0.24561989307403564,0.0733104720711708,9.787516593933105,-0.004251176740289341,0.002517568101864343,-0.04518117287752078,3.9799811840057373,2019-07-25 15:09:16:660,-178.32719489903207,160.162813418558,0,-22.340904235839844,48.730159759521484,-49.32991409301758
0.252804160118103,0.058941975235939026,9.792305946350098,-0.005050319862982691,0.003583092872295566,-0.04624669530728308,3.990042209625244,2019-07-25 15:09:16:670,-178.33309809261135,160.55551277652708,0,-22.340904235839844,48.730159759521484,-49.32991409301758
0.28393590450286865,0.04696822538971901,9.78512191772461,0.0002773027863296734,0.00118566246391822,-0.04518117287752078,3.999969244003296,2019-07-25 15:09:16:680,-178.33385519629655,160.93874764151707,0,-22.340904235839844,48.730159759521484,-49.32991409301758
0.2480146437883377,0.06373147666454315,9.811464309692383,-0.0058494637658990135,-0.0014781489420111885,-0.047844983113115726,4.0100414752960205,2019-07-25 15:09:16:690,-178.3373817792857,161.31583755905223,0,-22.340904235839844,48.730159759521484,-49.32991409301758
0.2695674002170563,0.020625978708267212,9.76596450805664,-0.0018537463319119952,0.0006529002087397708,-0.04038631362121203,4.019973039627075,2019-07-25 15:09:16:700,-178.33937585435936,161.6881343597777,0,-22.340904235839844,48.730159759521484,-49.32991409301758
0.2216724008321762,0.02541547827422619,9.799490928649902,-0.0026528897146796686,0.003583092872295566,-0.041185453362939155,4.029975175857544,2019-07-25 15:09:16:710,-178.34868355251203,162.05288960104025,0,-22.340904235839844,48.730159759521484,-49.32991409301758
0.25040939450263977,0.04696822538971901,9.75638484954834,-0.001320984076733546,-0.00041262439914499955,-0.044914790189485604,4.039991617202759,2019-07-25 15:09:16:720,-178.3520729613127,162.40705824812196,0,-22.340904235839844,48.730159759521484,-49.32991409301758
0.21209339797496796,0.051757726818323135,9.734832763671875,-0.00957879955214816,-0.001744530069600413,-0.045980316780437104,4.049988508224487,2019-07-25 15:09:16:730,-178.35909007133,162.75820139816574,0,-22.340904235839844,48.730159759521484,-49.32991409301758
0.2695674002170563,0.051757726818323135,9.74441146850586,-0.0018537463319119952,-0.0009453866868327393,-0.04464841166263963,4.060041666030884,2019-07-25 15:09:16:740,-178.35968232381953,163.0979972723432,0,-22.340904235839844,48.730159759521484,-49.32991409301758
0.23125140368938446,0.04217872768640518,9.794700622558594,-0.003718414485110892,0.00012013789667006295,-0.04225097995389066,4.069958686828613,2019-07-25 15:09:16:750,-178.36550570602884,163.43317328308183,0,-22.340904235839844,48.730159759521484,-49.32991409301758
0.18575115501880646,0.006257480941712856,9.880911827087402,-0.0005218406614565815,-0.0020109111971896377,-0.04278374116877181,4.079985618591309,2019-07-25 15:09:16:760,-178.37552390936847,163.76407792278775,0,-22.340904235839844,48.730159759521484,-49.32991409301758
0.21927765011787415,0.037389226257801056,9.792305946350098,-0.0015873652043227706,0.0009192813363289952,-0.04358288507168813,4.090000152587891,2019-07-25 15:09:16:770,-178.38287432703532,164.0853136209924,0,-22.340904235839844,48.730159759521484,-49.32991409301758
0.24322514235973358,0.02781022898852825,9.828227996826172,-0.0047839387353934655,0.002517568101864343,-0.04038631362121203,4.099954128265381,2019-07-25 15:09:16:780,-178.38827106192275,164.40303865455445,0,-22.64078140258789,48.730159759521484,-48.43028259277344
0.21927765011787415,0.03259972855448723,9.76596450805664,-0.0047839387353934655,0.0033167117447063417,-0.04731222189823458,4.109968662261963,2019-07-25 15:09:16:790,-178.39664546894087,164.71384279842363,0,-22.64078140258789,48.730159759521484,-48.43028259277344
0.22406715154647827,0.04936297610402107,9.787516593933105,-0.003452033357521668,0.0006529002087397708,-0.04438202897460446,4.12018609046936,2019-07-25 15:09:16:800,-178.40285808943275,165.01576706517912,0,-22.64078140258789,48.730159759521484,-48.43028259277344
0.2096986472606659,0.051757726818323135,9.809069633483887,-0.0026528897146796686,0.003583092872295566,-0.04091907483609319,4.12999153137207,2019-07-25 15:09:16:810,-178.41227999180364,165.3108659489714,0,-22.64078140258789,48.730159759521484,-48.43028259277344
0.27675163745880127,0.08288946747779846,9.78512191772461,-0.007447750531434362,0.002517568101864343,-0.04970965360698355,4.139980316162109,2019-07-25 15:09:16:820,-178.41304523772848,165.5991190580641,0,-22.64078140258789,48.730159759521484,-48.43028259277344
0.2791464030742645,0.037389226257801056,9.797096252441406,-0.006115844893488239,-0.0025436735824052492,-0.04917688823091319,4.150483131408691,2019-07-25 15:09:16:830,-178.410642770927,165.88637018133207,0,-22.64078140258789,48.730159759521484,-48.43028259277344
0.23364615440368652,0.030204977840185165,9.761174201965332,-0.0039847956127001165,0.0038494739998847904,-0.0470458392101994,4.159985542297363,2019-07-25 15:09:16:840,-178.4170601227275,166.16722299164937,0,-22.64078140258789,48.730159759521484,-48.43028259277344
0.24322514235973358,0.04217872768640518,9.780332565307617,-0.0039847956127001165,0.003050330357042792,-0.04305012385680698,4.169968843460083,2019-07-25 15:09:16:850,-178.42193714262078,166.44117040022914,0,-22.64078140258789,48.730159759521484,-48.43028259277344
0.259988397359848,0.10923171788454056,9.804280281066895,-0.0039847956127001165,0.0017184247190966692,-0.04358288507168813,4.179996013641357,2019-07-25 15:09:16:860,-178.42408582079216,166.70182415057016,0,-22.64078140258789,48.730159759521484,-48.43028259277344
0.27196213603019714,0.03978397697210312,9.737227439880371,-0.0010546029491443213,0.002251186974275118,-0.043316502383652956,4.189975023269653,2019-07-25 15:09:16:870,-178.42486822399312,166.96369667238343,0,-22.64078140258789,48.730159759521484,-48.43028259277344
0.20011965930461884,0.0014679816085845232,9.78512191772461,-0.0039847956127001165,0.004115855127474016,-0.041451836050974335,4.200001239776611,2019-07-25 15:09:16:880,-178.4352556283967,167.2264941497626,0,-22.64078140258789,48.730159759521484,-48.43028259277344
0.2480146437883377,0.03259972855448723,9.789911270141602,-0.0007882218215550968,0.006513285275777036,-0.0438492677597233,4.20998215675354,2019-07-25 15:09:16:890,-178.44117666760138,167.47859020197214,0,-22.64078140258789,48.730159759521484,-48.43028259277344
0.21927765011787415,0.06133672222495079,9.821043014526367,-0.0047839387353934655,0.0006529002087397708,-0.04305012385680698,4.219985008239746,2019-07-25 15:09:16:900,-178.44713885817683,167.72454868644363,0,-21.89108657836914,49.17997741699219,-48.880096435546875
0.23125140368938446,0.03978397697210312,9.818648338317871,-0.003718414485110892,0.005181379637830914,-0.03932078703026053,4.2299745082855225,2019-07-25 15:09:16:910,-178.45411844531685,167.9675003189835,0,-21.89108657836914,49.17997741699219,-48.880096435546875
0.21209339797496796,0.0541524738073349,9.787516593933105,-0.004517557607804241,0.0019848058466858938,-0.04464841166263963,4.2399656772613525,2019-07-25 15:09:16:920,-178.46132169719664,168.20434460594754,0,-21.89108657836914,49.17997741699219,-48.880096435546875
0.23125140368938446,0.006257480941712856,9.801885604858398,-0.005050319862982691,0.0014520435915074442,-0.04305012385680698,4.249982118606567,2019-07-25 15:09:16:930,-178.4658818761746,168.4423665765036,0,-21.89108657836914,49.17997741699219,-48.880096435546875
0.1833564043045044,-0.0081110168248415,9.725253105163574,-0.0018537463319119952,0.00118566246391822,-0.043316502383652956,4.259988069534302,2019-07-25 15:09:16:940,-178.47562826396364,161.47551645216495,0,-21.89108657836914,49.17997741699219,-48.880096435546875
0.19054065644741058,0.03978397697210312,9.773148536682129,-0.0002554595176127117,-0.001744530069600413,-0.04091907483609319,4.269975900650024,2019-07-25 15:09:16:950,-178.48279900602176,161.84148468652617,0,-21.89108657836914,49.17997741699219,-48.880096435546875
0.23843564093112946,0.030204977840185165,9.739622116088867,-0.005316700990571915,0.003583092872295566,-0.03772249922442789,4.280023813247681,2019-07-25 15:09:16:960,-178.48711701556,162.2041008602516,0,-21.89108657836914,49.17997741699219,-48.880096435546875
0.20011965930461884,0.02781022898852825,9.780332565307617,-0.010377943455064483,-0.0038755792203513722,-0.03878802581537939,4.289971590042114,2019-07-25 15:09:16:970,-178.49176609889216,162.56255722764678,0,-21.89108657836914,49.17997741699219,-48.880096435546875
0.15461941063404083,0.06133672222495079,9.732437133789062,-0.0047839387353934655,-0.001744530069600413,-0.037988881912463066,4.299981594085693,2019-07-25 15:09:16:980,-178.50274659472305,162.9067731391558,0,-21.89108657836914,49.17997741699219,-48.880096435546875
0.25040939450263977,0.02541547827422619,9.71567440032959,-0.010910705710242932,0.0014520435915074442,-0.03905440434222536,4.309982776641846,2019-07-25 15:09:16:990,-178.5039790712876,163.25176712453342,0,-21.89108657836914,49.17997741699219,-48.880096435546875
0.25040939450263977,0.04936297610402107,9.797096252441406,-0.003718414485110892,0.00012013789667006295,-0.0438492677597233,4.319968223571777,2019-07-25 15:09:17:000,-178.50468413504086,163.583042945494,0,-21.89108657836914,49.17997741699219,-48.880096435546875
0.259988397359848,0.023020729422569275,9.849780082702637,-0.008779655649231834,0.0009192813363289952,-0.04065269214805801,4.329967260360718,2019-07-25 15:09:17:010,-178.50486675576087,163.91363316794656,0,-21.89108657836914,49.17997741699219,-48.880096435546875
0.4395946264266968,0.1259949654340744,9.739622116088867,0.00400663873512527,0.00012013789667006295,-0.04225097995389066,4.340022325515747,2019-07-25 15:09:17:020,-178.4831518055428,164.21827527891057,0,-21.89108657836914,49.17997741699219,-48.880096435546875
0.25759363174438477,0.11162646859884262,9.959939002990723,-0.009845181199886033,-0.0006790055592435148,-0.04091907483609319,4.350001096725464,2019-07-25 15:09:17:030,-178.4834781396359,164.52658373046577,0,-21.591209411621094,48.58021926879883,-48.58021926879883
0.2743569016456604,-0.0967167541384697,9.777937889099121,-0.001320984076733546,0.004115855127474016,-0.04411564628656928,4.359996318817139,2019-07-25 15:09:17:040,-178.48397397269926,157.64812768525832,0,-21.591209411621094,48.58021926879883,-48.58021926879883
0.46114736795425415,-0.046427011489868164,9.842596054077148,-0.010644324062505057,0.006513285275777036,-0.03958716971829571,4.369965076446533,2019-07-25 15:09:17:050,-178.46429082418248,150.906528416071,0,-21.591209411621094,48.58021926879883,-48.58021926879883
0.37493637204170227,0.09246847033500671,9.780332565307617,0.014395502971179355,-0.002810054709994474,-0.04411564628656928,4.379960298538208,2019-07-25 15:09:17:060,-178.44951988860103,151.4694848812424,0,-21.591209411621094,48.58021926879883,-48.58021926879883
0.16659316420555115,-0.02247951552271843,9.811464309692383,-0.0039847956127001165,0.005980523020598588,-0.04358288507168813,4.38997483253479,2019-07-25 15:09:17:070,-178.46443729208258,144.84496135031748,0,-21.591209411621094,48.58021926879883,-48.58021926879883
0.252804160118103,0.011046980507671833,9.84738540649414,-0.0005218406614565815,0.002517568101864343,-0.04544755140436675,4.400012731552124,2019-07-25 15:09:17:080,-178.46715578769832,145.54707073769208,0,-21.591209411621094,48.58021926879883,-48.58021926879883
0.08996116369962692,-0.020084764808416367,9.730042457580566,0.009067880419394863,0.00731242865854471,-0.043316502383652956,4.4101598262786865,2019-07-25 15:09:17:090,-178.49138448371679,139.0333282225511,0,-21.591209411621094,48.58021926879883,-48.58021926879883
0.2096986472606659,0.04696822538971901,9.792305946350098,0.0021419707119635363,0.00784519091372316,-0.04358288507168813,4.41995096206665,2019-07-25 15:09:17:100,-178.50133423926064,139.84598778957576,0,-21.591209411621094,48.58021926879883,-48.58021926879883
0.20011965930461884,0.07091572135686874,9.751595497131348,0.0008100650740174133,0.008910715424080057,-0.049443270918948366,4.429970026016235,2019-07-25 15:09:17:110,-178.5128075716538,140.64027911595593,0,-21.591209411621094,48.58021926879883,-48.58021926879883
0.1833564043045044,0.003862731158733368,9.80667495727539,0.0008100650740174133,0.005980523020598588,-0.04864412701603205,4.439966678619385,2019-07-25 15:09:17:120,-178.5244855468424,141.42656747312975,0,-21.591209411621094,48.58021926879883,-48.58021926879883
0.3006991446018219,0.020625978708267212,9.713279724121094,-0.0010546029491443213,0.0057141418930093625,-0.04438202897460446,4.4499547481536865,2019-07-25 15:09:17:130,-178.52173710123157,142.19619424736564,0,-21.591209411621094,48.58021926879883,-48.58021926879883
0.3222518861293793,0.020625978708267212,9.639041900634766,0.006137688015913392,0.009976239934436956,-0.04198459726585548,4.460002422332764,2019-07-25 15:09:17:140,-178.51863479008466,142.94635556011983,0,-21.591209411621094,48.58021926879883,-48.58021926879883
0.3414098918437958,-0.015295266173779964,9.797096252441406,-0.003452033357521668,0.0014520435915074442,-0.041185453362939155,4.469956398010254,2019-07-25 15:09:17:150,-178.5091568690375,136.4911468465871,0,-22.041025161743164,48.43028259277344,-49.03003692626953
0.365357369184494,0.05654722452163696,9.70370101928711,-0.007447750531434362,-0.001744530069600413,-0.0438492677597233,4.479985237121582,2019-07-25 15:09:17:160,-178.4948664658482,137.3588402532543,0,-22.041025161743164,48.43028259277344,-49.03003692626953
0.3270413875579834,0.04696822538971901,9.730042457580566,-0.0015873652043227706,0.002251186974275118,-0.0438492677597233,4.489969968795776,2019-07-25 15:09:17:170,-178.48772978983112,138.20702194479657,0,-22.041025161743164,48.43028259277344,-49.03003692626953
0.31027814745903015,0.018231229856610298,9.782727241516113,-0.00798051278661281,-0.0038755792203513722,-0.0438492677597233,4.4999635219573975,2019-07-25 15:09:17:180,-178.47946771134082,139.04522412196508,0,-22.041025161743164,48.43028259277344,-49.03003692626953
0.23125140368938446,0.09007371962070465,9.83541202545166,-0.006382226021077464,-0.001744530069600413,-0.04438202897460446,4.509948492050171,2019-07-25 15:09:17:190,-178.48196233460183,139.8574037446116,0,-22.041025161743164,48.43028259277344,-49.03003692626953
0.1761721521615982,0.08767896890640259,9.823437690734863,-0.005316700990571915,-0.002277292454816025,-0.03878802581537939,4.5199363231658936,2019-07-25 15:09:17:200,-178.490497460806,140.6530097737618,0,-22.041025161743164,48.43028259277344,-49.03003692626953
0.1570141613483429,0.06133672222495079,9.821043014526367,-0.009046037296969709,-0.006539390496243618,-0.035857832891749264,4.529966115951538,2019-07-25 15:09:17:210,-178.49868592084124,141.43788739614266,0,-22.041025161743164,48.43028259277344,-49.03003692626953
