ACCELEROMETER X (m/s²),ACCELEROMETER Y (m/s²),ACCELEROMETER Z (m/s²),GYROSCOPE X (rad/s),GYROSCOPE Y (rad/s),GYROSCOPE Z (rad/s),Pitch (Deg),Roll (Deg),Heading (Deg),Time since start in ms ,YYYY-MO-DD HH-MI-SS_SSS
-0.11591067165136337,0.1902245432138443,9.810966491699219,-0.0018007365525403206,-0.006019680851298459,0.003474409372239163,3.5864623259593125,3.5777846595775196,0,0.0,2019-08-06 14:48:41:386
-0.13746342062950134,0.23811954259872437,9.820545196533203,-0.00020244967322245603,-0.004421394085763112,0.0010769789638618162,7.09964312642645,7.078492755997864,0,0.0038225650787353516,2019-08-06 14:48:41:390
-0.11112117767333984,0.262067049741745,9.851676940917969,-0.001534355424951096,-0.0014912016822816417,0.0005442166761740764,10.544970018139194,10.506698827079793,0,0.006742238998413086,2019-08-06 14:48:41:393
-0.08717367798089981,0.262067049741745,9.83491325378418,-0.00020244967322245603,-0.005220537468530785,1.1454389502251989e-05,13.924867112120683,13.866074281738102,0,0.009994268417358398,2019-08-06 14:48:41:396
-0.06322617828845978,0.2285405397415161,9.846887588500977,-0.0004688308170663259,-0.0017575828098708665,-0.0010540701868891429,17.23938851543548,17.162261962430726,0,0.0138092041015625,2019-08-06 14:48:41:400
-0.14464767277240753,0.25727754831314087,9.818150520324707,-0.0007352119771648412,-0.002023963937460091,0.002941646856986388,20.47805786842987,20.38911859468866,0,0.01678609848022461,2019-08-06 14:48:41:403
-0.2500166594982147,0.20698779821395874,9.878019332885742,0.0016622183661939237,-0.005753299723709235,0.0016097412190402653,23.640537319607624,23.557027886785697,0,0.019999265670776367,2019-08-06 14:48:41:406
-0.15662142634391785,0.25967228412628174,9.849282264709473,0.000863074918407669,-0.004421394085763112,0.0005442166761740764,26.750453014946633,26.655497865793162,0,0.023813962936401367,2019-08-06 14:48:41:410
-0.08477892726659775,0.2548827826976776,9.650518417358398,0.004592411159786882,-0.0022903450650493154,0.0013433600914510408,29.805753325428718,29.69137614103208,0,0.026736736297607422,2019-08-06 14:48:41:413
-0.18775317072868347,0.2357247918844223,9.861255645751953,-0.0007352119771648412,-0.0030894884478169893,0.003474409372239163,32.78838975993168,32.6702965236204,0,0.030002355575561523,2019-08-06 14:48:41:416
-0.12548966705799103,0.2429090440273285,9.86365032196045,0.00033031263071992917,-0.003888631830584663,0.002408884601807939,35.718883084038616,35.588604907834046,0,0.03384566307067871,2019-08-06 14:48:41:420
-0.17098991572856903,0.20698779821395874,9.84449291229248,-0.002599880065345157,-0.006019680851298459,0.0010769789638618162,38.585588192202636,38.453167738882286,0,0.036757707595825195,2019-08-06 14:48:41:423
-0.08238417655229568,0.20219829678535461,9.858860969543457,-0.00020244967322245603,-0.004687775213352337,0.0002778355485848519,41.40515275759543,41.260642542508364,0,0.0399937629699707,2019-08-06 14:48:41:426
-0.13267391920089722,0.19501404464244843,9.810966491699219,-0.0004688308170663259,-0.004421394085763112,0.0016097412190402653,44.16249990518903,44.01275541351832,0,0.04380226135253906,2019-08-06 14:48:41:430
-0.17577941715717316,0.21896153688430786,9.875624656677246,-0.0028662611929343817,-0.0017575828098708665,0.002408884601807939,46.85914645409614,46.707571741850195,0,0.04675006866455078,2019-08-06 14:48:41:433
-0.09196317940950394,0.2357247918844223,9.796597480773926,0.002727743006587985,-0.00255672619263854,0.005339077265363735,49.51167321829101,49.34535513775158,0,0.04999876022338867,2019-08-06 14:48:41:436
-0.19493740797042847,0.19501404464244843,9.921124458312988,0.0019285994937831485,-0.0009584393620846114,0.006670982903309857,52.0991320136255,51.93551352165635,0,0.05381059646606445,2019-08-06 14:48:41:440
-0.11112117767333984,0.171066552400589,9.818150520324707,0.000863074918407669,-0.0054869185961200105,0.0016097412190402653,54.64508078638858,54.47669780274132,0,0.0567326545715332,2019-08-06 14:48:41:443
-0.11591067165136337,0.24530379474163055,9.909151077270508,6.393147468507523e-05,-0.00042567707439687154,0.0037407904998283874,57.13885353346179,56.95879047838005,0,0.059992313385009766,2019-08-06 14:48:41:446
-0.13027916848659515,0.262067049741745,9.810966491699219,-0.0018007365525403206,-0.004954156340941561,0.002941646856986388,59.58191918918298,59.38939735158275,0,0.0637969970703125,2019-08-06 14:48:41:450
-0.13506866991519928,0.21417205035686493,9.796597480773926,6.393147468507523e-05,-0.00015929593055300162,0.0018761223466294901,61.97450936535869,61.77655083002163,0,0.06677603721618652,2019-08-06 14:48:41:453
-0.13267391920089722,0.2500932812690735,9.858860969543457,-0.0004688308170663259,-0.0030894884478169893,0.0037407904998283874,64.32015915542412,64.11204217367207,0,0.07000422477722168,2019-08-06 14:48:41:456
-0.15662142634391785,0.25727754831314087,9.83491325378418,0.000863074918407669,-0.0033558695754062136,0.0010769789638618162,66.61622842172385,66.39964636857114,0,0.07382345199584961,2019-08-06 14:48:41:460
-0.11112117767333984,0.223751038312912,9.861255645751953,-0.0018007365525403206,-0.005753299723709235,0.00507269613777451,68.8719338849285,68.64595207421141,0,0.07674002647399902,2019-08-06 14:48:41:463
-0.20212166011333466,0.223751038312912,9.748703002929688,-0.005530072728900952,-0.0017575828098708665,0.002941646856986388,71.07106313801391,70.84775304689514,0,0.08001303672790527,2019-08-06 14:48:41:466
-0.1470424234867096,0.24051429331302643,9.911545753479004,0.0016622183661939237,-0.0030894884478169893,0.003208027984575613,73.23330298420785,73.00264144448931,0,0.08381795883178711,2019-08-06 14:48:41:470
-0.11112117767333984,0.2429090440273285,9.858860969543457,6.393147468507523e-05,-0.007884349264571683,0.002408884601807939,75.35701439523804,75.11435002877377,0,0.08673810958862305,2019-08-06 14:48:41:473
-0.14225292205810547,0.25727754831314087,9.911545753479004,-0.002599880065345157,-0.003622250702995438,-0.0015868324420675922,77.43409083343424,77.18279995724151,0,0.08999323844909668,2019-08-06 14:48:41:476
-0.16141091287136078,0.23093529045581818,9.88520336151123,6.393147468507523e-05,-0.005220537468530785,0.0002778355485848519,79.46781692681226,79.21236459126838,0,0.09380507469177246,2019-08-06 14:48:41:480
-0.1207001730799675,0.2548827826976776,9.95465087890625,0.0013958372386046994,-0.0022903450650493154,0.0016097412190402653,81.46494625720825,81.19855212444544,0,0.09675383567810059,2019-08-06 14:48:41:483
-0.13267391920089722,0.17346130311489105,9.92591381072998,-0.0010015931047540657,-0.006286061978887684,0.0037407904998283874,83.42148013944093,83.15474058324048,0,0.10000824928283691,2019-08-06 14:48:41:486
-0.20930591225624084,0.1830402910709381,9.779834747314453,6.393147468507523e-05,-0.0012248205546924172,0.002408884601807939,85.32879199201278,85.07018751940682,0,0.10382294654846191,2019-08-06 14:48:41:490
-0.1470424234867096,0.216566801071167,9.851676940917969,-0.0020671176801295454,-0.0030894884478169893,0.0013433600914510408,87.20561916487563,86.94393551866587,0,0.1067354679107666,2019-08-06 14:48:41:493
-0.1398581713438034,0.23093529045581818,9.825334548950195,-0.0012679742973618717,-0.0028231073202277645,0.0042735527550068365,89.0457123679451,88.77835983030106,0,0.10999035835266113,2019-08-06 14:48:41:496
-0.09914742410182953,0.27883028984069824,9.832518577575684,-0.00020244967322245603,-0.0022903450650493154,1.1454389502251989e-05,90.85373386436557,90.57034883963233,0,0.11380314826965332,2019-08-06 14:48:41:500
-0.15183192491531372,0.216566801071167,9.856466293334961,0.002994124134177209,-0.0033558695754062136,0.0013433600914510408,92.61956891709164,92.33326784178905,0,0.11677694320678711,2019-08-06 14:48:41:503
-0.14225292205810547,0.262067049741745,9.796597480773926,-0.0012679742973618717,-0.0030894884478169893,0.0013433600914510408,94.3510982474401,94.0561850198323,0,0.11999917030334473,2019-08-06 14:48:41:506
-0.10872642695903778,0.21896153688430786,9.870835304260254,-0.0010015931047540657,-0.003622250702995438,-0.0015868324420675922,96.05223093179758,95.74986067050725,0,0.12381601333618164,2019-08-06 14:48:41:510
-0.10393692553043365,0.18543504178524017,9.777440071105957,-0.0004688308170663259,-0.0017575828098708665,0.003474409372239163,97.71925515292081,97.41319971209523,0,0.12634706497192383,2019-08-06 14:48:41:513
-0.17577941715717316,0.25727754831314087,9.858860969543457,-0.005263691601311728,-0.0009584393620846114,0.0008105978362725917,99.34463704181421,99.03611518586821,0,0.1299896240234375,2019-08-06 14:48:41:516
-0.11591067165136337,0.18782979249954224,9.818150520324707,0.00033031263071992917,-0.006818824754214785,0.003474409372239163,100.94567507973224,100.63340253624278,0,0.13379907608032227,2019-08-06 14:48:41:520
-0.18775317072868347,0.19980354607105255,9.803781509399414,-0.0018007365525403206,-0.00255672619263854,0.0042735527550068365,102.50524163275563,102.1976815318624,0,0.13674497604370117,2019-08-06 14:48:41:523
-0.13506866991519928,0.1902245432138443,9.717571258544922,-0.002599880065345157,-0.002023963937460091,0.005339077265363735,104.0395801588745,103.73177426260374,0,0.1399998664855957,2019-08-06 14:48:41:526
-0.07998942583799362,0.28601452708244324,9.78222942352295,0.0024613618789987605,-0.004155012958173888,0.0016097412190402653,105.55030874559529,105.22311653064567,0,0.143815279006958,2019-08-06 14:48:41:530
-0.07280518114566803,0.19980354607105255,9.825334548950195,-0.00020244967322245603,-0.0012248205546924172,0.0018761223466294901,107.03101223689781,106.69538776230088,0,0.14673328399658203,2019-08-06 14:48:41:533
-0.20691116154193878,0.2740407884120941,9.870835304260254,-0.0028662611929343817,-0.003622250702995438,0.002408884601807939,108.46703853664307,108.13019956579753,0,0.1499958038330078,2019-08-06 14:48:41:536
-0.10872642695903778,0.23093529045581818,9.84449291229248,0.000863074918407669,-0.005220537468530785,0.005339077265363735,109.88615887516191,109.54053465733176,0,0.15380477905273438,2019-08-06 14:48:41:540
-0.08717367798089981,0.30517253279685974,9.83491325378418,-0.0007352119771648412,-0.0009584393620846114,0.003208027984575613,111.27843907053031,110.91430102386245,0,0.15678071975708008,2019-08-06 14:48:41:543
-0.13506866991519928,0.2740407884120941,9.858860969543457,-0.002333498937755932,-0.0014912016822816417,-0.0010540701868891429,112.63744333990708,112.26459554354643,0,0.16002178192138672,2019-08-06 14:48:41:546
-0.15901616215705872,0.24530379474163055,9.779834747314453,0.0011294561110154748,-0.0022903450650493154,0.003474409372239163,113.96655506065586,113.59032493712705,0,0.16384029388427734,2019-08-06 14:48:41:550
-0.13506866991519928,0.21177729964256287,9.798992156982422,-0.0018007365525403206,-0.003888631830584663,0.002408884601807939,115.27206421398975,114.89405040554081,0,0.1667461395263672,2019-08-06 14:48:41:553
-0.13267391920089722,0.22614578902721405,9.777440071105957,-0.0020671176801295454,-0.0030894884478169893,0.004806315010185286,116.55163989036791,116.17004813263095,0,0.17000532150268555,2019-08-06 14:48:41:556
-0.15422667562961578,0.21417205035686493,9.899572372436523,-0.004198166830880505,-0.004155012958173888,0.004539933882596061,117.80353963659955,117.42265135383711,0,0.17336344718933105,2019-08-06 14:48:41:560
-0.1733846664428711,0.276435524225235,9.887598037719727,-0.0004688308170663259,-0.003622250702995438,0.0016097412190402653,119.02798630620683,118.64224829915189,0,0.176361083984375,2019-08-06 14:48:41:563
-0.15183192491531372,0.2093825489282608,9.813361167907715,-0.0018007365525403206,-0.006019680851298459,-0.0010540701868891429,120.23092004586313,119.84532267592252,0,0.17997527122497559,2019-08-06 14:48:41:566
-0.11830542236566544,0.20219829678535461,9.76546573638916,-0.0036654045757020556,-0.005220537468530785,0.0016097412190402653,121.41353758409794,121.0254776397513,0,0.18378806114196777,2019-08-06 14:48:41:570
-0.18296366930007935,0.216566801071167,9.846887588500977,-0.002599880065345157,-0.0006920582344953867,0.004806315010185286,122.56409198058613,122.18020080798345,0,0.18674230575561523,2019-08-06 14:48:41:573
-0.1662004142999649,0.16867180168628693,9.810966491699219,0.0024613618789987605,-0.0030894884478169893,0.0016097412190402653,123.6939650565925,123.31644768615227,0,0.19000029563903809,2019-08-06 14:48:41:576
-0.11112117767333984,0.25248804688453674,9.825334548950195,0.0005966937908184444,-0.003888631830584663,0.0005442166761740764,124.80795942263725,124.42055004500084,0,0.1938154697418213,2019-08-06 14:48:41:580
-0.11830542236566544,0.2548827826976776,9.851676940917969,-0.0010015931047540657,-0.0014912016822816417,0.0021425034742187147,125.89828429365157,125.5026625984776,0,0.1967332363128662,2019-08-06 14:48:41:583
-0.13027916848659515,0.13993480801582336,9.803781509399414,-0.0004688308170663259,-0.006019680851298459,0.0002778355485848519,126.96619367475341,126.57633998481505,0,0.19999313354492188,2019-08-06 14:48:41:586
-0.1398581713438034,0.22614578902721405,9.870835304260254,-0.0004688308170663259,-0.004687775213352337,0.004007171627417612,128.0116355652604,127.61866438327797,0,0.2037959098815918,2019-08-06 14:48:41:590
-0.09196317940950394,0.27164602279663086,9.810966491699219,-0.0020671176801295454,-0.003888631830584663,0.0013433600914510408,129.04131284927132,128.6349171123224,0,0.20677709579467773,2019-08-06 14:48:41:593
-0.05125243216753006,0.22135628759860992,9.878019332885742,-0.0004688308170663259,-0.002023963937460091,0.0021425034742187147,130.05490748636447,129.63662916055608,0,0.21000170707702637,2019-08-06 14:48:41:596
-0.15422667562961578,0.18064555525779724,9.837308883666992,6.393147468507523e-05,-0.002023963937460091,0.0026752657293971638,131.03627927321037,130.62284243542854,0,0.21381902694702148,2019-08-06 14:48:41:600
-0.12309492379426956,0.23333004117012024,9.84449291229248,-0.00020244967322245603,-0.00015929593055300162,0.0016097412190402653,132.00125210305907,131.58326386326058,0,0.21673989295959473,2019-08-06 14:48:41:603
-0.19493740797042847,0.216566801071167,9.813361167907715,-0.00020244967322245603,-0.0014912016822816417,0.0005442166761740764,132.93874131761228,132.52635121576344,0,0.2200157642364502,2019-08-06 14:48:41:606
-0.06562092900276184,0.25248804688453674,9.775045394897461,-0.0007352119771648412,-0.0030894884478169893,0.003474409372239163,133.87293223040635,133.44638858475614,0,0.22381043434143066,2019-08-06 14:48:41:610
-0.14464767277240753,0.18543504178524017,9.777440071105957,-0.0012679742973618717,-0.0012248205546924172,0.0026752657293971638,134.77872247437247,134.35593785116131,0,0.22672367095947266,2019-08-06 14:48:41:613
-0.15901616215705872,0.25727754831314087,9.911545753479004,0.0011294561110154748,-0.00255672619263854,0.0002778355485848519,135.665233337209,135.2388739702367,0,0.22998547554016113,2019-08-06 14:48:41:616
-0.07041043043136597,0.23093529045581818,9.878019332885742,0.0005966937908184444,-0.0022903450650493154,0.0008105978362725917,136.5442506383693,136.10718371568458,0,0.2337949275970459,2019-08-06 14:48:41:620
-0.14225292205810547,0.23333004117012024,9.787018775939941,-0.0012679742973618717,-0.007085205881804008,0.0021425034742187147,137.3978859963061,136.95793597240964,0,0.23674821853637695,2019-08-06 14:48:41:623
-0.16380566358566284,0.2500932812690735,9.830123901367188,-0.0012679742973618717,-0.0017575828098708665,0.0005442166761740764,138.2311557353267,137.78986115623297,0,0.23999905586242676,2019-08-06 14:48:41:626
-0.10872642695903778,0.25248804688453674,9.727149963378906,-0.0004688308170663259,-0.00255672619263854,0.0010769789638618162,139.05427186940145,138.6044263954301,0,0.24381160736083984,2019-08-06 14:48:41:630
-0.23325340449810028,0.23811954259872437,9.763071060180664,6.393147468507523e-05,-0.0014912016822816417,0.0026752657293971638,139.84606009894134,139.40438418689305,0,0.2467494010925293,2019-08-06 14:48:41:633
-0.09914742410182953,0.2884092926979065,9.861255645751953,0.0016622183661939237,-0.0030894884478169893,0.003208027984575613,140.63818315328976,140.18248771294057,0,0.25000739097595215,2019-08-06 14:48:41:636
-0.08717367798089981,0.28601452708244324,9.88520336151123,-0.00020244967322245603,-0.00255672619263854,0.0002778355485848519,141.41586061216915,140.94573499449405,0,0.253812313079834,2019-08-06 14:48:41:640
-0.17577941715717316,0.2548827826976776,9.849282264709473,-0.003132642320523606,-0.0017575828098708665,0.002941646856986388,142.16738720096888,141.69769425142172,0,0.2567782402038574,2019-08-06 14:48:41:643
-0.09196317940950394,0.28361979126930237,9.837308883666992,-0.0018007365525403206,-0.0028231073202277645,0.0018761223466294901,142.91383821149577,142.43103748339405,0,0.26000142097473145,2019-08-06 14:48:41:646
-0.20212166011333466,0.2285405397415161,9.875624656677246,-0.00393178570329128,-0.0028231073202277645,0.0002778355485848519,143.63271794348478,143.15674730665808,0,0.2638266086578369,2019-08-06 14:48:41:650
-0.11112117767333984,0.2285405397415161,9.935493469238281,-0.004198166830880505,-0.0006920582344953867,0.0016097412190402653,144.34736289970996,143.86795578960684,0,0.2667860984802246,2019-08-06 14:48:41:653
-0.13027916848659515,0.24051429331302643,9.825334548950195,-0.0012679742973618717,-0.004687775213352337,0.0021425034742187147,145.0460735959353,144.56278169251647,0,0.2700204849243164,2019-08-06 14:48:41:656
-0.094357930123806,0.25967228412628174,9.849282264709473,-0.002599880065345157,0.00010708522141819095,0.002941646856986388,145.73415145992274,145.24187788965975,0,0.2738320827484131,2019-08-06 14:48:41:660
-0.13027916848659515,0.2285405397415161,9.846887588500977,0.0005966937908184444,-0.00255672619263854,0.004806315010185286,146.40472777824658,145.91035116938744,0,0.27675414085388184,2019-08-06 14:48:41:663
-0.1207001730799675,0.321935772895813,9.801386833190918,-0.00020244967322245603,-0.002023963937460091,-0.0007876890592999184,147.06289104452614,146.5545558669779,0,0.2799975872039795,2019-08-06 14:48:41:666
-0.05843668058514595,0.24051429331302643,9.866044998168945,-0.00020244967322245603,-0.003622250702995438,0.003474409372239163,147.71562316160984,147.19557860295683,0,0.28381848335266113,2019-08-06 14:48:41:670
-0.13267391920089722,0.25248804688453674,9.909151077270508,-0.0028662611929343817,-0.0030894884478169893,-0.0007876890592999184,148.34648024470116,147.8229494676447,0,0.28676605224609375,2019-08-06 14:48:41:673
-0.1662004142999649,0.2285405397415161,9.813361167907715,0.0016622183661939237,-0.004954156340941561,0.003208027984575613,148.9610439772767,148.4395068167064,0,0.2899973392486572,2019-08-06 14:48:41:676
-0.11112117767333984,0.262067049741745,9.83491325378418,-0.00020244967322245603,-0.006019680851298459,-0.00025492675535753324,149.57016412922064,149.04023245350652,0,0.2938072681427002,2019-08-06 14:48:41:680
-0.11591067165136337,0.23093529045581818,9.880414009094238,-0.0007352119771648412,-0.0030894884478169893,0.0008105978362725917,150.16583431876546,149.63277194554848,0,0.2967817783355713,2019-08-06 14:48:41:683
-0.12548966705799103,0.25727754831314087,9.882808685302734,-0.0010015931047540657,-0.0030894884478169893,-0.0005213078992014032,150.74852689410574,150.21047305171277,0,0.3000044822692871,2019-08-06 14:48:41:686
-0.10633167624473572,0.25967228412628174,9.997756958007812,-0.0020671176801295454,-0.0030894884478169893,1.1454389502251989e-05,151.32203149385674,150.77695036760716,0,0.303821325302124,2019-08-06 14:48:41:690
-0.1470424234867096,0.23093529045581818,9.84449291229248,-0.0004688308170663259,-0.003622250702995438,0.0016097412190402653,151.87906968866739,151.33461185404212,0,0.30673956871032715,2019-08-06 14:48:41:693
-0.12309492379426956,0.25727754831314087,9.820545196533203,-0.002333498937755932,-0.0022903450650493154,-0.00025492675535753324,152.42754472758915,151.87833288719298,0,0.3099982738494873,2019-08-06 14:48:41:696
-0.16380566358566284,0.25727754831314087,9.825334548950195,0.0013958372386046994,-0.004687775213352337,0.004007171627417612,152.96090649800297,152.41046482336895,0,0.3138556480407715,2019-08-06 14:48:41:700
-0.03688393533229828,0.171066552400589,9.849282264709473,-0.0010015931047540657,-0.005753299723709235,0.002941646856986388,153.49819128088674,152.94249303014666,0,0.3163139820098877,2019-08-06 14:48:41:703
-0.14464767277240753,0.25727754831314087,9.825334548950195,-0.0028662611929343817,-0.0012248205546924172,0.0016097412190402653,154.0116097444622,153.45423178149457,0,0.3199656009674072,2019-08-06 14:48:41:706
-0.19733215868473053,0.22614578902721405,9.746308326721191,-0.0010015931047540657,-0.0028231073202277645,0.0002778355485848519,154.50878327430507,153.9587771790724,0,0.3237743377685547,2019-08-06 14:48:41:710
-0.1278844177722931,0.21896153688430786,9.882808685302734,-0.001534355424951096,-0.0022903450650493154,0.0008105978362725917,155.0041605400603,154.4544719185166,0,0.32673192024230957,2019-08-06 14:48:41:713
-0.1470424234867096,0.26446178555488586,9.849282264709473,-0.00020244967322245603,-0.00042567707439687154,0.0010769789638618162,155.48704919574516,154.93465826183996,0,0.33000612258911133,2019-08-06 14:48:41:716
-0.13746342062950134,0.223751038312912,9.87322998046875,-0.0020671176801295454,-0.003888631830584663,0.0010769789638618162,155.96218828597884,155.4104433916597,0,0.33382320404052734,2019-08-06 14:48:41:720
-0.08477892726659775,0.223751038312912,9.803781509399414,0.0011294561110154748,-0.004687775213352337,1.1454389502251989e-05,156.43380363678645,155.8759008080459,0,0.33674192428588867,2019-08-06 14:48:41:723
-0.17577941715717316,0.22135628759860992,9.90196704864502,0.0019285994937831485,0.00010708522141819095,0.0002778355485848519,156.8847678922913,156.33241828097334,0,0.3399932384490967,2019-08-06 14:48:41:726
-0.13506866991519928,0.2357247918844223,9.820545196533203,0.0013958372386046994,-0.0022903450650493154,0.0016097412190402653,157.33180339436458,156.77797063455253,0,0.34380674362182617,2019-08-06 14:48:41:730
-0.18056891858577728,0.20459304749965668,9.856466293334961,0.0013958372386046994,-0.0009584393620846114,0.006670982903309857,157.7643364109413,157.2183959650462,0,0.3467748165130615,2019-08-06 14:48:41:733
-0.1278844177722931,0.223751038312912,9.830123901367188,-0.002599880065345157,-0.003888631830584663,-0.0018532135696568165,158.19484719609622,157.64842042653174,0,0.35000085830688477,2019-08-06 14:48:41:736
-0.11591067165136337,0.17585605382919312,9.813361167907715,-0.0010015931047540657,-0.0030894884478169893,0.002408884601807939,158.61807755074915,158.07513384486657,0,0.35381507873535156,2019-08-06 14:48:41:740
-0.10393692553043365,0.216566801071167,9.87322998046875,-0.0018007365525403206,-0.003622250702995438,-0.0005213078992014032,159.03424690927048,158.48879496863282,0,0.356734037399292,2019-08-06 14:48:41:743
-0.09914742410182953,0.24530379474163055,9.849282264709473,0.0013958372386046994,-0.00255672619263854,0.0002778355485848519,159.44249975879174,158.89022700043338,0,0.36002683639526367,2019-08-06 14:48:41:746
-0.12548966705799103,0.23811954259872437,9.854071617126465,0.00033031263071992917,-0.005753299723709235,0.0008105978362725917,159.84028232088355,159.28466695673706,0,0.3638181686401367,2019-08-06 14:48:41:750
-0.10393692553043365,0.21417205035686493,9.791808128356934,-0.0010015931047540657,-0.004954156340941561,0.0005442166761740764,160.23212366071715,159.67407726098546,0,0.3667302131652832,2019-08-06 14:48:41:753
-0.15901616215705872,0.2357247918844223,9.791808128356934,0.0005966937908184444,-0.0033558695754062136,0.0010769789638618162,160.60948806408507,160.05290536887802,0,0.3699917793273926,2019-08-06 14:48:41:756
-0.16859516501426697,0.23811954259872437,9.87322998046875,-0.002333498937755932,-0.004155012958173888,0.002408884601807939,160.97862098695956,160.4247147246455,0,0.37379980087280273,2019-08-06 14:48:41:760
-0.1853584200143814,0.25248804688453674,9.751097679138184,0.0013958372386046994,-0.0022903450650493154,0.0002778355485848519,161.33764769142542,160.78632443488937,0,0.37674832344055176,2019-08-06 14:48:41:763
-0.09196317940950394,0.2429090440273285,9.909151077270508,0.0013958372386046994,-0.0028231073202277645,0.0005442166761740764,161.70077621616957,161.14225792118992,0,0.3800034523010254,2019-08-06 14:48:41:766
-0.12309492379426956,0.20459304749965668,9.784624099731445,-0.0010015931047540657,-0.00255672619263854,0.0026752657293971638,162.05289450194388,161.49567070134177,0,0.38382887840270996,2019-08-06 14:48:41:770
-0.11591067165136337,0.21417205035686493,9.739123344421387,0.0019285994937831485,-0.004954156340941561,0.003474409372239163,162.39901007021675,161.84024592904362,0,0.38674426078796387,2019-08-06 14:48:41:773
-0.14225292205810547,0.18782979249954224,9.839703559875488,-0.0007352119771648412,-0.003888631830584663,0.002408884601807939,162.73517403050386,162.18170347208337,0,0.38999390602111816,2019-08-06 14:48:41:776
-0.0680156797170639,0.1974087953567505,9.868440628051758,-0.0012679742973618717,-0.0028231073202277645,0.002941646856986388,163.07317770680547,162.51542121720146,0,0.3938102722167969,2019-08-06 14:48:41:780
-0.15662142634391785,0.21417205035686493,9.86365032196045,-0.002333498937755932,-0.0030894884478169893,0.003474409372239163,163.39403510057514,162.8406241208758,0,0.39677906036376953,2019-08-06 14:48:41:783
-0.17098991572856903,0.2357247918844223,9.851676940917969,6.393147468507523e-05,-0.0009584393620846114,0.0018761223466294901,163.7064407514187,163.15638655094406,0,0.40000033378601074,2019-08-06 14:48:41:786
-0.13027916848659515,0.27883028984069824,9.818150520324707,6.393147468507523e-05,-0.0009584393620846114,0.0010769789638618162,164.0173127188961,163.46071047337546,0,0.40381503105163574,2019-08-06 14:48:41:790
-0.08238417655229568,0.1902245432138443,9.808571815490723,-0.0010015931047540657,-0.004954156340941561,0.0002778355485848519,164.3282588841252,163.76946088705807,0,0.40711140632629395,2019-08-06 14:48:41:793
-0.15901616215705872,0.276435524225235,9.772649765014648,-0.006329216111668627,-0.0022903450650493154,0.0026752657293971638,164.62354967475386,164.0630483176711,0,0.41100049018859863,2019-08-06 14:48:41:797
-0.11830542236566544,0.28361979126930237,9.827729225158691,0.002727743006587985,-0.004687775213352337,0.0002778355485848519,164.91794717140408,164.3483410303232,0,0.4135165214538574,2019-08-06 14:48:41:800
-0.14225292205810547,0.2357247918844223,9.803781509399414,-0.0018007365525403206,-0.004421394085763112,0.0037407904998283874,165.20357666353604,164.63407708754292,0,0.41599178314208984,2019-08-06 14:48:41:802
-0.056041933596134186,0.2668565511703491,9.880414009094238,-0.004464548218544054,-0.004954156340941561,0.0026752657293971638,165.49403578867955,164.91138187668872,0,0.4196953773498535,2019-08-06 14:48:41:806
-0.14943717420101166,0.23333004117012024,9.846887588500977,-0.0018007365525403206,-0.00255672619263854,0.0018761223466294901,165.7673552933905,165.18642103259614,0,0.4238009452819824,2019-08-06 14:48:41:810
-0.13746342062950134,0.21417205035686493,9.882808685302734,0.0016622183661939237,-0.004954156340941561,0.0013433600914510408,166.0368913451698,165.4575876794372,0,0.42675256729125977,2019-08-06 14:48:41:813
-0.12309492379426956,0.23811954259872437,9.820545196533203,-0.0007352119771648412,-0.0006920582344953867,-0.00025492675535753324,166.30191691012905,165.72079015849167,0,0.4299960136413574,2019-08-06 14:48:41:816
-0.14225292205810547,0.20459304749965668,9.760676383972168,-0.0004688308170663259,-0.0017575828098708665,0.0021425034742187147,166.5595557603438,165.98245887057797,0,0.43381285667419434,2019-08-06 14:48:41:820
-0.08717367798089981,0.19261929392814636,9.870835304260254,0.0016622183661939237,-0.0033558695754062136,0.0013433600914510408,166.818794399666,166.2401789420528,0,0.43672943115234375,2019-08-06 14:48:41:823
-0.14225292205810547,0.24530379474163055,9.775045394897461,-0.0007352119771648412,-0.0033558695754062136,0.0018761223466294901,167.0663584642814,166.4867594724195,0,0.43999266624450684,2019-08-06 14:48:41:826
-0.1470424234867096,0.262067049741745,9.870835304260254,-0.0020671176801295454,-0.0030894884478169893,0.0021425034742187147,167.30862280157277,166.72704975373185,0,0.4438004493713379,2019-08-06 14:48:41:830
-0.15901616215705872,0.22614578902721405,9.770255088806152,0.000863074918407669,-0.00255672619263854,0.005605458392952959,167.5442288586037,166.96584549503146,0,0.4467766284942627,2019-08-06 14:48:41:833
-0.1135159283876419,0.24051429331302643,9.928308486938477,-0.0010015931047540657,-0.0017575828098708665,0.004007171627417612,167.7805611861729,167.19895544058306,0,0.45000123977661133,2019-08-06 14:48:41:836
-0.1398581713438034,0.23811954259872437,9.88520336151123,-0.0004688308170663259,-0.004954156340941561,0.002408884601807939,168.0098209383025,167.42748075025725,0,0.45389294624328613,2019-08-06 14:48:41:840
-0.17098991572856903,0.21177729964256287,9.92591381072998,0.0011294561110154748,-0.002023963937460091,0.0002778355485848519,168.23016199731222,167.65433192604857,0,0.45631957054138184,2019-08-06 14:48:41:843
-0.11830542236566544,0.22135628759860992,9.866044998168945,0.000863074918407669,-0.00255672619263854,0.00507269613777451,168.45234291000068,167.8753626310406,0,0.4599721431732178,2019-08-06 14:48:41:846
-0.17577941715717316,0.1902245432138443,9.84449291229248,6.393147468507523e-05,-0.0028231073202277645,0.002941646856986388,168.66344174857497,168.09570198537574,0,0.46378588676452637,2019-08-06 14:48:41:850
-0.10393692553043365,0.22135628759860992,9.741518020629883,0.0019285994937831485,-0.0014912016822816417,0.003474409372239163,168.8781950148336,168.30743312101654,0,0.4667472839355469,2019-08-06 14:48:41:853
-0.15901616215705872,0.21177729964256287,9.818150520324707,-0.00020244967322245603,-0.0022903450650493154,0.0021425034742187147,169.08249228040503,168.51660794834208,0,0.4700050354003906,2019-08-06 14:48:41:856
-0.15662142634391785,0.216566801071167,9.88520336151123,-0.0036654045757020556,-0.0033558695754062136,0.0021425034742187147,169.2834062171927,168.7219593046717,0,0.4738163948059082,2019-08-06 14:48:41:860
-0.1398581713438034,0.2812250256538391,9.897176742553711,0.00033031263071992917,-0.0014912016822816417,0.0037407904998283874,169.48179024941868,168.9149139819647,0,0.4767322540283203,2019-08-06 14:48:41:863
-0.07519993185997009,0.21896153688430786,9.820545196533203,-0.001534355424951096,-0.004421394085763112,0.0026752657293971638,169.68418905740648,169.1113511019293,0,0.4799916744232178,2019-08-06 14:48:41:866
-0.15422667562961578,0.26925128698349,9.83491325378418,0.0035268863893556587,-0.0028231073202277645,0.002941646856986388,169.87314027593607,169.2970064357201,0,0.4837973117828369,2019-08-06 14:48:41:870
-0.08717367798089981,0.2429090440273285,9.930704116821289,0.002727743006587985,-0.00255672619263854,0.00507269613777451,170.06604697668826,169.48258536501822,0,0.48678088188171387,2019-08-06 14:48:41:873
-0.12309492379426956,0.23333004117012024,9.849282264709473,-0.0012679742973618717,-0.006818824754214785,0.004539933882596061,170.2516379115371,169.66602113864568,0,0.49000024795532227,2019-08-06 14:48:41:876
-0.15901616215705872,0.25727754831314087,9.88520336151123,-0.0010015931047540657,-0.005753299723709235,0.0010769789638618162,170.42940262223178,169.8430972664541,0,0.4938058853149414,2019-08-06 14:48:41:880
-0.20691116154193878,0.24051429331302643,9.767860412597656,-0.0004688308170663259,-0.0033558695754062136,0.0010769789638618162,170.5970942811638,170.0181019264557,0,0.49672389030456543,2019-08-06 14:48:41:883
-0.13746342062950134,0.26446178555488586,9.854071617126465,0.00033031263071992917,-0.004155012958173888,0.004806315010185286,170.76994735802268,170.18693143782716,0,0.5000643730163574,2019-08-06 14:48:41:886
-0.14943717420101166,0.27883028984069824,9.789413452148438,0.0035268863893556587,-0.0017575828098708665,0.0002778355485848519,170.93742894251668,170.34981665686598,0,0.5038316249847412,2019-08-06 14:48:41:890
-0.15183192491531372,0.22135628759860992,9.8229398727417,-0.0012679742973618717,-0.003888631830584663,0.004007171627417612,171.10160538912632,170.51720925743473,0,0.5067439079284668,2019-08-06 14:48:41:893
-0.12309492379426956,0.2548827826976776,9.784624099731445,-0.00020244967322245603,-0.003888631830584663,0.003208027984575613,171.26586714910184,170.6770584261237,0,0.5099921226501465,2019-08-06 14:48:41:896
-0.10154217481613159,0.23811954259872437,9.882808685302734,0.00033031263071992917,-0.0022903450650493154,0.002941646856986388,171.42926657684157,170.83584184496652,0,0.5138039588928223,2019-08-06 14:48:41:900
-0.11591067165136337,0.26925128698349,9.798992156982422,-0.0020671176801295454,-0.006019680851298459,-0.00025492675535753324,171.58812275655404,170.98798801977767,0,0.5167498588562012,2019-08-06 14:48:41:903
-0.15901616215705872,0.25248804688453674,9.846887588500977,-0.002599880065345157,-0.003888631830584663,1.1454389502251989e-05,171.73856766669581,171.13932717622558,0,0.5200061798095703,2019-08-06 14:48:41:906
-0.15901616215705872,0.2093825489282608,9.830123901367188,-0.0020671176801295454,-0.0033558695754062136,0.0013433600914510408,171.88598002346671,171.2925790358978,0,0.5238213539123535,2019-08-06 14:48:41:910
-0.16859516501426697,0.2884092926979065,9.854071617126465,-0.001534355424951096,0.0017053721088633783,-0.0005213078992014032,172.0283773239148,171.43344964682728,0,0.5267384052276611,2019-08-06 14:48:41:913
-0.15422667562961578,0.21177729964256287,9.777440071105957,0.0013958372386046994,-0.004421394085763112,0.0013433600914510408,172.1705459897926,171.57970850223464,0,0.5300014019012451,2019-08-06 14:48:41:916
-0.14464767277240753,0.2357247918844223,9.904361724853516,0.0005966937908184444,-0.0009584393620846114,0.0002778355485848519,172.3106058768573,171.72071890234128,0,0.5338120460510254,2019-08-06 14:48:41:920
-0.15662142634391785,0.25727754831314087,9.810966491699219,0.0021949807514095357,-0.00255672619263854,0.0026752657293971638,172.44652859024046,171.85589531077719,0,0.5367834568023682,2019-08-06 14:48:41:923
-0.11830542236566544,0.22614578902721405,9.755887031555176,-0.0018007365525403206,-0.004155012958173888,0.004007171627417612,172.58445382151723,171.9925448668135,0,0.5400030612945557,2019-08-06 14:48:41:926
-0.1470424234867096,0.2668565511703491,9.815755844116211,0.0024613618789987605,-0.0033558695754062136,-0.0021195946972460415,172.71632062960896,172.1210195535299,0,0.5438277721405029,2019-08-06 14:48:41:930
-0.09196317940950394,0.2093825489282608,9.86365032196045,-0.0004688308170663259,-0.0014912016822816417,0.004539933882596061,172.85155505479258,172.25435451090652,0,0.5467467308044434,2019-08-06 14:48:41:933
-0.14943717420101166,0.23093529045581818,9.90196704864502,-0.0012679742973618717,-0.0030894884478169893,0.0037407904998283874,172.97782111287208,172.38278902404485,0,0.5501456260681152,2019-08-06 14:48:41:936
-0.14943717420101166,0.21896153688430786,9.861255645751953,-0.002333498937755932,-0.0054869185961200105,0.00507269613777451,173.1020413741546,172.51017830370904,0,0.5538475513458252,2019-08-06 14:48:41:940
-0.13267391920089722,0.26925128698349,9.827729225158691,0.000863074918407669,-0.0054869185961200105,0.00507269613777451,173.2254308297652,172.6284463901687,0,0.5567660331726074,2019-08-06 14:48:41:943
-0.14225292205810547,0.21896153688430786,9.918729782104492,0.0024613618789987605,-0.003888631830584663,0.0013433600914510408,173.34519521583874,172.75013769887477,0,0.5600013732910156,2019-08-06 14:48:41:946
-0.18296366930007935,0.25967228412628174,9.827729225158691,-0.0018007365525403206,-0.006019680851298459,0.0042735527550068365,173.45824858478855,172.86524955629207,0,0.5638132095336914,2019-08-06 14:48:41:950
-0.08238417655229568,0.21417205035686493,9.784624099731445,0.004059648644534107,-0.0028231073202277645,0.002941646856986388,173.5799007827996,172.98219697497984,0,0.5667483806610107,2019-08-06 14:48:41:953
-0.18296366930007935,0.1974087953567505,9.904361724853516,-0.0020671176801295454,-0.002023963937460091,1.1454389502251989e-05,173.68750601836925,173.10009350560668,0,0.5699987411499023,2019-08-06 14:48:41:956
-0.20451641082763672,0.23093529045581818,9.918729782104492,-0.0004688308170663259,-0.0033558695754062136,0.005605458392952959,173.79084995193756,173.2115167801709,0,0.5738122463226318,2019-08-06 14:48:41:960
-0.16380566358566284,0.22614578902721405,9.751097679138184,0.000863074918407669,-0.00042567707439687154,0.00507269613777451,173.89585453711186,173.32057410328125,0,0.5767264366149902,2019-08-06 14:48:41:963
-0.11830542236566544,0.23811954259872437,9.849282264709473,-0.0010015931047540657,-0.0030894884478169893,0.003474409372239163,174.0047416371008,173.42664805019172,0,0.5799994468688965,2019-08-06 14:48:41:966
-0.14464767277240753,0.27883028984069824,9.827729225158691,-0.002599880065345157,-0.0022903450650493154,0.003474409372239163,174.1082713607425,173.5261675484717,0,0.5838041305541992,2019-08-06 14:48:41:970
-0.13506866991519928,0.25248804688453674,9.945072174072266,0.003260505261766434,-0.005220537468530785,0.002408884601807939,174.21141727834862,173.62601203469652,0,0.5867843627929688,2019-08-06 14:48:41:973
-0.13267391920089722,0.22135628759860992,9.854071617126465,-0.0036654045757020556,-0.004954156340941561,0.0037407904998283874,174.31265768609774,173.7284180469892,0,0.5900063514709473,2019-08-06 14:48:41:976
-0.09675268083810806,0.2429090440273285,9.957045555114746,-0.0010015931047540657,-0.0054869185961200105,0.003208027984575613,174.416489795432,173.82612248451736,0,0.5939655303955078,2019-08-06 14:48:41:980
-0.08238417655229568,0.25248804688453674,9.866044998168945,0.000863074918407669,-0.004155012958173888,0.0026752657293971638,174.51915353660436,173.92016385836962,0,0.59637451171875,2019-08-06 14:48:41:983
-0.1278844177722931,0.21417205035686493,9.88520336151123,0.0013958372386046994,-0.0033558695754062136,-0.00025492675535753324,174.61472304014922,174.01661420960215,0,0.6004948616027832,2019-08-06 14:48:41:987
-0.20212166011333466,0.21896153688430786,9.849282264709473,0.0005966937908184444,-0.0030894884478169893,0.003208027984575613,174.69956056429868,174.110686536554,0,0.604210376739502,2019-08-06 14:48:41:991
-0.10154217481613159,0.2500932812690735,9.810966491699219,0.000863074918407669,-0.0028231073202277645,0.0008105978362725917,174.79407017890006,174.19915816686276,0,0.6064844131469727,2019-08-06 14:48:41:993
-0.14943717420101166,0.24530379474163055,9.808571815490723,-0.001534355424951096,-0.0022903450650493154,0.002941646856986388,174.88126108034476,174.2868772856952,0,0.6106009483337402,2019-08-06 14:48:41:997
-0.13027916848659515,0.23093529045581818,9.882808685302734,-0.0012679742973618717,-0.00015929593055300162,-0.0010540701868891429,174.968564209782,174.3746334125379,0,0.6143348217010498,2019-08-06 14:48:42:001
-0.16141091287136078,0.25727754831314087,9.83491325378418,0.0013958372386046994,-0.0017575828098708665,0.0021425034742187147,175.05061239522024,174.4569925074462,0,0.6166105270385742,2019-08-06 14:48:42:003
-0.10633167624473572,0.27164602279663086,9.801386833190918,-0.0020671176801295454,-0.004421394085763112,0.005605458392952959,175.13803981672874,174.53650878910352,0,0.6201181411743164,2019-08-06 14:48:42:006
-0.08956842869520187,0.1830402910709381,9.832518577575684,0.0005966937908184444,-0.0033558695754062136,-0.0013204513144783674,175.22555824752178,174.624321345878,0,0.6239261627197266,2019-08-06 14:48:42:010
-0.11112117767333984,0.23811954259872437,9.849282264709473,-0.00020244967322245603,-0.0030894884478169893,0.0005442166761740764,175.30853919257643,174.7041637957355,0,0.6263470649719238,2019-08-06 14:48:42:013
-0.17817416787147522,0.25248804688453674,9.76546573638916,6.393147468507523e-05,-0.003622250702995438,0.0026752657293971638,175.38220770735097,174.78044610331995,0,0.6300079822540283,2019-08-06 14:48:42:016
-0.18775317072868347,0.21177729964256287,9.813361167907715,-0.00020244967322245603,-0.004155012958173888,0.0042735527550068365,175.45353320436308,174.86015499874253,0,0.6338274478912354,2019-08-06 14:48:42:020
-0.08717367798089981,0.2093825489282608,9.755887031555176,-0.0020671176801295454,-0.0009584393620846114,0.0016097412190402653,175.53438089811027,174.9387013242681,0,0.6367523670196533,2019-08-06 14:48:42:023
-0.14943717420101166,0.276435524225235,9.83491325378418,-0.0007352119771648412,-0.005220537468530785,0.0005442166761740764,175.60734873282007,175.00787696854323,0,0.6403882503509521,2019-08-06 14:48:42:027
-0.14464767277240753,0.171066552400589,9.882808685302734,0.000863074918407669,-0.0022903450650493154,0.0013433600914510408,175.67887801079138,175.087717727481,0,0.6438641548156738,2019-08-06 14:48:42:030
-0.2117006629705429,0.30277779698371887,9.851676940917969,0.000863074918407669,-0.004954156340941561,0.003474409372239163,175.74149048409913,175.15061509445096,0,0.6467781066894531,2019-08-06 14:48:42:033
-0.13027916848659515,0.21177729964256287,9.858860969543457,-0.003132642320523606,-0.002023963937460091,0.0010769789638618162,175.81188599932253,175.2235593920615,0,0.650007963180542,2019-08-06 14:48:42:036
-0.14943717420101166,0.15430329740047455,9.818150520324707,0.002727743006587985,-0.002023963937460091,0.0026752657293971638,175.87864144046344,175.30049646566357,0,0.6538200378417969,2019-08-06 14:48:42:040
-0.1278844177722931,0.2429090440273285,9.830123901367188,0.0011294561110154748,-0.0028231073202277645,0.0013433600914510408,175.94662662808554,175.36598995066174,0,0.6567528247833252,2019-08-06 14:48:42:043
-0.14225292205810547,0.20698779821395874,9.801386833190918,-0.0007352119771648412,-0.0030894884478169893,0.002408884601807939,176.01163211500997,175.43460926111922,0,0.6600279808044434,2019-08-06 14:48:42:046
-0.14943717420101166,0.25967228412628174,9.830123901367188,0.0024613618789987605,-0.0030894884478169893,0.002941646856986388,176.07464513058645,175.49512425351423,0,0.6638584136962891,2019-08-06 14:48:42:050
-0.1135159283876419,0.21177729964256287,9.832518577575684,-0.00020244967322245603,-0.003622250702995438,-0.0029187382100508774,176.14042356706844,175.56057228927511,0,0.6663181781768799,2019-08-06 14:48:42:053
-0.11591067165136337,0.22614578902721405,9.743913650512695,-0.0012679742973618717,-0.004954156340941561,0.0037407904998283874,176.2050053001005,175.62303146871903,0,0.6699886322021484,2019-08-06 14:48:42:056
-0.07519993185997009,0.21417205035686493,9.775045394897461,-0.0020671176801295454,-0.004687775213352337,-0.0005213078992014032,176.27309368834707,175.68591043341698,0,0.6738026142120361,2019-08-06 14:48:42:060
-0.21409541368484497,0.21896153688430786,9.779834747314453,-0.00393178570329128,-0.002023963937460091,0.0026752657293971638,176.32288930332214,175.74719966468194,0,0.676788330078125,2019-08-06 14:48:42:063
-0.07759468257427216,0.24530379474163055,9.79420280456543,-0.0010015931047540657,-0.005220537468530785,0.0026752657293971638,176.38830121175036,175.80374316633174,0,0.6800224781036377,2019-08-06 14:48:42:066
-0.1135159283876419,0.19261929392814636,9.78222942352295,-0.001534355424951096,-0.004155012958173888,0.0026752657293971638,176.44813283432578,175.865437653254,0,0.6838569641113281,2019-08-06 14:48:42:070
-0.12309492379426956,0.2285405397415161,9.842098236083984,-0.003132642320523606,-0.005220537468530785,0.003474409372239163,176.50555980889177,175.92195724444625,0,0.6863160133361816,2019-08-06 14:48:42:073
-0.1398581713438034,0.2548827826976776,9.88520336151123,-0.00393178570329128,-0.0014912016822816417,-0.0005213078992014032,176.5595526668318,175.9748103165917,0,0.6900858879089355,2019-08-06 14:48:42:076
-0.09914742410182953,0.2285405397415161,9.856466293334961,-0.003132642320523606,-0.004421394085763112,0.0018761223466294901,176.6177817785592,176.0294194257197,0,0.6938991546630859,2019-08-06 14:48:42:080
-0.13027916848659515,0.262067049741745,9.878019332885742,-0.0020671176801295454,-0.0033558695754062136,0.002408884601807939,176.67076999324192,176.0787176733802,0,0.6963202953338623,2019-08-06 14:48:42:083
-0.07759468257427216,0.1902245432138443,9.779834747314453,-0.0007352119771648412,-0.0054869185961200105,0.0018761223466294901,176.7293988881837,176.13500949296005,0,0.700007438659668,2019-08-06 14:48:42:086
-0.14225292205810547,0.21896153688430786,9.839703559875488,-0.0020671176801295454,-0.003622250702995438,0.0042735527550068365,176.77902313731275,176.18725737471948,0,0.7038307189941406,2019-08-06 14:48:42:090
-0.13267391920089722,0.17346130311489105,9.880414009094238,-0.00020244967322245603,-0.002023963937460091,0.0016097412190402653,176.82838881602567,176.24342977470846,0,0.7067568302154541,2019-08-06 14:48:42:093
-0.1662004142999649,0.25248804688453674,9.846887588500977,-0.0028662611929343817,-0.005753299723709235,0.004007171627417612,176.87353536529886,176.28970972261723,0,0.7100188732147217,2019-08-06 14:48:42:096
-0.14225292205810547,0.20698779821395874,9.856466293334961,-0.0012679742973618717,-0.0014912016822816417,0.0008105978362725917,176.91984740724342,176.34012667285728,0,0.7138402462005615,2019-08-06 14:48:42:100
-0.10633167624473572,0.25248804688453674,9.889992713928223,-0.001534355424951096,-0.003888631830584663,0.0008105978362725917,176.9697710522932,176.38432834023476,0,0.7167730331420898,2019-08-06 14:48:42:103
-0.1278844177722931,0.23333004117012024,9.734333992004395,0.0016622183661939237,-0.002023963937460091,0.0026752657293971638,177.01569496115647,176.4288734267637,0,0.7200541496276855,2019-08-06 14:48:42:106
-0.17817416787147522,0.2812250256538391,9.758281707763672,-0.0004688308170663259,-0.004954156340941561,-0.00025492675535753324,177.05552372648313,176.46738145338878,0,0.7238767147064209,2019-08-06 14:48:42:110
-0.16380566358566284,0.2740407884120941,9.818150520324707,0.00033031263071992917,-0.002023963937460091,-0.0015868324420675922,177.09557691116623,176.50601198552175,0,0.7263431549072266,2019-08-06 14:48:42:113
-0.05843668058514595,0.19501404464244843,9.878019332885742,-0.002599880065345157,-0.006019680851298459,-0.00025492675535753324,177.14812438023466,176.55380643997248,0,0.7300057411193848,2019-08-06 14:48:42:116
-0.18056891858577728,0.21417205035686493,9.875624656677246,0.0024613618789987605,-0.0028231073202277645,0.0002778355485848519,177.1848462077735,176.59732982868118,0,0.7340068817138672,2019-08-06 14:48:42:120
-0.14943717420101166,0.262067049741745,9.878019332885742,-0.00020244967322245603,-0.0009584393620846114,1.1454389502251989e-05,177.2239397615708,176.63501522364766,0,0.7363269329071045,2019-08-06 14:48:42:123
-0.12309492379426956,0.20459304749965668,9.83491325378418,0.0005966937908184444,-0.006818824754214785,0.0037407904998283874,177.26652061426094,176.67835755962008,0,0.7399868965148926,2019-08-06 14:48:42:126
-0.08717367798089981,0.2500932812690735,9.856466293334961,-0.0012679742973618717,-0.00015929593055300162,-0.003717881592818551,177.31108979888168,176.71599271328483,0,0.7438070774078369,2019-08-06 14:48:42:130
-0.18056891858577728,0.1974087953567505,9.897176742553711,0.000863074918407669,-0.003622250702995438,0.0016097412190402653,177.34456245468053,176.75867682039794,0,0.746751070022583,2019-08-06 14:48:42:133
-0.11830542236566544,0.24530379474163055,9.815755844116211,-0.0020671176801295454,-0.0014912016822816417,0.0016097412190402653,177.38413447898253,176.79525151632512,0,0.7500219345092773,2019-08-06 14:48:42:136
-0.15183192491531372,0.23093529045581818,9.808571815490723,-0.0010015931047540657,-0.0014912016822816417,0.0005442166761740764,177.4190356347887,176.83258713434773,0,0.7538514137268066,2019-08-06 14:48:42:140
-0.1278844177722931,0.23333004117012024,9.861255645751953,-0.0036654045757020556,-0.00255672619263854,0.0018761223466294901,177.45621424492762,176.86942751131156,0,0.7567710876464844,2019-08-06 14:48:42:143
-0.10872642695903778,0.23093529045581818,9.906756401062012,-0.0018007365525403206,-0.002023963937460091,0.004007171627417612,177.49488180269282,176.9056586648668,0,0.7600069046020508,2019-08-06 14:48:42:146
-0.09914742410182953,0.27883028984069824,9.810966491699219,-0.0028662611929343817,-0.007085205881804008,-0.0015868324420675922,177.5349214295953,176.93560081285563,0,0.7638206481933594,2019-08-06 14:48:42:150
-0.14225292205810547,0.22135628759860992,9.90196704864502,-0.0010015931047540657,-0.00015929593055300162,0.0008105978362725917,177.56778839261304,176.97144380435935,0,0.7667977809906006,2019-08-06 14:48:42:153
-0.1135159283876419,0.17825080454349518,9.882808685302734,0.000863074918407669,-0.004421394085763112,1.1454389502251989e-05,177.60407070211676,177.01119280964016,0,0.7700190544128418,2019-08-06 14:48:42:156
-0.15422667562961578,0.2093825489282608,9.83491325378418,0.0011294561110154748,-0.003622250702995438,0.005605458392952959,177.6347998541981,177.04633357043696,0,0.773848295211792,2019-08-06 14:48:42:160
-0.10872642695903778,0.23811954259872437,9.849282264709473,-0.0033990234481128304,-0.004954156340941561,0.002408884601807939,177.6702652409165,177.0782644430705,0,0.7767624855041504,2019-08-06 14:48:42:163
-0.11112117767333984,0.25248804688453674,9.90196704864502,-0.0012679742973618717,-0.004421394085763112,0.002941646856986388,177.7048077377936,177.1077174362582,0,0.7800126075744629,2019-08-06 14:48:42:166
-0.13746342062950134,0.16148754954338074,9.796597480773926,-0.0020671176801295454,-0.0030894884478169893,1.1454389502251989e-05,177.73529874454758,177.1471206200631,0,0.7838478088378906,2019-08-06 14:48:42:170
-0.1733846664428711,0.24769854545593262,9.76546573638916,0.00033031263071992917,-0.004954156340941561,0.0010769789638618162,177.76106129595271,177.1750644442573,0,0.786766767501831,2019-08-06 14:48:42:173
-0.07280518114566803,0.20219829678535461,9.875624656677246,6.393147468507523e-05,-0.0022903450650493154,0.0021425034742187147,177.7978100211763,177.20809274491373,0,0.7900149822235107,2019-08-06 14:48:42:176
-0.1398581713438034,0.276435524225235,9.818150520324707,-0.001534355424951096,-0.0030894884478169893,0.0037407904998283874,177.82619351883116,177.2320042906932,0,0.7938311100006104,2019-08-06 14:48:42:180
-0.12309492379426956,0.20698779821395874,9.86365032196045,0.0005966937908184444,-0.0033558695754062136,0.0026752657293971638,177.85592131454098,177.26322273091665,0,0.7967581748962402,2019-08-06 14:48:42:183
-0.11112117767333984,0.26925128698349,9.820545196533203,-0.0018007365525403206,-0.0012248205546924172,0.0002778355485848519,177.88606309072938,177.2868805087954,0,0.8000426292419434,2019-08-06 14:48:42:186
-0.18056891858577728,0.27883028984069824,9.849282264709473,-0.004464548218544054,-0.004155012958173888,0.004007171627417612,177.90822891698963,177.30967059676394,0,0.803870439529419,2019-08-06 14:48:42:190
-0.12309492379426956,0.2500932812690735,9.83491325378418,-0.002599880065345157,-0.0028231073202277645,0.002408884601807939,177.93611058570565,177.33470106649656,0,0.8063175678253174,2019-08-06 14:48:42:193
-0.13746342062950134,0.25727754831314087,9.743913650512695,-0.001534355424951096,-0.007085205881804008,-0.0013204513144783674,177.9626805945129,177.35807299321198,0,0.8099806308746338,2019-08-06 14:48:42:196
-0.13027916848659515,0.21896153688430786,9.87322998046875,0.0016622183661939237,-0.0006920582344953867,0.004007171627417612,177.98845555577694,177.385146262615,0,0.8137962818145752,2019-08-06 14:48:42:200
-0.14943717420101166,0.25727754831314087,9.803781509399414,-0.00020244967322245603,-0.0028231073202277645,0.0018761223466294901,178.0116956229062,177.4074123847218,0,0.8167915344238281,2019-08-06 14:48:42:203
-0.19493740797042847,0.29080402851104736,9.777440071105957,-0.00020244967322245603,-0.004954156340941561,-0.0005213078992014032,178.0295157505357,177.4252286437721,0,0.8200185298919678,2019-08-06 14:48:42:206
-0.14464767277240753,0.223751038312912,9.84449291229248,0.00033031263071992917,-0.00255672619263854,0.00507269613777451,178.05263807790104,177.4506126719577,0,0.8238403797149658,2019-08-06 14:48:42:210
-0.13267391920089722,0.25967228412628174,9.801386833190918,0.000863074918407669,-0.003888631830584663,0.0013433600914510408,178.0767116465377,177.47110696237866,0,0.8267567157745361,2019-08-06 14:48:42:213
-0.18296366930007935,0.25967228412628174,9.75349235534668,-0.004464548218544054,-0.0017575828098708665,0.002941646856986388,178.0940079921651,177.49200684371272,0,0.8300402164459229,2019-08-06 14:48:42:216
-0.15901616215705872,0.24530379474163055,9.858860969543457,-0.0010015931047540657,-0.00255672619263854,-0.0013204513144783674,178.1141941954437,177.51387492211032,0,0.8338541984558105,2019-08-06 14:48:42:220
-0.14943717420101166,0.26446178555488586,9.889992713928223,0.0021949807514095357,-0.002023963937460091,1.1454389502251989e-05,178.13492812695793,177.53260335236834,0,0.836768627166748,2019-08-06 14:48:42:223
-0.12309492379426956,0.22135628759860992,9.813361167907715,0.0005966937908184444,-0.0017575828098708665,0.005339077265363735,178.15817654238288,177.55599899663125,0,0.8400125503540039,2019-08-06 14:48:42:226
-0.08717367798089981,0.2500932812690735,9.73672866821289,0.004059648644534107,-0.004155012958173888,0.0018761223466294901,178.1856453549021,177.57458093185053,0,0.8438339233398438,2019-08-06 14:48:42:230
-0.07759468257427216,0.19980354607105255,9.825334548950195,-0.002333498937755932,-0.0022903450650493154,0.0010769789638618162,178.21325822709,177.60017213220783,0,0.8467526435852051,2019-08-06 14:48:42:233
-0.1207001730799675,0.22614578902721405,9.861255645751953,-0.002333498937755932,-0.003888631830584663,-0.0015868324420675922,178.23568092487716,177.62232213867415,0,0.8500180244445801,2019-08-06 14:48:42:236
-0.1278844177722931,0.2093825489282608,9.779834747314453,0.00033031263071992917,-0.004421394085763112,0.0018761223466294901,178.25693372122416,177.64527485774622,0,0.853844404220581,2019-08-06 14:48:42:240
-0.13027916848659515,0.2812250256538391,9.909151077270508,-0.0010015931047540657,-0.0006920582344953867,0.0016097412190402653,178.27684394922866,177.66002131619334,0,0.8567728996276855,2019-08-06 14:48:42:243
-0.08238417655229568,0.24530379474163055,9.849282264709473,-0.0010015931047540657,-0.0030894884478169893,0.0016097412190402653,178.30228416861704,177.67846905213509,0,0.8600118160247803,2019-08-06 14:48:42:246
-0.1135159283876419,0.22135628759860992,9.79420280456543,-0.0007352119771648412,0.0014389909812741537,0.0008105978362725917,178.3226490815208,177.69916325701075,0,0.8638324737548828,2019-08-06 14:48:42:250
-0.15422667562961578,0.2548827826976776,9.856466293334961,-0.003132642320523606,-0.005220537468530785,0.0008105978362725917,178.33913283106335,177.7160733255716,0,0.8667857646942139,2019-08-06 14:48:42:253
-0.1278844177722931,0.19980354607105255,9.837308883666992,-0.0004688308170663259,-0.0017575828098708665,0.004806315010185286,178.35777332867636,177.7385657361633,0,0.8700196743011475,2019-08-06 14:48:42:256
-0.1398581713438034,0.27164602279663086,9.868440628051758,-0.00020244967322245603,-0.004687775213352337,0.0021425034742187147,178.37538640189624,177.75230257974013,0,0.8738479614257812,2019-08-06 14:48:42:260
-0.10872642695903778,0.25248804688453674,9.748703002929688,0.0016622183661939237,-0.00255672619263854,0.0042735527550068365,178.39545870564882,177.76735042561086,0,0.8763542175292969,2019-08-06 14:48:42:263
-0.15422667562961578,0.23093529045581818,9.832518577575684,-0.00020244967322245603,-0.004421394085763112,0.0042735527550068365,178.4104856406765,177.78513598011537,0,0.8800146579742432,2019-08-06 14:48:42:266
-0.08477892726659775,0.1974087953567505,9.856466293334961,6.393147468507523e-05,-0.0017575828098708665,0.0008105978362725917,178.43279651944837,177.8064718206451,0,0.8838324546813965,2019-08-06 14:48:42:270
-0.13746342062950134,0.26925128698349,9.820545196533203,6.393147468507523e-05,-0.004687775213352337,0.0013433600914510408,178.44887034227793,177.81892203844845,0,0.8867528438568115,2019-08-06 14:48:42:273
-0.17098991572856903,0.20698779821395874,9.801386833190918,-0.0033990234481128304,-0.004954156340941561,0.003208027984575613,178.46081358796266,177.8389716253512,0,0.8900229930877686,2019-08-06 14:48:42:276
-0.1398581713438034,0.1974087953567505,9.818150520324707,-0.001534355424951096,-0.005220537468530785,0.0002778355485848519,178.47639790811058,177.85948495447803,0,0.8938536643981934,2019-08-06 14:48:42:280
-0.13746342062950134,0.216566801071167,9.842098236083984,0.0005966937908184444,-0.004421394085763112,0.0021425034742187147,178.49159025312116,177.8769867233447,0,0.8967704772949219,2019-08-06 14:48:42:283
-0.11830542236566544,0.25967228412628174,9.79420280456543,-0.0004688308170663259,-0.002023963937460091,0.0005442166761740764,178.50828879995646,177.88915862701103,0,0.9000380039215088,2019-08-06 14:48:42:286
-0.06562092900276184,0.25727754831314087,9.815755844116211,-0.0004688308170663259,-0.0012248205546924172,0.0002778355485848519,178.53072532909,177.90144776005533,0,0.9038612842559814,2019-08-06 14:48:42:290
-0.10393692553043365,0.1974087953567505,9.897176742553711,-0.0020671176801295454,-0.006019680851298459,0.0042735527550068365,178.54906756013875,177.92090550839112,0,0.9067912101745605,2019-08-06 14:48:42:293
-0.1398581713438034,0.18782979249954224,9.878019332885742,-0.0007352119771648412,-0.0017575828098708665,0.004539933882596061,178.5621821327332,177.94083409658995,0,0.9100267887115479,2019-08-06 14:48:42:296
-0.11112117767333984,0.2548827826976776,9.832518577575684,-0.00020244967322245603,-0.003622250702995438,0.0010769789638618162,178.57876732453263,177.9523626715384,0,0.9138555526733398,2019-08-06 14:48:42:300
-0.13746342062950134,0.24530379474163055,9.858860969543457,-0.0004688308170663259,-0.004687775213352337,-0.0005213078992014032,178.59186519745282,177.96487412891304,0,0.9163243770599365,2019-08-06 14:48:42:303
-0.12309492379426956,0.2548827826976776,9.887598037719727,-0.0004688308170663259,-0.0030894884478169893,0.0013433600914510408,178.60639895473565,177.97614030334444,0,0.9199924468994141,2019-08-06 14:48:42:306
-0.07280518114566803,0.2548827826976776,9.923519134521484,0.0016622183661939237,-0.0022903450650493154,0.0013433600914510408,178.626358105146,177.9868328293947,0,0.9238348007202148,2019-08-06 14:48:42:310
-0.15662142634391785,0.17585605382919312,9.798992156982422,-0.002333498937755932,-0.0014912016822816417,0.0005442166761740764,178.6357616560232,178.00691647156842,0,0.9267585277557373,2019-08-06 14:48:42:313
-0.14464767277240753,0.24051429331302643,9.86365032196045,-0.0018007365525403206,-0.00255672619263854,0.003208027984575613,178.64670968275988,178.01917040679527,0,0.9300086498260498,2019-08-06 14:48:42:316
-0.14225292205810547,0.20219829678535461,9.739123344421387,0.002994124134177209,-0.004954156340941561,-0.0007876890592999184,178.6581002699599,178.03435818410614,0,0.9338235855102539,2019-08-06 14:48:42:320
-0.14464767277240753,0.29798829555511475,9.803781509399414,-0.0010015931047540657,-0.0014912016822816417,0.0026752657293971638,178.66827818331137,178.03901648657467,0,0.9367597103118896,2019-08-06 14:48:42:323
-0.11112117767333984,0.22135628759860992,9.90196704864502,-0.0010015931047540657,-0.0006920582344953867,0.0005442166761740764,178.68218021084007,178.05280705367406,0,0.9400193691253662,2019-08-06 14:48:42:326
-0.13027916848659515,0.21896153688430786,9.79420280456543,-0.0020671176801295454,-0.005753299723709235,0.0002778355485848519,178.6945308708904,178.06658088309925,0,0.943845272064209,2019-08-06 14:48:42:330
-0.16380566358566284,0.24530379474163055,9.856466293334961,-0.002599880065345157,-0.0017575828098708665,0.004539933882596061,178.70188541477603,178.0771613448512,0,0.946758508682251,2019-08-06 14:48:42:333
-0.20691116154193878,0.2429090440273285,9.693623542785645,-0.001534355424951096,-0.004421394085763112,0.002941646856986388,178.70420017766912,178.0871895819072,0,0.9500148296356201,2019-08-06 14:48:42:336
-0.14464767277240753,0.21177729964256287,9.83491325378418,0.0035268863893556587,-0.002023963937460091,0.0042735527550068365,178.71369695296409,178.1000194825543,0,0.9538266658782959,2019-08-06 14:48:42:340
-0.11591067165136337,0.216566801071167,9.8229398727417,-0.0004688308170663259,0.00010708522141819095,0.0018761223466294901,178.72588403762836,178.11283707140188,0,0.9567873477935791,2019-08-06 14:48:42:343
-0.19733215868473053,0.1902245432138443,9.870835304260254,-0.0028662611929343817,-0.0033558695754062136,-0.00025492675535753324,178.72906987788136,178.12901981772376,0,0.9600191116333008,2019-08-06 14:48:42:346
-0.16380566358566284,0.26925128698349,9.820545196533203,0.0019285994937831485,-0.0012248205546924172,-0.0005213078992014032,178.73564027744453,178.13461421697278,0,0.9638545513153076,2019-08-06 14:48:42:350
-0.10154217481613159,0.23333004117012024,9.868440628051758,-0.0004688308170663259,-0.004687775213352337,0.002408884601807939,178.74990282780826,178.14490948083284,0,0.9667644500732422,2019-08-06 14:48:42:353
-0.15422667562961578,0.20459304749965668,9.870835304260254,0.0016622183661939237,-0.004421394085763112,0.0005442166761740764,178.75781664175275,178.15795696653447,0,0.9700462818145752,2019-08-06 14:48:42:356
-0.1398581713438034,0.24051429331302643,9.866044998168945,6.393147468507523e-05,-0.006552443626625559,0.0010769789638618162,178.7678213452115,178.1668545466266,0,0.9738626480102539,2019-08-06 14:48:42:360
-0.13027916848659515,0.21177729964256287,9.851676940917969,-0.002599880065345157,-0.004421394085763112,-0.0010540701868891429,178.77792109113773,178.17924606427783,0,0.9763154983520508,2019-08-06 14:48:42:363
-0.094357930123806,0.3267252743244171,9.806177139282227,-0.0007352119771648412,-0.0033558695754062136,0.0042735527550068365,178.79202884034967,178.17764692983252,0,0.9799888134002686,2019-08-06 14:48:42:366
-0.10154217481613159,0.19501404464244843,9.830123901367188,-0.0010015931047540657,-0.003888631830584663,0.0010769789638618162,178.80518636914886,178.191578806075,0,0.9838113784790039,2019-08-06 14:48:42:370
-0.16380566358566284,0.223751038312912,9.842098236083984,-0.003132642320523606,-0.00255672619263854,0.0021425034742187147,178.81043586534943,178.20221910262117,0,0.9867603778839111,2019-08-06 14:48:42:373
-0.18056891858577728,0.20698779821395874,9.69601821899414,-0.00020244967322245603,-0.003622250702995438,-0.0007876890592999184,178.81355046461434,178.21375271705318,0,0.99001145362854,2019-08-06 14:48:42:376
-0.1733846664428711,0.23333004117012024,9.849282264709473,0.0016622183661939237,-0.0030894884478169893,0.0026752657293971638,178.81777335989,178.22197853995746,0,0.9938406944274902,2019-08-06 14:48:42:380
-0.10633167624473572,0.2500932812690735,9.83491325378418,-0.0007352119771648412,-0.002023963937460091,0.004007171627417612,178.82936115684248,178.22852622078304,0,0.9967622756958008,2019-08-06 14:48:42:383
-0.12309492379426956,0.22135628759860992,9.820545196533203,-0.0004688308170663259,-0.0028231073202277645,0.0013433600914510408,178.83892671522472,178.23821658838247,0,1.000013828277588,2019-08-06 14:48:42:386
-0.07280518114566803,0.1974087953567505,9.767860412597656,0.0021949807514095357,-0.003888631830584663,0.002408884601807939,178.85444174461367,178.24982535112179,0,1.003835916519165,2019-08-06 14:48:42:390
-0.15183192491531372,0.23333004117012024,9.813361167907715,-0.0010015931047540657,-0.0014912016822816417,0.0018761223466294901,178.85987252525592,178.25775421706186,0,1.0067949295043945,2019-08-06 14:48:42:393
-0.15901616215705872,0.24051429331302643,9.83491325378418,0.0019285994937831485,-0.004687775213352337,0.003474409372239163,178.8649988151601,178.26423151809888,0,1.010023832321167,2019-08-06 14:48:42:396
-0.14225292205810547,0.276435524225235,9.86365032196045,0.000863074918407669,-0.004421394085763112,0.003208027984575613,178.87212283470205,178.26665494429034,0,1.0138471126556396,2019-08-06 14:48:42:400
-0.14464767277240753,0.2500932812690735,9.882808685302734,-0.002599880065345157,-0.006019680851298459,0.002408884601807939,178.8789084900227,178.27276102631552,0,1.0168023109436035,2019-08-06 14:48:42:403
-0.15422667562961578,0.23093529045581818,9.856466293334961,0.0005966937908184444,-0.0054869185961200105,0.0016097412190402653,178.88439900245555,178.28035362057983,0,1.020040512084961,2019-08-06 14:48:42:406
-0.11112117767333984,0.23811954259872437,9.882808685302734,-0.0004688308170663259,-0.00042567707439687154,0.004806315010185286,178.89391808449292,178.28724212926068,0,1.023850440979004,2019-08-06 14:48:42:410
-0.16380566358566284,0.2548827826976776,9.813361167907715,-0.003132642320523606,-0.0017575828098708665,0.005871839520542184,178.89720184447566,178.29225454907754,0,1.0267696380615234,2019-08-06 14:48:42:413
-0.16859516501426697,0.22614578902721405,9.803781509399414,0.0021949807514095357,-0.003622250702995438,0.00507269613777451,178.90021516296176,178.2995801281566,0,1.0300228595733643,2019-08-06 14:48:42:416
-0.09914742410182953,0.2548827826976776,9.770255088806152,0.000863074918407669,-0.003888631830584663,0.0013433600914510408,178.9114183749051,178.30351559451958,0,1.0338504314422607,2019-08-06 14:48:42:420
-0.10393692553043365,0.25967228412628174,9.854071617126465,6.393147468507523e-05,-0.0017575828098708665,0.0042735527550068365,178.92139163693037,178.30724488834227,0,1.0367672443389893,2019-08-06 14:48:42:423
-0.14943717420101166,0.26446178555488586,9.842098236083984,0.00033031263071992917,-0.003622250702995438,0.003474409372239163,178.92622594736463,178.31025594477498,0,1.0400111675262451,2019-08-06 14:48:42:426
-0.1853584200143814,0.20219829678535461,9.775045394897461,0.002727743006587985,-0.002023963937460091,0.0037407904998283874,178.9264103196019,178.3197636879344,0,1.043844223022461,2019-08-06 14:48:42:430
-0.1398581713438034,0.14951379597187042,9.808571815490723,-0.0018007365525403206,-0.004155012958173888,-0.0007876890592999184,178.93223199622656,178.3362005975555,0,1.0467936992645264,2019-08-06 14:48:42:433
-0.20212166011333466,0.21417205035686493,9.854071617126465,6.393147468507523e-05,-0.0014912016822816417,0.002408884601807939,178.93035633818053,178.344563170712,0,1.0500197410583496,2019-08-06 14:48:42:436
-0.15662142634391785,0.23093529045581818,9.861255645751953,-0.0010015931047540657,-0.007617968136982457,-0.0010540701868891429,178.93518796899596,178.35105650820557,0,1.053847312927246,2019-08-06 14:48:42:440
-0.17098991572856903,0.2357247918844223,9.868440628051758,0.0024613618789987605,-0.003622250702995438,0.005605458392952959,178.9372236951846,178.3562656481086,0,1.0567615032196045,2019-08-06 14:48:42:443
-0.19014792144298553,0.2668565511703491,9.801386833190918,-0.0018007365525403206,-0.0017575828098708665,0.0037407904998283874,178.93657255878657,178.35827819862504,0,1.060018539428711,2019-08-06 14:48:42:446
-0.07519993185997009,0.25727754831314087,9.789413452148438,0.00033031263071992917,-0.00255672619263854,0.004007171627417612,178.9496030742678,178.36093060448377,0,1.0639503002166748,2019-08-06 14:48:42:450
-0.13506866991519928,0.25248804688453674,9.854071617126465,-0.0012679742973618717,-0.0028231073202277645,0.0008105978362725917,178.95528030893246,178.36452548999557,0,1.0663175582885742,2019-08-06 14:48:42:453
-0.1278844177722931,0.18543504178524017,9.923519134521484,0.0021949807514095357,-0.00042567707439687154,0.003474409372239163,178.9614956905396,178.3753727715311,0,1.0699820518493652,2019-08-06 14:48:42:456
-0.17817416787147522,0.262067049741745,9.894782066345215,-0.00020244967322245603,-0.0022903450650493154,-0.0005213078992014032,178.96212486403306,178.3775658219616,0,1.0738017559051514,2019-08-06 14:48:42:460
-0.1135159283876419,0.24530379474163055,9.825334548950195,0.000863074918407669,-0.002023963937460091,0.0008105978362725917,178.96997945420964,178.38126783936428,0,1.0767557621002197,2019-08-06 14:48:42:463
-0.18775317072868347,0.2500932812690735,9.856466293334961,-0.0007352119771648412,-0.006286061978887684,0.002941646856986388,178.96990698949105,178.38470762491215,0,1.080021619796753,2019-08-06 14:48:42:466
-0.12309492379426956,0.2357247918844223,9.748703002929688,0.003260505261766434,-0.002023963937460091,0.0002778355485848519,178.97647619704338,178.38860840293393,0,1.0838565826416016,2019-08-06 14:48:42:470
-0.1470424234867096,0.24769854545593262,9.810966491699219,-0.002599880065345157,-0.0030894884478169893,0.0016097412190402653,178.9802012645955,178.3922713116811,0,1.086322546005249,2019-08-06 14:48:42:473
-0.1733846664428711,0.21177729964256287,9.870835304260254,0.0013958372386046994,-0.00255672619263854,0.0008105978362725917,178.9809966336632,178.39955718685084,0,1.089984655380249,2019-08-06 14:48:42:476
-0.14225292205810547,0.20698779821395874,9.84449291229248,-0.0007352119771648412,-0.0014912016822816417,0.0013433600914510408,178.9851397189163,178.40763380470528,0,1.0938105583190918,2019-08-06 14:48:42:480
-0.14943717420101166,0.216566801071167,9.892387390136719,0.000863074918407669,-0.0012248205546924172,0.0002778355485848519,178.9883323359881,178.4142542594266,0,1.0967857837677002,2019-08-06 14:48:42:483
-0.1207001730799675,0.20219829678535461,9.858860969543457,-0.00020244967322245603,-0.0028231073202277645,0.0016097412190402653,178.99504960294055,178.4225072946986,0,1.1000185012817383,2019-08-06 14:48:42:486
-0.15662142634391785,0.23093529045581818,9.815755844116211,-0.0018007365525403206,-0.004421394085763112,0.002408884601807939,178.997815788891,178.42748907865635,0,1.1038451194763184,2019-08-06 14:48:42:490
-0.16859516501426697,0.23093529045581818,9.8229398727417,-0.0012679742973618717,-0.003888631830584663,0.0008105978362725917,178.99883056151398,178.43221172070037,0,1.106762409210205,2019-08-06 14:48:42:493
-0.1470424234867096,0.29080402851104736,9.832518577575684,-0.0012679742973618717,-0.0030894884478169893,0.0013433600914510408,179.0022906885294,178.429920936967,0,1.1100614070892334,2019-08-06 14:48:42:496
-0.11112117767333984,0.24530379474163055,9.870835304260254,0.0013958372386046994,-0.006019680851298459,0.0016097412190402653,179.01062600715426,178.43255382300993,0,1.1138505935668945,2019-08-06 14:48:42:500
-0.17817416787147522,0.2357247918844223,9.837308883666992,0.0005966937908184444,-0.004954156340941561,0.0013433600914510408,179.01047248662925,178.43635144092298,0,1.1167683601379395,2019-08-06 14:48:42:503
-0.20930591225624084,0.28601452708244324,9.8229398727417,6.393147468507523e-05,0.00010708522141819095,0.0037407904998283874,179.00583022300063,178.43425657829093,0,1.1200096607208252,2019-08-06 14:48:42:506
-0.16141091287136078,0.24769854545593262,9.837308883666992,0.0005966937908184444,-0.00255672619263854,0.0021425034742187147,179.00746082194206,178.436596124888,0,1.1238250732421875,2019-08-06 14:48:42:510
-0.10872642695903778,0.18782979249954224,9.813361167907715,0.00033031263071992917,-0.0017575828098708665,0.0013433600914510408,179.0149050197956,178.44587950485158,0,1.126753330230713,2019-08-06 14:48:42:513
-0.1733846664428711,0.26925128698349,9.882808685302734,-0.0004688308170663259,0.0009062286610771233,0.0037407904998283874,179.01433888802208,178.44583575860423,0,1.1300170421600342,2019-08-06 14:48:42:516
-0.17577941715717316,0.24769854545593262,9.818150520324707,6.393147468507523e-05,-0.0054869185961200105,-0.0013204513144783674,179.01471482783415,178.44800157988453,0,1.1338355541229248,2019-08-06 14:48:42:520
-0.13267391920089722,0.30277779698371887,9.808571815490723,-0.0007352119771648412,0.0006398475334878987,0.00507269613777451,179.01881648638172,178.4438004689508,0,1.1367571353912354,2019-08-06 14:48:42:523
-0.18775317072868347,0.25727754831314087,9.83491325378418,0.0013958372386046994,-0.006019680851298459,-0.00025492675535753324,179.0176661010708,178.4446996649127,0,1.1400096416473389,2019-08-06 14:48:42:526
-0.12309492379426956,0.26446178555488586,9.892387390136719,-0.002333498937755932,-0.0012248205546924172,-0.0007876890592999184,179.02331691125679,178.44567828287194,0,1.1438262462615967,2019-08-06 14:48:42:530
-0.07759468257427216,0.2548827826976776,9.9139404296875,0.00033031263071992917,-0.006019680851298459,0.0002778355485848519,179.03488445130154,178.44725523702434,0,1.1467924118041992,2019-08-06 14:48:42:533
-0.14225292205810547,0.2285405397415161,9.820545196533203,-0.0004688308170663259,-0.003888631830584663,-0.0007876890592999184,179.03829538439672,178.4517327262823,0,1.1500272750854492,2019-08-06 14:48:42:536
-0.09914742410182953,0.24530379474163055,9.73672866821289,-0.0033990234481128304,-0.0028231073202277645,0.0021425034742187147,179.04646776631154,178.45456465666064,0,1.1538536548614502,2019-08-06 14:48:42:540
-0.1997269093990326,0.25248804688453674,9.743913650512695,-0.004730929346133278,-0.0054869185961200105,0.002941646856986388,179.04296856038647,178.45657586551684,0,1.1568248271942139,2019-08-06 14:48:42:543
-0.16380566358566284,0.2429090440273285,9.839703559875488,0.0011294561110154748,-0.004954156340941561,-0.0010540701868891429,179.04392876871532,178.45895741137312,0,1.1600399017333984,2019-08-06 14:48:42:546
-0.15901616215705872,0.2357247918844223,9.825334548950195,-0.0010015931047540657,-0.00042567707439687154,0.003208027984575613,179.04459715980525,178.46250583258526,0,1.1638550758361816,2019-08-06 14:48:42:550
-0.1853584200143814,0.21417205035686493,9.75349235534668,0.0019285994937831485,-0.004421394085763112,0.0021425034742187147,179.04265143308845,178.4677827036742,0,1.1667590141296387,2019-08-06 14:48:42:553
-0.13027916848659515,0.23811954259872437,9.851676940917969,-0.0007352119771648412,-0.0012248205546924172,0.0013433600914510408,179.04686894010754,178.47086918064534,0,1.1700060367584229,2019-08-06 14:48:42:556
-0.15662142634391785,0.19501404464244843,9.806177139282227,-0.0020671176801295454,-0.002023963937460091,1.1454389502251989e-05,179.04806473236738,178.4791092385896,0,1.173823595046997,2019-08-06 14:48:42:560
-0.1662004142999649,0.20698779821395874,9.827729225158691,-0.003132642320523606,-0.006286061978887684,0.0016097412190402653,179.04876152167452,178.48591170615586,0,1.1767566204071045,2019-08-06 14:48:42:563
-0.11112117767333984,0.2931987941265106,9.830123901367188,-0.0007352119771648412,-0.004421394085763112,0.0010769789638618162,179.0556434354045,178.48215960319828,0,1.1800200939178467,2019-08-06 14:48:42:566
-0.0680156797170639,0.21417205035686493,9.832518577575684,0.0019285994937831485,-0.004155012958173888,0.0016097412190402653,179.06749606270282,178.48714590614796,0,1.1838440895080566,2019-08-06 14:48:42:570
-0.15183192491531372,0.17825080454349518,9.837308883666992,-0.001534355424951096,-0.004155012958173888,0.0013433600914510408,179.06914248342514,178.49689301587316,0,1.1867644786834717,2019-08-06 14:48:42:573
-0.09914742410182953,0.276435524225235,9.813361167907715,-0.0020671176801295454,-0.0014912016822816417,-0.0005213078992014032,179.07645434366142,178.4950608973889,0,1.1900112628936768,2019-08-06 14:48:42:576
-0.10872642695903778,0.223751038312912,9.772649765014648,-0.0007352119771648412,-0.0033558695754062136,0.0021425034742187147,179.08289691608175,178.49908555942864,0,1.1938328742980957,2019-08-06 14:48:42:580
-0.13506866991519928,0.22135628759860992,9.83491325378418,-0.0012679742973618717,-0.005753299723709235,0.0013433600914510408,179.08645686863397,178.5035272081036,0,1.1967873573303223,2019-08-06 14:48:42:583
-0.13506866991519928,0.26446178555488586,9.861255645751953,-0.003132642320523606,-0.0014912016822816417,1.1454389502251989e-05,179.08930415451846,178.50330173013245,0,1.2000231742858887,2019-08-06 14:48:42:586
-0.094357930123806,0.21896153688430786,9.760676383972168,0.004326029772123333,-0.005220537468530785,-0.0021195946972460415,179.09757908704842,178.50659029893112,0,1.203906774520874,2019-08-06 14:48:42:590
-0.14225292205810547,0.25967228412628174,9.808571815490723,-0.0020671176801295454,-0.0054869185961200105,0.0005442166761740764,179.09975415582736,178.50640910987806,0,1.2063236236572266,2019-08-06 14:48:42:593
-0.15422667562961578,0.25727754831314087,9.868440628051758,-0.002333498937755932,-0.007617968136982457,0.003474409372239163,179.1014221846937,178.50689384349866,0,1.2099947929382324,2019-08-06 14:48:42:596
-0.07759468257427216,0.23093529045581818,9.79420280456543,-0.00020244967322245603,-0.004687775213352337,-0.0026523570824616527,179.11132043979836,178.50978509220704,0,1.213813066482544,2019-08-06 14:48:42:600
-0.17577941715717316,0.223751038312912,9.878019332885742,6.393147468507523e-05,-0.004421394085763112,0.002408884601807939,179.10943832647098,178.51362661840122,0,1.216768503189087,2019-08-06 14:48:42:603
-0.14225292205810547,0.26925128698349,9.784624099731445,-0.0010015931047540657,-0.0017575828098708665,-0.0005213078992014032,179.11091392101466,178.51201302902004,0,1.220041275024414,2019-08-06 14:48:42:606
-0.1278844177722931,0.2500932812690735,9.818150520324707,-0.0004688308170663259,-0.005753299723709235,0.0005442166761740764,179.11500583833023,178.51269035228077,0,1.223865032196045,2019-08-06 14:48:42:610
-0.11591067165136337,0.223751038312912,9.870835304260254,0.0011294561110154748,-0.004421394085763112,1.1454389502251989e-05,179.11985980552225,178.51630976263831,0,1.226320743560791,2019-08-06 14:48:42:613
-0.15422667562961578,0.19261929392814636,9.796597480773926,-0.0004688308170663259,-0.003622250702995438,0.0002778355485848519,179.12017090639853,178.5235523037708,0,1.2299926280975342,2019-08-06 14:48:42:616
-0.09914742410182953,0.28361979126930237,9.763071060180664,0.0013958372386046994,-0.0012248205546924172,-0.0023859759548724283,179.12639316050465,178.5195023739283,0,1.2338087558746338,2019-08-06 14:48:42:620
-0.07759468257427216,0.21177729964256287,9.789413452148438,-0.001534355424951096,-0.004954156340941561,-0.00025492675535753324,179.1356097527276,178.52458246288245,0,1.2367825508117676,2019-08-06 14:48:42:623
-0.15183192491531372,0.26925128698349,9.887598037719727,0.0013958372386046994,-0.00042567707439687154,-0.0005213078992014032,179.13537983194487,178.52264026004678,0,1.2400181293487549,2019-08-06 14:48:42:626
-0.14225292205810547,0.16867180168628693,9.810966491699219,-0.004730929346133278,-0.0054869185961200105,0.0016097412190402653,179.13723830512686,178.53350601361035,0,1.2438480854034424,2019-08-06 14:48:42:630
-0.14943717420101166,0.30996203422546387,9.775045394897461,6.393147468507523e-05,-0.0017575828098708665,0.004806315010185286,179.13726478957005,178.52650114359764,0,1.2467684745788574,2019-08-06 14:48:42:633
-0.1925426721572876,0.25967228412628174,9.813361167907715,0.0016622183661939237,-0.0054869185961200105,0.0016097412190402653,179.13305177392144,178.52534919721023,0,1.2500557899475098,2019-08-06 14:48:42:636
-0.11112117767333984,0.2500932812690735,9.875624656677246,0.0016622183661939237,-0.0033558695754062136,0.0005442166761740764,179.13821136757767,178.52547524691144,0,1.253844976425171,2019-08-06 14:48:42:640
-0.13746342062950134,0.23093529045581818,9.92591381072998,6.393147468507523e-05,-0.006552443626625559,0.0002778355485848519,179.1406514092038,178.52829932768236,0,1.2567613124847412,2019-08-06 14:48:42:643
-0.15662142634391785,0.23333004117012024,9.827729225158691,0.0005966937908184444,-0.00042567707439687154,0.0021425034742187147,179.13965548585827,178.53042325938014,0,1.2600102424621582,2019-08-06 14:48:42:646
-0.16859516501426697,0.25248804688453674,9.770255088806152,0.0013958372386046994,-0.0030894884478169893,0.0021425034742187147,179.13775341246728,178.5299085103648,0,1.2638318538665771,2019-08-06 14:48:42:650
-0.07280518114566803,0.25248804688453674,9.889992713928223,6.393147468507523e-05,-0.004155012958173888,0.0008105978362725917,179.14724506574277,178.53005137296867,0,1.2667560577392578,2019-08-06 14:48:42:653
-0.12309492379426956,0.223751038312912,9.810966491699219,-0.0004688308170663259,-0.004687775213352337,-0.0018532135696568165,179.15078187534522,178.5334067220523,0,1.270017147064209,2019-08-06 14:48:42:656
-0.09675268083810806,0.26925128698349,9.839703559875488,0.0011294561110154748,-0.0028231073202277645,0.006138220648131409,179.15710583062383,178.5311470506873,0,1.2738456726074219,2019-08-06 14:48:42:660
-0.1925426721572876,0.1974087953567505,9.83491325378418,-0.00020244967322245603,-0.00042567707439687154,-0.0015868324420675922,179.15160207684139,178.53755920950692,0,1.2767584323883057,2019-08-06 14:48:42:663
-0.24043765664100647,0.28361979126930237,9.784624099731445,0.0005966937908184444,-0.005753299723709235,0.0021425034742187147,179.14146820424523,178.5334924876882,0,1.2800121307373047,2019-08-06 14:48:42:666
-0.10872642695903778,0.20219829678535461,9.83491325378418,-0.0012679742973618717,-0.0012248205546924172,-0.00025492675535753324,179.14623379998275,178.53953877491705,0,1.28383207321167,2019-08-06 14:48:42:670
-0.10154217481613159,0.19261929392814636,9.787018775939941,6.393147468507523e-05,-0.0022903450650493154,-0.0005213078992014032,179.1518012410562,178.54618740254656,0,1.2867929935455322,2019-08-06 14:48:42:673
-0.08477892726659775,0.21896153688430786,9.957045555114746,0.0013958372386046994,-0.005220537468530785,0.0008105978362725917,179.1599534114423,178.549815708661,0,1.2900161743164062,2019-08-06 14:48:42:676
-0.10393692553043365,0.21417205035686493,9.75349235534668,0.0013958372386046994,-0.0054869185961200105,0.0018761223466294901,179.1657224346648,178.55336093614673,0,1.2938427925109863,2019-08-06 14:48:42:680
-0.1135159283876419,0.1974087953567505,9.808571815490723,0.0013958372386046994,-0.0012248205546924172,0.0018761223466294901,179.16935883554765,178.55899225323384,0,1.296926736831665,2019-08-06 14:48:42:683
-0.15662142634391785,0.21417205035686493,9.787018775939941,-0.0010015931047540657,-0.007351587009393233,1.1454389502251989e-05,179.16892206441312,178.56291535022493,0,1.300044298171997,2019-08-06 14:48:42:686
-0.1733846664428711,0.24530379474163055,9.88520336151123,0.0035268863893556587,-0.00255672619263854,-0.0015868324420675922,179.16599396506592,178.56247153875117,0,1.3038575649261475,2019-08-06 14:48:42:690
-0.16859516501426697,0.314751535654068,9.856466293334961,6.393147468507523e-05,-0.004954156340941561,1.1454389502251989e-05,179.16388546514347,178.554630977635,0,1.3067708015441895,2019-08-06 14:48:42:693
-0.13267391920089722,0.23093529045581818,9.813361167907715,-0.0018007365525403206,-0.0006920582344953867,0.0016097412190402653,179.16524228520274,178.55690477170427,0,1.3100144863128662,2019-08-06 14:48:42:696
-0.13267391920089722,0.22614578902721405,9.815755844116211,-0.0010015931047540657,-0.005220537468530785,-0.0010540701868891429,179.16757028930758,178.55958551963093,0,1.3138372898101807,2019-08-06 14:48:42:700
-0.11112117767333984,0.19501404464244843,9.731939315795898,-0.002333498937755932,-0.006552443626625559,0.003474409372239163,179.17220857831757,178.56581665530578,0,1.3167548179626465,2019-08-06 14:48:42:703
-0.1733846664428711,0.2093825489282608,9.930704116821289,0.000863074918407669,-0.003622250702995438,0.0002778355485848519,179.16942240624613,178.57018502406234,0,1.3200147151947021,2019-08-06 14:48:42:706
-0.12309492379426956,0.24769854545593262,9.84449291229248,0.00033031263071992917,-0.0022903450650493154,0.0026752657293971638,179.1721981461908,178.56988393560658,0,1.3238396644592285,2019-08-06 14:48:42:710
-0.11830542236566544,0.2548827826976776,9.818150520324707,0.0011294561110154748,-0.0033558695754062136,0.003474409372239163,179.17549562911748,178.56855988547426,0,1.326751470565796,2019-08-06 14:48:42:713
-0.16380566358566284,0.23093529045581818,9.784624099731445,-0.0012679742973618717,-0.0022903450650493154,0.0005442166761740764,179.17322220453661,178.5703797271457,0,1.3300065994262695,2019-08-06 14:48:42:716
-0.16141091287136078,0.2812250256538391,9.78222942352295,-0.002333498937755932,-0.0030894884478169893,0.0018761223466294901,179.17151446108653,178.56653860163146,0,1.3338289260864258,2019-08-06 14:48:42:720
-0.11112117767333984,0.2740407884120941,9.875624656677246,0.000863074918407669,-0.006818824754214785,0.0013433600914510408,179.1763219993409,178.5632745557396,0,1.3367834091186523,2019-08-06 14:48:42:723
-0.15662142634391785,0.25248804688453674,9.827729225158691,-0.0010015931047540657,-0.0017575828098708665,0.003208027984575613,179.1748543926882,178.56275737935064,0,1.340019702911377,2019-08-06 14:48:42:726
-0.12548966705799103,0.223751038312912,9.79420280456543,-0.00393178570329128,-0.0054869185961200105,0.0021425034742187147,179.17790816539147,178.566211066276,0,1.3440194129943848,2019-08-06 14:48:42:730
-0.10393692553043365,0.25248804688453674,9.801386833190918,0.0011294561110154748,-0.004155012958173888,-0.00025492675535753324,179.18273714339148,178.5652277476022,0,1.3463268280029297,2019-08-06 14:48:42:733
-0.16141091287136078,0.25727754831314087,9.784624099731445,-0.0007352119771648412,-0.0017575828098708665,1.1454389502251989e-05,179.18054219934587,178.5639505923902,0,1.3499903678894043,2019-08-06 14:48:42:736
-0.16380566358566284,0.2285405397415161,9.813361167907715,-0.00020244967322245603,-0.0033558695754062136,0.0026752657293971638,179.17852549963388,178.56603294799973,0,1.3538119792938232,2019-08-06 14:48:42:740
-0.1207001730799675,0.1974087953567505,9.854071617126465,-0.001534355424951096,-0.0030894884478169893,0.0018761223466294901,179.18142931799713,178.5720121017325,0,1.3567500114440918,2019-08-06 14:48:42:743
-0.15422667562961578,0.24051429331302643,9.899572372436523,-0.003132642320523606,-0.0014912016822816417,0.0018761223466294901,179.1802231864277,178.57331112039043,0,1.3600149154663086,2019-08-06 14:48:42:746
-0.15183192491531372,0.20459304749965668,9.770255088806152,-0.0018007365525403206,-0.00255672619263854,0.0005442166761740764,179.17936117531193,178.57823900180935,0,1.363837718963623,2019-08-06 14:48:42:750
-0.08956842869520187,0.24051429331302643,9.839703559875488,0.0016622183661939237,-0.004155012958173888,0.002408884601807939,179.1860245857001,178.57839733198293,0,1.366758108139038,2019-08-06 14:48:42:753
-0.12548966705799103,0.23333004117012024,9.86365032196045,0.002994124134177209,-0.00255672619263854,0.003208027984575613,179.18819396373465,178.57917920745996,0,1.3700175285339355,2019-08-06 14:48:42:756
-0.1398581713438034,0.18064555525779724,9.830123901367188,-0.0012679742973618717,-0.0014912016822816417,-0.0005213078992014032,179.1884482060264,178.5868123702543,0,1.3738458156585693,2019-08-06 14:48:42:760
-0.13746342062950134,0.19501404464244843,9.801386833190918,0.0016622183661939237,-0.0030894884478169893,0.0010769789638618162,179.18912015328374,178.5920042936666,0,1.3767926692962646,2019-08-06 14:48:42:763
-0.094357930123806,0.223751038312912,9.830123901367188,-0.00020244967322245603,-0.0030894884478169893,0.002941646856986388,179.1948987427134,178.59412234622735,0,1.380021572113037,2019-08-06 14:48:42:766
-0.13027916848659515,0.24769854545593262,9.878019332885742,-0.0004688308170663259,-0.005753299723709235,-0.0010540701868891429,179.1971237289446,178.59361191569903,0,1.383845567703247,2019-08-06 14:48:42:770
-0.14943717420101166,0.2285405397415161,9.827729225158691,-0.003132642320523606,-0.004421394085763112,-0.0018532135696568165,179.19648202064772,178.59560944772875,0,1.38676118850708,2019-08-06 14:48:42:773
-0.12309492379426956,0.17825080454349518,9.8229398727417,6.393147468507523e-05,-0.003622250702995438,0.002408884601807939,179.1988548567132,178.60289364307886,0,1.3900141716003418,2019-08-06 14:48:42:776
-0.15183192491531372,0.25727754831314087,9.78222942352295,-0.0012679742973618717,-0.0028231073202277645,0.0016097412190402653,179.19770727174594,178.60098036374887,0,1.393887996673584,2019-08-06 14:48:42:780
-0.14225292205810547,0.25248804688453674,9.866044998168945,0.0021949807514095357,-0.0009584393620846114,0.0010769789638618162,179.19736291346928,178.5993414239138,0,1.3963212966918945,2019-08-06 14:48:42:783
-0.1662004142999649,0.2285405397415161,9.79420280456543,-0.00020244967322245603,-0.006286061978887684,1.1454389502251989e-05,179.19526964158558,178.60066213326405,0,1.3999972343444824,2019-08-06 14:48:42:786
-0.18296366930007935,0.276435524225235,9.870835304260254,6.393147468507523e-05,0.00010708522141819095,-0.0007876890592999184,179.19010331870794,178.59655190477048,0,1.403808832168579,2019-08-06 14:48:42:790
-0.1135159283876419,0.2740407884120941,9.878019332885742,0.0005966937908184444,-0.004954156340941561,0.0005442166761740764,179.1939513832016,178.59273993388226,0,1.406749963760376,2019-08-06 14:48:42:793
-0.07998942583799362,0.17585605382919312,9.796597480773926,-0.0007352119771648412,-0.002023963937460091,0.005605458392952959,179.20108734196444,178.60045216645182,0,1.4100162982940674,2019-08-06 14:48:42:796
-0.15901616215705872,0.26446178555488586,9.717571258544922,0.0011294561110154748,-0.00894987325477993,0.002941646856986388,179.20023828933353,178.59702233302608,0,1.413841962814331,2019-08-06 14:48:42:800
-0.12548966705799103,0.2500932812690735,9.789413452148438,0.00033031263071992917,-0.004687775213352337,-0.00025492675535753324,179.2023125645495,178.59575909085342,0,1.4167582988739014,2019-08-06 14:48:42:803
-0.17577941715717316,0.27883028984069824,9.729544639587402,0.000863074918407669,-0.003888631830584663,0.004806315010185286,179.19827561853887,178.59085558760702,0,1.4200091361999512,2019-08-06 14:48:42:806
-0.1853584200143814,0.23333004117012024,9.868440628051758,6.393147468507523e-05,-0.003622250702995438,0.003474409372239163,179.19356647811085,178.59193569870624,0,1.4238319396972656,2019-08-06 14:48:42:810
-0.1278844177722931,0.22135628759860992,9.861255645751953,0.0013958372386046994,-0.004687775213352337,0.0016097412190402653,179.19561337297296,178.59414718428152,0,1.4267878532409668,2019-08-06 14:48:42:813
-0.1207001730799675,0.24530379474163055,9.842098236083984,-0.002333498937755932,-0.003622250702995438,0.0042735527550068365,179.19830599252091,178.59413287320956,0,1.4300196170806885,2019-08-06 14:48:42:816
-0.13267391920089722,0.262067049741745,9.76546573638916,0.000863074918407669,-0.0028231073202277645,0.003474409372239163,179.19937919697594,178.59132017224874,0,1.4338476657867432,2019-08-06 14:48:42:820
-0.16859516501426697,0.2357247918844223,9.796597480773926,0.0005966937908184444,-0.006019680851298459,0.0013433600914510408,179.19666116540915,178.5918282115906,0,1.4367716312408447,2019-08-06 14:48:42:823
-0.13027916848659515,0.22135628759860992,9.789413452148438,-0.0007352119771648412,-0.004954156340941561,0.0005442166761740764,179.1983878151948,178.59421974465263,0,1.4400393962860107,2019-08-06 14:48:42:826
-0.11112117767333984,0.27164602279663086,9.86365032196045,0.0016622183661939237,-0.004954156340941561,1.1454389502251989e-05,179.2025722549397,178.59042862176437,0,1.4438543319702148,2019-08-06 14:48:42:830
-0.11112117767333984,0.223751038312912,9.79420280456543,-0.0020671176801295454,-0.003888631830584663,0.0026752657293971638,179.20615619731512,178.59278392254325,0,1.4467668533325195,2019-08-06 14:48:42:833
-0.10393692553043365,0.21896153688430786,9.832518577575684,0.0013958372386046994,-0.002023963937460091,0.0005442166761740764,179.21028917632157,178.59515957121556,0,1.45001220703125,2019-08-06 14:48:42:836
-0.10633167624473572,0.21417205035686493,9.808571815490723,0.0005966937908184444,-0.004421394085763112,0.00507269613777451,179.21460911450234,178.59811116353725,0,1.4538297653198242,2019-08-06 14:48:42:840
-0.14464767277240753,0.20459304749965668,9.875624656677246,-0.004464548218544054,-0.005220537468530785,0.0069373640308990825,179.21439213399617,178.6031463208114,0,1.4567573070526123,2019-08-06 14:48:42:843
-0.18775317072868347,0.21896153688430786,9.815755844116211,0.0013958372386046994,-0.0030894884478169893,-0.0018532135696568165,179.20875399290435,178.60526989353522,0,1.4600188732147217,2019-08-06 14:48:42:846
-0.23325340449810028,0.24530379474163055,9.894782066345215,-0.002333498937755932,-0.0009584393620846114,0.004007171627417612,179.19777675184315,178.60526304441606,0,1.4638454914093018,2019-08-06 14:48:42:850
-0.10154217481613159,0.25727754831314087,9.84449291229248,0.000863074918407669,-0.0028231073202277645,0.0037407904998283874,179.20246405556526,178.60307578552147,0,1.4667606353759766,2019-08-06 14:48:42:853
-0.13746342062950134,0.25967228412628174,9.842098236083984,-0.0012679742973618717,-0.0014912016822816417,0.0026752657293971638,179.202683082913,178.60101903326856,0,1.470010757446289,2019-08-06 14:48:42:856
-0.13746342062950134,0.23811954259872437,9.83491325378418,0.0013958372386046994,-0.003622250702995438,0.0008105978362725917,179.20339132302485,178.60095997828142,0,1.4738330841064453,2019-08-06 14:48:42:860
-0.056041933596134186,0.2931987941265106,9.892387390136719,-0.0012679742973618717,-0.003622250702995438,0.0016097412190402653,179.21343408886406,178.59519796199794,0,1.4767944812774658,2019-08-06 14:48:42:863
-0.18775317072868347,0.23093529045581818,9.779834747314453,0.002727743006587985,-0.0030894884478169893,0.0018761223466294901,179.20772776543964,178.59574656318676,0,1.4800164699554443,2019-08-06 14:48:42:866
-0.10633167624473572,0.1638823002576828,9.813361167907715,0.000863074918407669,-0.00042567707439687154,0.006670982903309857,179.21124890642673,178.60451086912389,0,1.483851432800293,2019-08-06 14:48:42:870
-0.19493740797042847,0.25967228412628174,9.849282264709473,0.0019285994937831485,-0.0030894884478169893,0.0021425034742187147,179.20478152667084,178.60194472806617,0,1.4863569736480713,2019-08-06 14:48:42:873
-0.1470424234867096,0.23333004117012024,9.818150520324707,0.0016622183661939237,-0.004155012958173888,0.0018761223466294901,179.20437931899144,178.6023364135722,0,1.4900176525115967,2019-08-06 14:48:42:876
-0.13506866991519928,0.2931987941265106,9.787018775939941,-0.0020671176801295454,-0.002023963937460091,0.002941646856986388,179.20491233244707,178.59641409626667,0,1.493837833404541,2019-08-06 14:48:42:880
-0.17577941715717316,0.3075672686100006,9.698412895202637,-0.0012679742973618717,-0.004421394085763112,0.005605458392952959,179.20077198974718,178.58836526227685,0,1.4967575073242188,2019-08-06 14:48:42:883
-0.14943717420101166,0.25248804688453674,9.875624656677246,-0.001534355424951096,-0.003888631830584663,0.0005442166761740764,179.20013069185805,178.58758817429685,0,1.5000216960906982,2019-08-06 14:48:42:886
-0.14464767277240753,0.22614578902721405,9.854071617126465,6.393147468507523e-05,-0.0014912016822816417,0.002941646856986388,179.1996288052218,178.58952912714523,0,1.5038480758666992,2019-08-06 14:48:42:890
-0.1278844177722931,0.25727754831314087,9.86365032196045,-0.0033990234481128304,-0.003622250702995438,0.0018761223466294901,179.20137262822774,178.58841204006302,0,1.5067617893218994,2019-08-06 14:48:42:893
-0.18296366930007935,0.18543504178524017,9.887598037719727,0.0013958372386046994,-0.004421394085763112,0.0010769789638618162,179.19695027553126,178.5949006598739,0,1.5100128650665283,2019-08-06 14:48:42:896
-0.17817416787147522,0.2429090440273285,9.717571258544922,0.00033031263071992917,-0.0030894884478169893,-0.0005213078992014032,179.19266567041524,178.59429343349527,0,1.5138330459594727,2019-08-06 14:48:42:900
-0.1135159283876419,0.21896153688430786,9.760676383972168,-0.0018007365525403206,-0.003622250702995438,0.004007171627417612,179.19608792496575,178.59700473116075,0,1.5167922973632812,2019-08-06 14:48:42:903
-0.20451641082763672,0.2500932812690735,9.827729225158691,-0.0007352119771648412,-0.004421394085763112,0.003208027984575613,179.18912550189995,178.59604344532943,0,1.5200250148773193,2019-08-06 14:48:42:906
-0.19014792144298553,0.24769854545593262,9.892387390136719,6.393147468507523e-05,-0.0014912016822816417,0.004007171627417612,179.18363977121686,178.59542189773535,0,1.5238521099090576,2019-08-06 14:48:42:910
-0.10154217481613159,0.26925128698349,9.707991600036621,-0.0010015931047540657,-0.003888631830584663,-0.00025492675535753324,179.18861867431616,178.5919037264414,0,1.5267701148986816,2019-08-06 14:48:42:913
-0.10154217481613159,0.20459304749965668,9.772649765014648,-0.0004688308170663259,-0.004687775213352337,0.005871839520542184,179.19379495708532,178.59616459490772,0,1.530017614364624,2019-08-06 14:48:42:916
-0.1470424234867096,0.18064555525779724,9.796597480773926,0.00033031263071992917,-0.004954156340941561,0.0016097412190402653,179.19378840337694,178.60304225799757,0,1.53385591506958,2019-08-06 14:48:42:920
-0.14943717420101166,0.2429090440273285,9.842098236083984,-0.0010015931047540657,-0.0022903450650493154,0.0042735527550068365,179.19288925166694,178.60286891506124,0,1.5367660522460938,2019-08-06 14:48:42:923
-0.08956842869520187,0.23811954259872437,9.803781509399414,-0.0007352119771648412,-0.003622250702995438,0.0069373640308990825,179.19922256711268,178.60311835593973,0,1.5400111675262451,2019-08-06 14:48:42:926
-0.11830542236566544,0.25248804688453674,9.870835304260254,-0.0007352119771648412,-0.0017575828098708665,0.002941646856986388,179.20188108521577,178.60190827601002,0,1.5438263416290283,2019-08-06 14:48:42:930
-0.16859516501426697,0.25967228412628174,9.878019332885742,-0.0007352119771648412,-0.004687775213352337,0.0018761223466294901,179.19905778934896,178.5998741987617,0,1.5467538833618164,2019-08-06 14:48:42:933
-0.16380566358566284,0.27883028984069824,9.75349235534668,0.000863074918407669,-0.006286061978887684,0.004806315010185286,179.19698676802489,178.59496812681942,0,1.5500218868255615,2019-08-06 14:48:42:936
-0.18056891858577728,0.2500932812690735,9.810966491699219,-0.0033990234481128304,-0.00255672619263854,0.0002778355485848519,179.1925082046057,178.59459438369075,0,1.553847074508667,2019-08-06 14:48:42:940
-0.13506866991519928,0.22614578902721405,9.777440071105957,0.0005966937908184444,-0.0054869185961200105,0.0005442166761740764,179.1937253676164,178.59610546518476,0,1.5567564964294434,2019-08-06 14:48:42:943
-0.17577941715717316,0.2548827826976776,9.846887588500977,0.0013958372386046994,-0.004687775213352337,0.0042735527550068365,179.1902529175789,178.59427354425677,0,1.5600082874298096,2019-08-06 14:48:42:946
-0.10393692553043365,0.26925128698349,9.911545753479004,0.0005966937908184444,-0.003888631830584663,1.1454389502251989e-05,179.1952680737921,178.59113811507757,0,1.5638387203216553,2019-08-06 14:48:42:950
-0.14225292205810547,0.30996203422546387,9.918729782104492,-0.0018007365525403206,-0.004687775213352337,0.0008105978362725917,179.19570671284663,178.5838155757463,0,1.5667922496795654,2019-08-06 14:48:42:953
-0.15662142634391785,0.21417205035686493,9.83491325378418,-0.0004688308170663259,-0.0014912016822816417,0.005339077265363735,179.19381594294268,178.58727400588143,0,1.570023775100708,2019-08-06 14:48:42:956
-0.18056891858577728,0.19261929392814636,9.803781509399414,-0.001534355424951096,-0.004155012958173888,0.0021425034742187147,179.18972746254622,178.5933462276533,0,1.5738439559936523,2019-08-06 14:48:42:960
-0.1278844177722931,0.21896153688430786,9.78222942352295,-0.0012679742973618717,-0.0054869185961200105,0.003474409372239163,179.191851843051,178.59604156730583,0,1.576761245727539,2019-08-06 14:48:42:963
-0.11112117767333984,0.223751038312912,9.842098236083984,-0.001534355424951096,-0.0012248205546924172,0.0018761223466294901,179.19530226818804,178.59835543825616,0,1.5800292491912842,2019-08-06 14:48:42:966
-0.10154217481613159,0.21417205035686493,9.870835304260254,6.393147468507523e-05,-0.0006920582344953867,0.0016097412190402653,179.19975694043814,178.6015150602735,0,1.5838491916656494,2019-08-06 14:48:42:970
-0.16859516501426697,0.2931987941265106,9.76546573638916,6.393147468507523e-05,-0.004954156340941561,-0.0007876890592999184,179.19679230597927,178.59507958892755,0,1.586768627166748,2019-08-06 14:48:42:973
-0.13746342062950134,0.25967228412628174,9.832518577575684,-0.002599880065345157,-0.00255672619263854,0.003474409372239163,179.1973018500032,178.59339457981238,0,1.5900063514709473,2019-08-06 14:48:42:976
-0.12309492379426956,0.2429090440273285,9.772649765014648,-0.00020244967322245603,0.00010708522141819095,-0.0026523570824616527,179.19889983445032,178.5930930547445,0,1.5938231945037842,2019-08-06 14:48:42:980
-0.1135159283876419,0.223751038312912,9.892387390136719,-0.0010015931047540657,-0.0012248205546924172,0.0042735527550068365,179.20197450963883,178.59548154260273,0,1.5967540740966797,2019-08-06 14:48:42:983
-0.1398581713438034,0.2740407884120941,9.861255645751953,-0.002333498937755932,-0.005220537468530785,0.0018761223466294901,179.2026425720507,178.5921639607718,0,1.6000239849090576,2019-08-06 14:48:42:986
-0.1997269093990326,0.24051429331302643,9.827729225158691,-0.0010015931047540657,-0.003622250702995438,0.003474409372239163,179.19608398173608,178.59249772848082,0,1.6038553714752197,2019-08-06 14:48:42:990
-0.16859516501426697,0.22135628759860992,9.84449291229248,-0.00020244967322245603,-0.003888631830584663,0.003208027984575613,179.19307669488856,178.59491383904614,0,1.6063158512115479,2019-08-06 14:48:42:993
-0.17577941715717316,0.2429090440273285,9.854071617126465,0.0024613618789987605,-0.00255672619263854,-0.0013204513144783674,179.18930298997591,178.5942666001533,0,1.6099853515625,2019-08-06 14:48:42:996
-0.12548966705799103,0.15430329740047455,9.784624099731445,-0.002333498937755932,-0.004687775213352337,0.004539933882596061,179.1918263766289,178.6048120889037,0,1.6138043403625488,2019-08-06 14:48:43:000
-0.17577941715717316,0.22614578902721405,9.796597480773926,-0.0007352119771648412,-0.003622250702995438,0.002408884601807939,179.18803719531545,178.6063911362105,0,1.6167848110198975,2019-08-06 14:48:43:003
-0.17577941715717316,0.25727754831314087,9.815755844116211,-0.0012679742973618717,-0.004155012958173888,0.0005442166761740764,179.18451170267332,178.60446506257847,0,1.6200165748596191,2019-08-06 14:48:43:006
-0.1278844177722931,0.27164602279663086,9.8229398727417,-0.001534355424951096,-0.003622250702995438,0.0018761223466294901,179.18668357907586,178.6010247568009,0,1.6238510608673096,2019-08-06 14:48:43:010
-0.18775317072868347,0.2285405397415161,9.851676940917969,-0.002599880065345157,-0.0054869185961200105,0.003208027984575613,179.18188416421393,178.60279099326846,0,1.6263518333435059,2019-08-06 14:48:43:013
-0.15662142634391785,0.23811954259872437,9.846887588500977,0.0024613618789987605,-0.0033558695754062136,-0.0005213078992014032,179.18071101601691,178.60252403721668,0,1.6300113201141357,2019-08-06 14:48:43:016
-0.16141091287136078,0.2548827826976776,9.825334548950195,-0.00020244967322245603,-0.0009584393620846114,0.004007171627417612,179.1784786818118,178.6007969567137,0,1.633826732635498,2019-08-06 14:48:43:020
-0.13746342062950134,0.26446178555488586,9.832518577575684,0.0005966937908184444,-0.0030894884478169893,0.0018761223466294901,179.17939874401785,178.59786884226372,0,1.63676118850708,2019-08-06 14:48:43:023
-0.13267391920089722,0.28361979126930237,9.88520336151123,-0.0004688308170663259,-0.005220537468530785,0.0018761223466294901,179.18138845562567,178.59312853197812,0,1.6400246620178223,2019-08-06 14:48:43:026
-0.14943717420101166,0.17585605382919312,9.810966491699219,0.000863074918407669,-0.005220537468530785,-0.0007876890592999184,179.18142935122532,178.60054285933217,0,1.643850564956665,2019-08-06 14:48:43:030
-0.18775317072868347,0.24769854545593262,9.892387390136719,-0.0010015931047540657,-0.006019680851298459,0.003474409372239163,179.1770406177267,178.6000091549457,0,1.64676833152771,2019-08-06 14:48:43:033
-0.11830542236566544,0.1902245432138443,9.825334548950195,0.0021949807514095357,-0.0033558695754062136,0.002408884601807939,179.1803140618702,178.6054262150805,0,1.6500129699707031,2019-08-06 14:48:43:036
-0.20212166011333466,0.23093529045581818,9.878019332885742,-0.0020671176801295454,-0.0017575828098708665,-0.00025492675535753324,179.1736405144961,178.606975840064,0,1.653832197189331,2019-08-06 14:48:43:040
-0.094357930123806,0.21177729964256287,9.904361724853516,0.0019285994937831485,-0.0012248205546924172,0.0002778355485848519,179.1794543904753,178.6100175778194,0,1.6567895412445068,2019-08-06 14:48:43:043
-0.1470424234867096,0.17585605382919312,9.779834747314453,0.00033031263071992917,-0.004954156340941561,0.003208027984575613,179.1795362518699,178.61715424438978,0,1.6600205898284912,2019-08-06 14:48:43:046
-0.094357930123806,0.18543504178524017,9.86365032196045,-0.0007352119771648412,-0.003622250702995438,0.0037407904998283874,179.18576259615287,178.62342874685254,0,1.6638498306274414,2019-08-06 14:48:43:050
-0.09196317940950394,0.24530379474163055,9.796597480773926,-0.003132642320523606,-0.004954156340941561,0.0018761223466294901,179.19210131138604,178.62278539031104,0,1.6667640209197998,2019-08-06 14:48:43:053
-0.1470424234867096,0.2429090440273285,9.870835304260254,-0.0004688308170663259,-0.00255672619263854,0.0008105978362725917,179.19165672329262,178.62222134796932,0,1.670013427734375,2019-08-06 14:48:43:056
-0.13267391920089722,0.25967228412628174,9.861255645751953,0.000863074918407669,-0.0033558695754062136,0.004007171627417612,179.19313451321366,178.61942195412254,0,1.673872709274292,2019-08-06 14:48:43:060
-0.14943717420101166,0.21896153688430786,9.887598037719727,-0.0004688308170663259,-0.0022903450650493154,0.0010769789638618162,179.19226863511756,178.62172564005147,0,1.6763174533843994,2019-08-06 14:48:43:063
-0.1207001730799675,0.25248804688453674,9.878019332885742,-0.0049973104737225035,-0.00042567707439687154,0.003208027984575613,179.19450972776121,178.62103781203422,0,1.679990291595459,2019-08-06 14:48:43:066
-0.09914742410182953,0.17346130311489105,9.770255088806152,6.393147468507523e-05,-0.006818824754214785,0.003208027984575613,179.2004557944228,178.6282608542033,0,1.6838152408599854,2019-08-06 14:48:43:070
-0.1278844177722931,0.24530379474163055,9.909151077270508,0.0016622183661939237,-0.006286061978887684,1.1454389502251989e-05,179.2026964394604,178.6270595535414,0,1.6867554187774658,2019-08-06 14:48:43:073
-0.1662004142999649,0.20698779821395874,9.839703559875488,-0.002599880065345157,-0.003888631830584663,0.0008105978362725917,179.20000128452938,178.63089273294594,0,1.6900179386138916,2019-08-06 14:48:43:076
-0.16380566358566284,0.1638823002576828,9.88520336151123,0.0011294561110154748,-0.0054869185961200105,0.005339077265363735,179.198191885585,178.63903659657834,0,1.6938402652740479,2019-08-06 14:48:43:080
-0.14464767277240753,0.23811954259872437,9.78222942352295,0.0005966937908184444,-0.002023963937460091,-0.0007876890592999184,179.1976167967258,178.63826958105523,0,1.696760892868042,2019-08-06 14:48:43:083
-0.12309492379426956,0.1830402910709381,9.86365032196045,0.0019285994937831485,-0.0022903450650493154,0.0042735527550068365,179.19978349982674,178.64388905441876,0,1.7000184059143066,2019-08-06 14:48:43:086
-0.11112117767333984,0.20219829678535461,9.858860969543457,-0.0004688308170663259,-0.0017575828098708665,0.0042735527550068365,179.20325067034275,178.6476135125147,0,1.7038500308990479,2019-08-06 14:48:43:090
-0.1853584200143814,0.25727754831314087,9.846887588500977,-0.0012679742973618717,0.0009062286610771233,0.0026752657293971638,179.19746809973793,178.6449367178647,0,1.7067844867706299,2019-08-06 14:48:43:093
-0.1278844177722931,0.27883028984069824,9.827729225158691,0.0016622183661939237,-0.004687775213352337,0.004539933882596061,179.199460138781,178.6392329476427,0,1.7100210189819336,2019-08-06 14:48:43:096
-0.1853584200143814,0.25248804688453674,9.830123901367188,-0.0018007365525403206,-0.0017575828098708665,0.0018761223466294901,179.19424366058087,178.63740877358305,0,1.71384859085083,2019-08-06 14:48:43:100
-0.10393692553043365,0.276435524225235,9.801386833190918,6.393147468507523e-05,-0.003622250702995438,0.0021425034742187147,179.1988018665278,178.6323395977222,0,1.7167704105377197,2019-08-06 14:48:43:103
-0.09914742410182953,0.23333004117012024,9.88520336151123,-0.003132642320523606,-0.004954156340941561,1.1454389502251989e-05,179.20424149592932,178.63322425224447,0,1.7200369834899902,2019-08-06 14:48:43:106
-0.1398581713438034,0.22135628759860992,9.770255088806152,0.0011294561110154748,-0.005753299723709235,0.0008105978362725917,179.20498460695924,178.6343606661959,0,1.7238452434539795,2019-08-06 14:48:43:110
-0.14464767277240753,0.27164602279663086,9.770255088806152,0.00033031263071992917,-0.004155012958173888,0.0018761223466294901,179.20460126562315,178.62976726243292,0,1.7267611026763916,2019-08-06 14:48:43:113
-0.08477892726659775,0.25248804688453674,9.806177139282227,-0.001534355424951096,-0.004687775213352337,0.0018761223466294901,179.21145738084678,178.62795336904097,0,1.730008840560913,2019-08-06 14:48:43:116
-0.07519993185997009,0.24051429331302643,9.985782623291016,0.003260505261766434,-0.004421394085763112,0.002941646856986388,179.2195451790174,178.62710162965885,0,1.7338206768035889,2019-08-06 14:48:43:120
-0.16380566358566284,0.3075672686100006,9.849282264709473,-0.001534355424951096,-0.0028231073202277645,0.003208027984575613,179.21656366322327,178.6190403427202,0,1.7367579936981201,2019-08-06 14:48:43:123
-0.13027916848659515,0.2668565511703491,9.79420280456543,-0.0018007365525403206,0.0014389909812741537,0.0018761223466294901,179.21672707968585,178.61577511034412,0,1.740020751953125,2019-08-06 14:48:43:126
-0.14943717420101166,0.2548827826976776,9.832518577575684,-0.0018007365525403206,0.0006398475334878987,-0.0018532135696568165,179.2148403127238,178.61414871311135,0,1.743851900100708,2019-08-06 14:48:43:130
-0.12309492379426956,0.25248804688453674,9.763071060180664,0.0021949807514095357,-0.004155012958173888,0.0002778355485848519,179.21677704383106,178.61187759334703,0,1.746769666671753,2019-08-06 14:48:43:133
-0.09914742410182953,0.22614578902721405,9.861255645751953,-0.001534355424951096,-0.004954156340941561,0.0013433600914510408,179.22182223103718,178.61364489246688,0,1.7500109672546387,2019-08-06 14:48:43:136
-0.14464767277240753,0.25727754831314087,9.813361167907715,0.000863074918407669,-0.002023963937460091,0.0018761223466294901,179.22093080574507,178.61115107000032,0,1.7538337707519531,2019-08-06 14:48:43:140
-0.10872642695903778,0.26446178555488586,9.878019332885742,-0.002333498937755932,-0.0022903450650493154,0.0010769789638618162,179.22428172254877,178.6086452649622,0,1.7568042278289795,2019-08-06 14:48:43:143
-0.16859516501426697,0.25727754831314087,9.758281707763672,-0.00020244967322245603,-0.004155012958173888,0.0026752657293971638,179.22075890527185,178.60630422060743,0,1.7600574493408203,2019-08-06 14:48:43:146
-0.16380566358566284,0.262067049741745,9.827729225158691,0.002994124134177209,-0.0033558695754062136,0.0026752657293971638,179.21796726588332,178.602984524277,0,1.7638866901397705,2019-08-06 14:48:43:150
-0.1733846664428711,0.23333004117012024,9.820545196533203,-0.0012679742973618717,-0.003622250702995438,0.003474409372239163,179.21388062231563,178.60387946892865,0,1.766355276107788,2019-08-06 14:48:43:153
-0.13506866991519928,0.1974087953567505,9.909151077270508,0.000863074918407669,-0.002023963937460091,-0.0010540701868891429,179.21439971364288,178.6087989954794,0,1.770010232925415,2019-08-06 14:48:43:156
-0.1278844177722931,0.1902245432138443,9.875624656677246,-0.0010015931047540657,-0.0033558695754062136,0.0005442166761740764,179.21599236742318,178.61476763778484,0,1.7738251686096191,2019-08-06 14:48:43:160
-0.06083143129944801,0.21177729964256287,9.825334548950195,0.0013958372386046994,-0.003888631830584663,0.0018761223466294901,179.22521776463543,178.61754713306257,0,1.7767555713653564,2019-08-06 14:48:43:163
-0.17098991572856903,0.25248804688453674,9.75349235534668,-0.0004688308170663259,-0.0006920582344953867,0.0018761223466294901,179.22075315012253,178.61562453555328,0,1.7800211906433105,2019-08-06 14:48:43:166
-0.16380566358566284,0.23333004117012024,9.83491325378418,0.0021949807514095357,-0.004954156340941561,-0.00025492675535753324,179.21831875916465,178.61565893805962,0,1.783848762512207,2019-08-06 14:48:43:170
-0.10872642695903778,0.23811954259872437,9.832518577575684,0.0019285994937831485,-0.003888631830584663,0.0021425034742187147,179.22191946404192,178.61528353101457,0,1.7867703437805176,2019-08-06 14:48:43:173
-0.16859516501426697,0.22614578902721405,9.820545196533203,0.0024613618789987605,-0.003622250702995438,0.0016097412190402653,179.21846851892724,178.61614737389039,0,1.790006160736084,2019-08-06 14:48:43:176
-0.1135159283876419,0.23093529045581818,9.837308883666992,6.393147468507523e-05,-0.0028231073202277645,0.002941646856986388,179.2214823931258,178.61691476016975,0,1.7938275337219238,2019-08-06 14:48:43:180
-0.16380566358566284,0.2812250256538391,9.770255088806152,-0.0012679742973618717,-0.006818824754214785,0.0016097412190402653,179.21897780966097,178.61181289932347,0,1.796792984008789,2019-08-06 14:48:43:183
-0.13746342062950134,0.21896153688430786,9.928308486938477,0.000863074918407669,-0.0028231073202277645,-0.0013204513144783674,179.21924498404536,178.61415200427263,0,1.800020456314087,2019-08-06 14:48:43:186
-0.13746342062950134,0.2812250256538391,9.815755844116211,-0.0028662611929343817,-0.0033558695754062136,0.002408884601807939,179.21953526835742,178.60966366245384,0,1.803851842880249,2019-08-06 14:48:43:190
-0.13746342062950134,0.2429090440273285,9.866044998168945,6.393147468507523e-05,-0.0054869185961200105,-0.00025492675535753324,179.2200784359788,178.60925235797689,0,1.8067693710327148,2019-08-06 14:48:43:193
-0.12548966705799103,0.26925128698349,9.808571815490723,-0.0018007365525403206,-0.003888631830584663,0.0002778355485848519,179.22172828078806,178.60594852039077,0,1.8100271224975586,2019-08-06 14:48:43:196
-0.08477892726659775,0.21417205035686493,9.808571815490723,6.393147468507523e-05,-0.00015929593055300162,0.0005442166761740764,179.22742380039702,178.60879843662863,0,1.8138718605041504,2019-08-06 14:48:43:200
-0.09914742410182953,0.2357247918844223,9.830123901367188,-0.001534355424951096,-0.0009584393620846114,0.0042735527550068365,179.2314499992013,178.6093603071471,0,1.8163261413574219,2019-08-06 14:48:43:203
-0.10633167624473572,0.17825080454349518,9.791808128356934,6.393147468507523e-05,-0.0033558695754062136,-0.0005213078992014032,179.23507072863072,178.6163018695534,0,1.8200039863586426,2019-08-06 14:48:43:206
-0.1398581713438034,0.23811954259872437,9.763071060180664,-0.0020671176801295454,-0.0017575828098708665,0.003208027984575613,179.23433171114752,178.61647582292557,0,1.823821783065796,2019-08-06 14:48:43:210
-0.15662142634391785,0.24769854545593262,9.9139404296875,-0.00020244967322245603,-0.004421394085763112,0.003208027984575613,179.23227121131782,178.61555503628261,0,1.826753854751587,2019-08-06 14:48:43:213
-0.13267391920089722,0.27164602279663086,9.796597480773926,-0.0018007365525403206,-0.0033558695754062136,0.0026752657293971638,179.23272320051845,178.61180766844777,0,1.8300199508666992,2019-08-06 14:48:43:216
-0.19493740797042847,0.25248804688453674,9.849282264709473,-0.0028662611929343817,-0.006019680851298459,0.0010769789638618162,179.22668518163604,178.6108180989131,0,1.8338468074798584,2019-08-06 14:48:43:220
-0.08238417655229568,0.29798829555511475,9.787018775939941,0.000863074918407669,-0.003622250702995438,0.002941646856986388,179.2330983989142,178.6035812622043,0,1.8367607593536377,2019-08-06 14:48:43:223
-0.15662142634391785,0.31235677003860474,9.801386833190918,-0.0010015931047540657,-0.0009584393620846114,0.002408884601807939,179.23030192637694,178.5951862316397,0,1.8400146961212158,2019-08-06 14:48:43:226
-0.10154217481613159,0.25967228412628174,9.808571815490723,-0.003132642320523606,-0.003888631830584663,0.003208027984575613,179.23466866398923,178.59362552877258,0,1.8438403606414795,2019-08-06 14:48:43:230
-0.07519993185997009,0.26446178555488586,9.741518020629883,0.0013958372386046994,-0.0017575828098708665,-0.00025492675535753324,179.24142063921389,178.59042026515456,0,1.846790075302124,2019-08-06 14:48:43:233
-0.17098991572856903,0.2285405397415161,9.813361167907715,-0.0018007365525403206,-0.004687775213352337,0.002408884601807939,179.23747812305015,178.59225650408186,0,1.8500213623046875,2019-08-06 14:48:43:236
-0.07759468257427216,0.23093529045581818,9.741518020629883,-0.0036654045757020556,-0.0017575828098708665,0.0005442166761740764,179.24397831960854,178.5940376807587,0,1.8538434505462646,2019-08-06 14:48:43:240
-0.13027916848659515,0.23093529045581818,9.710386276245117,0.004858792287376107,-0.0017575828098708665,0.0010769789638618162,179.24401385119742,178.59411249113683,0,1.8567650318145752,2019-08-06 14:48:43:243
-0.11112117767333984,0.21896153688430786,9.827729225158691,0.00033031263071992917,-0.0033558695754062136,0.003474409372239163,179.24680677790067,178.596641545175,0,1.860105276107788,2019-08-06 14:48:43:246
-0.15662142634391785,0.2500932812690735,9.76546573638916,-0.002599880065345157,-0.006552443626625559,0.0018761223466294901,179.24489376280593,178.5959237873759,0,1.8639106750488281,2019-08-06 14:48:43:250
-0.07041043043136597,0.24530379474163055,9.887598037719727,-0.0012679742973618717,-0.00015929593055300162,-0.00025492675535753324,179.25185739472582,178.59575323949312,0,1.8663179874420166,2019-08-06 14:48:43:253
-0.08717367798089981,0.17825080454349518,9.770255088806152,-0.001534355424951096,-0.002023963937460091,0.002408884601807939,179.25701294950588,178.60325003855147,0,1.8699846267700195,2019-08-06 14:48:43:256
-0.14464767277240753,0.20698779821395874,9.803781509399414,-0.0010015931047540657,-0.003888631830584663,0.002941646856986388,179.25579984589902,178.60720942667456,0,1.8738000392913818,2019-08-06 14:48:43:260
-0.16859516501426697,0.19501404464244843,9.86365032196045,0.0016622183661939237,-0.00255672619263854,-0.0007876890592999184,179.25152363158307,178.61213631737442,0,1.8767571449279785,2019-08-06 14:48:43:263
-0.14943717420101166,0.223751038312912,9.767860412597656,-0.001534355424951096,-0.0006920582344953867,0.002408884601807939,179.24909021764097,178.6139301952656,0,1.8800227642059326,2019-08-06 14:48:43:266
-0.2188849151134491,0.30996203422546387,9.806177139282227,-0.0020671176801295454,-0.003888631830584663,0.0016097412190402653,179.23936875964014,178.60588602466228,0,1.8838434219360352,2019-08-06 14:48:43:270
-0.15662142634391785,0.2668565511703491,9.801386833190918,0.002727743006587985,-0.0028231073202277645,0.004007171627417612,179.23673390318453,178.60213031813439,0,1.886758804321289,2019-08-06 14:48:43:273
-0.14943717420101166,0.23093529045581818,9.798992156982422,0.0011294561110154748,-0.006019680851298459,0.0016097412190402653,179.2356291850398,178.6028794694865,0,1.8900253772735596,2019-08-06 14:48:43:276
-0.17098991572856903,0.27164602279663086,9.892387390136719,-0.002333498937755932,-0.0030894884478169893,-0.0010540701868891429,179.2317696592389,178.59985998820713,0,1.893819808959961,2019-08-06 14:48:43:280
-0.19733215868473053,0.216566801071167,9.837308883666992,0.000863074918407669,-0.003888631830584663,0.0016097412190402653,179.2247902033658,178.60249779263796,0,1.8967483043670654,2019-08-06 14:48:43:283
-0.12548966705799103,0.25248804688453674,9.772649765014648,0.0013958372386046994,-0.0028231073202277645,0.0026752657293971638,179.22609846020177,178.60059228757595,0,1.900015115737915,2019-08-06 14:48:43:286
-0.13027916848659515,0.18064555525779724,9.842098236083984,-0.002599880065345157,-0.0014912016822816417,0.0026752657293971638,179.22672879877655,178.60810785100696,0,1.9038348197937012,2019-08-06 14:48:43:290
-0.12309492379426956,0.25967228412628174,9.952256202697754,0.00033031263071992917,-0.0030894884478169893,0.0010769789638618162,179.22855463750133,178.60599648936915,0,1.906907320022583,2019-08-06 14:48:43:293
-0.10872642695903778,0.25967228412628174,9.858860969543457,-0.0012679742973618717,-0.004954156340941561,-0.0007876890592999184,179.23221014244342,178.60392232125415,0,1.9100117683410645,2019-08-06 14:48:43:296
-0.14464767277240753,0.262067049741745,9.9139404296875,0.000863074918407669,-0.005753299723709235,0.003474409372239163,179.23207854709233,178.60137494601523,0,1.9138214588165283,2019-08-06 14:48:43:300
-0.13027916848659515,0.23811954259872437,9.851676940917969,-0.003132642320523606,-0.003622250702995438,0.003208027984575613,179.23288002007592,178.6021708169751,0,1.9167509078979492,2019-08-06 14:48:43:303
-0.13746342062950134,0.25727754831314087,9.789413452148438,-0.0020671176801295454,-0.004155012958173888,0.002408884601807939,179.23289446597403,178.60039738334405,0,1.9200170040130615,2019-08-06 14:48:43:306
-0.15183192491531372,0.2500932812690735,9.830123901367188,-0.0010015931047540657,-0.0022903450650493154,0.004539933882596061,179.23102982011474,178.5994566811636,0,1.9238362312316895,2019-08-06 14:48:43:310
