ACCELEROMETER X (m/s²),ACCELEROMETER Y (m/s²),ACCELEROMETER Z (m/s²),GYROSCOPE X (rad/s),GYROSCOPE Y (rad/s),GYROSCOPE Z (rad/s),Time since start in ms ,YYYY-MO-DD HH-MI-SS_SSS,Pitch (Deg),Roll (Deg),Heading (Deg),MagX,MagY,MagZ
-0.02437615767121315,-0.03376118093729019,9.763710975646973,0.001973884285473317,-0.002973079960079079,0.0007589198975202821,0.0,2019-07-26 14:49:39:296,3.5971391040619696,-3.5960376429116057,0,-25.189743041992188,22.490842819213867,-22.790719985961914
0.049861084669828415,-0.03855068236589432,9.79963207244873,-0.006017549802277746,-0.0064360348788133235,-0.0027040348911768,0.010214567184448242,2019-07-26 14:49:39:306,-0.06528187906502758,-7.116157661545991,0,-25.189743041992188,22.490842819213867,-22.790719985961914
-0.014797158539295197,-0.009813684038817883,9.864290237426758,-0.0038865007815639487,-0.005370510368456426,-0.0011057481256414525,0.020265817642211914,2019-07-26 14:49:39:316,3.537335791424424,-10.570501022817801,0,-25.189743041992188,22.490842819213867,-22.790719985961914
0.028308335691690445,-0.03855068236589432,9.780473709106445,0.0006419785825086126,-0.0011084119369173448,0.0010253010251095067,0.03036785125732422,2019-07-26 14:49:39:326,-0.12946550483360664,-13.954938436812508,0,-25.189743041992188,22.490842819213867,-22.790719985961914
0.004360839258879423,-0.01939268223941326,9.79005241394043,0.0017075031578840923,-0.009366227282294795,0.0012916821526987312,0.04038095474243164,2019-07-26 14:49:39:336,-3.721099747850907,-17.27452979449656,0,-25.189743041992188,22.490842819213867,-22.790719985961914
0.023518836125731468,-0.036155931651592255,9.758920669555664,-0.00015716488153228781,-0.005903272623634875,0.0018244444078771805,0.05037260055541992,2019-07-26 14:49:39:346,-7.240604210371206,-20.524705528716943,0,-25.189743041992188,22.490842819213867,-22.790719985961914
0.009150338359177113,-0.036155931651592255,9.825974464416504,0.002240265413062541,-0.002706698832489855,0.0004925387374217668,0.0599977970123291,2019-07-26 14:49:39:356,-10.693262159503266,-23.711205653196956,0,-25.189743041992188,22.490842819213867,-22.790719985961914
0.057045333087444305,-0.050524428486824036,9.79963207244873,-0.001489070633260928,-0.00963260893003267,0.004221874686217364,0.06998825073242188,2019-07-26 14:49:39:366,-14.067322887652825,-26.83023822809041,0,-25.189743041992188,22.490842819213867,-22.790719985961914
0.04028208553791046,-0.01460318360477686,9.787657737731934,-0.001489070633260928,-0.004304985598025202,-0.0029704160187660244,0.07996582984924316,2019-07-26 14:49:39:376,-17.378848502283752,-29.891089522440993,0,-25.189743041992188,22.490842819213867,-22.790719985961914
0.05465058237314224,-0.0792614221572876,9.833158493041992,-0.002820976271207051,-0.006968797133991773,-0.002171272635998351,0.0900115966796875,2019-07-26 14:49:39:386,-20.62097196661484,-32.88243991028145,0,-25.189743041992188,22.490842819213867,-22.790719985961914
0.028308335691690445,-0.03855068236589432,9.751736640930176,-0.00015716488153228781,-0.004571366985688751,0.0012916821526987312,0.09996414184570312,2019-07-26 14:49:39:396,-23.802671420422605,-35.820173259316626,0,-26.38925552368164,22.490842819213867,-24.589988708496094
0.0019660894758999348,-0.04812967777252197,9.734973907470703,-0.001489070633260928,-0.004304985598025202,0.0012916821526987312,0.10996580123901367,2019-07-26 14:49:39:406,-26.923968916568636,-38.69726818764443,0,-26.38925552368164,22.490842819213867,-24.589988708496094
0.035492584109306335,-0.050524428486824036,9.837947845458984,-0.002288214016028602,-0.003239461087668304,0.000226157593577897,0.1199655532836914,2019-07-26 14:49:39:416,-29.97953650302105,-41.516153037039025,0,-26.38925552368164,22.490842819213867,-24.589988708496094
0.030703086405992508,-0.072077177464962,9.830763816833496,-0.0004235460253761578,-0.0035058422152575287,-0.001372129253230677,0.12997841835021973,2019-07-26 14:49:39:426,-32.97439584426825,-44.27719037838308,0,-26.38925552368164,22.490842819213867,-24.589988708496094
-0.021981406956911087,-0.0529191792011261,9.859500885009766,-0.0004235460253761578,-0.005903272623634875,0.0007589198975202821,0.13998126983642578,2019-07-26 14:49:39:436,-28.714147076527553,-46.98525823624279,0,-26.38925552368164,22.490842819213867,-24.589988708496094
-0.01000765897333622,-0.06010342761874199,9.809210777282715,-0.004952025291920847,-0.0035058422152575287,-0.0024376537635875752,0.1499779224395752,2019-07-26 14:49:39:446,-24.539065366282905,-49.63575223028817,0,-26.38925552368164,22.490842819213867,-24.589988708496094
0.03309783712029457,-0.05531392991542816,9.79963207244873,-0.0012226895056717034,-0.0056368914960456505,0.0007589198975202821,0.15999507904052734,2019-07-26 14:49:39:456,-27.64124325575171,-52.23588142837549,0,-26.38925552368164,22.490842819213867,-24.589988708496094
-0.007612909190356731,-0.0265769325196743,9.773289680480957,-0.0012226895056717034,-0.0011084119369173448,-0.002171272635998351,0.16998791694641113,2019-07-26 14:49:39:466,-23.48868907596839,-54.787361622500484,0,-26.38925552368164,22.490842819213867,-24.589988708496094
-0.007612909190356731,-0.06968242675065994,9.821184158325195,-0.00015716488153228781,-0.002706698832489855,0.0039554935586281394,0.17999601364135742,2019-07-26 14:49:39:476,-19.418282514621765,-57.28339580476476,0,-26.38925552368164,22.490842819213867,-24.589988708496094
-0.014797158539295197,-0.043340180069208145,9.859500885009766,-0.0033537385263855,-0.0011084119369173448,0.003689112431038915,0.18995904922485352,2019-07-26 14:49:39:486,-15.431016584201995,-59.73081457144751,0,-26.38925552368164,22.490842819213867,-24.589988708496094
-0.01000765897333622,-0.021787432953715324,9.859500885009766,0.001174740902705643,-0.004304985598025202,0.004488256073880914,0.19997787475585938,2019-07-26 14:49:39:496,-11.521137593164406,-62.134326907752836,0,-26.38925552368164,22.490842819213867,-24.589988708496094
0.03309783712029457,-0.04094542935490608,9.792448043823242,0.00010921627043890474,-0.005104129240867201,-0.003503178534018799,0.20998859405517578,2019-07-26 14:49:39:506,-14.883972702194782,-64.48691034001851,0,-26.38925552368164,22.490842819213867,-24.589988708496094
-0.029165657237172127,-0.01939268223941326,9.835553169250488,0.001174740902705643,-0.0024403177049006305,-0.0029704160187660244,0.21995854377746582,2019-07-26 14:49:39:516,-10.988325138167923,-66.79557037671344,0,-26.38925552368164,22.490842819213867,-24.589988708496094
-0.0028234098572283983,-0.036155931651592255,9.761316299438477,0.0027730276682409903,-0.0005756496817388956,-0.001372129253230677,0.22997522354125977,2019-07-26 14:49:39:526,-7.16856631985938,-69.05697416374304,0,-26.38925552368164,22.490842819213867,-24.589988708496094
-0.0028234098572283983,-0.05531392991542816,9.770895004272461,0.0035721710510086637,-0.0064360348788133235,0.0023572067930927925,0.23997712135314941,2019-07-26 14:49:39:536,-3.4219116079711402,-71.27135376668723,0,-26.38925552368164,22.490842819213867,-24.589988708496094
0.04507158324122429,-0.03376118093729019,9.792448043823242,0.004371314693850663,-0.006702416006402549,0.0015580632802879558,0.24994993209838867,2019-07-26 14:49:39:546,-6.944445956033579,-73.44442377585099,0,-26.38925552368164,22.490842819213867,-24.589988708496094
-0.026770906522870064,-0.057708676904439926,9.730184555053711,-0.0004235460253761578,-0.004038604470435978,0.000226157593577897,0.25995302200317383,2019-07-26 14:49:39:556,-3.206441444331478,-75.56850118403875,0,-26.38925552368164,22.490842819213867,-24.589988708496094
0.009150338359177113,-0.043340180069208145,9.768500328063965,0.001973884285473317,-0.0008420308093281202,0.003689112431038915,0.2699470520019531,2019-07-26 14:49:39:566,-6.740766698136451,-77.65315474946291,0,-26.38925552368164,22.490842819213867,-24.589988708496094
0.0067555890418589115,-0.0529191792011261,9.797237396240234,-0.002021832888439377,-0.002173936447274243,0.0007589198975202821,0.2799673080444336,2019-07-26 14:49:39:576,-10.203938074496934,-79.6927645656244,0,-26.38925552368164,22.490842819213867,-24.589988708496094
0.016334587708115578,-0.01460318360477686,9.806816101074219,0.0033057899234194394,-0.0024403177049006305,0.008217591860130057,0.2899496555328369,2019-07-26 14:49:39:586,-13.596582820044253,-81.69905582964745,0,-26.38925552368164,22.490842819213867,-24.589988708496094
0.023518836125731468,-0.057708676904439926,9.804421424865723,0.001973884285473317,-0.002973079960079079,-4.022355432963424e-05,0.29996418952941895,2019-07-26 14:49:39:596,-16.920230541136554,-83.65943989322284,0,-26.38925552368164,22.490842819213867,-24.589988708496094
0.04507158324122429,-0.06010342761874199,9.785263061523438,-0.0030873573987962753,-0.0061696537512241,-0.0005729858704630034,0.3099517822265625,2019-07-26 14:49:39:606,-20.173087848973175,-85.57748129995035,0,-26.38925552368164,22.490842819213867,-24.589988708496094
0.042676832526922226,-0.06968242675065994,9.780473709106445,0.002506646540651766,-0.005104129240867201,0.0018244444078771805,0.3199484348297119,2019-07-26 14:49:39:616,-23.361760949767493,-87.45917457501994,0,-26.38925552368164,22.490842819213867,-24.589988708496094
0.03309783712029457,-0.03136643022298813,9.751736640930176,-0.000689927185474673,-0.006702416006402549,-0.0029704160187660244,0.32996654510498047,2019-07-26 14:49:39:626,-26.486866243057587,-89.30591716758437,0,-26.38925552368164,22.490842819213867,-24.589988708496094
0.02591358684003353,-0.03136643022298813,9.773289680480957,0.001174740902705643,-0.0056368914960456505,0.0023572067930927925,0.3399474620819092,2019-07-26 14:49:39:636,-29.550931497295423,-91.11677948801272,0,-26.38925552368164,22.490842819213867,-24.589988708496094
0.030703086405992508,-0.043340180069208145,9.787657737731934,0.0006419785825086126,-0.005104129240867201,0.0015580632802879558,0.34994983673095703,2019-07-26 14:49:39:646,-32.553451592929136,-92.88973032235046,0,-24.589988708496094,22.190963745117188,-23.990232467651367
0.042676832526922226,-0.024182181805372238,9.768500328063965,-0.0004235460253761578,-0.0056368914960456505,0.002623587920682017,0.35994768142700195,2019-07-26 14:49:39:656,-35.494211867728424,-94.62886120798403,0,-24.589988708496094,22.190963745117188,-23.990232467651367
0.035492584109306335,-0.06010342761874199,9.802026748657227,0.001174740902705643,-0.002173936447274243,-4.022355432963424e-05,0.3703756332397461,2019-07-26 14:49:39:666,-38.378905452185066,-96.32994546526594,0,-24.589988708496094,22.190963745117188,-23.990232467651367
-0.007612909190356731,-0.06249817833304405,9.792448043823242,0.0033057899234194394,-0.005104129240867201,0.0010253010251095067,0.37998175621032715,2019-07-26 14:49:39:676,-34.00946513019839,-97.99781618246725,0,-24.589988708496094,22.190963745117188,-23.990232467651367
0.023518836125731468,-0.072077177464962,9.785263061523438,-0.000689927185474673,-0.0013747930645065694,0.0039554935586281394,0.3899850845336914,2019-07-26 14:49:39:686,-36.92574942852452,-99.62903180044846,0,-24.589988708496094,22.190963745117188,-23.990232467651367
0.0019660894758999348,-0.03376118093729019,9.787657737731934,-0.000689927185474673,-0.0056368914960456505,0.0028899690482712416,0.39996767044067383,2019-07-26 14:49:39:696,-39.783844659739366,-101.23211178312404,0,-24.589988708496094,22.190963745117188,-23.990232467651367
0.011545088142156601,-0.0529191792011261,9.773289680480957,0.00010921627043890474,-0.007767940516759447,0.0010253010251095067,0.4099907875061035,2019-07-26 14:49:39:706,-42.58244233771766,-102.80132631510209,0,-24.589988708496094,22.190963745117188,-23.990232467651367
0.02591358684003353,-0.06249817833304405,9.8187894821167,-0.00015716488153228781,-0.010698133440389567,-0.0008393669980522279,0.41999197006225586,2019-07-26 14:49:39:716,-45.321761518778665,-104.33791769148917,0,-24.589988708496094,22.190963745117188,-23.990232467651367
-0.012402408756315708,-0.06728767603635788,9.79963207244873,-0.0017554517608501525,-0.0061696537512241,0.0012916821526987312,0.42998814582824707,2019-07-26 14:49:39:726,-40.813313630370885,-105.842305900203,0,-24.589988708496094,22.190963745117188,-23.990232467651367
-0.01000765897333622,-0.05531392991542816,9.85710620880127,-0.0004235460253761578,-0.005903272623634875,-0.00030660471036448813,0.439983606338501,2019-07-26 14:49:39:736,-36.394897600275364,-107.3187917413077,0,-24.589988708496094,22.190963745117188,-23.990232467651367
0.042676832526922226,-0.057708676904439926,9.782868385314941,0.005969601459386011,-0.0064360348788133235,-0.003503178534018799,0.4499669075012207,2019-07-26 14:49:39:746,-39.25839294208839,-108.76900260891006,0,-24.589988708496094,22.190963745117188,-23.990232467651367
-0.005218159407377243,-0.05531392991542816,9.782868385314941,-0.0009563083130638975,-0.007235178261580997,0.0034227313034496903,0.4599919319152832,2019-07-26 14:49:39:756,-34.86976360289486,-110.18660512300048,0,-24.589988708496094,22.190963745117188,-23.990232467651367
0.011545088142156601,-0.072077177464962,9.792448043823242,0.002506646540651766,-0.0005756496817388956,0.002090825535466405,0.4699873924255371,2019-07-26 14:49:39:766,-37.77069424154949,-111.57584551680647,0,-24.589988708496094,22.190963745117188,-23.990232467651367
0.021124087274074554,-0.05531392991542816,9.780473709106445,0.0027730276682409903,-0.0037722233428467535,0.0012916821526987312,0.47999095916748047,2019-07-26 14:49:39:776,-40.610686532535816,-112.93940550257167,0,-26.539194107055664,20.841514587402344,-24.14017105102539
0.01872933655977249,-0.021787432953715324,9.833158493041992,0.001973884285473317,-0.0064360348788133235,0.0010253010251095067,0.4900083541870117,2019-07-26 14:49:39:786,-43.392670054082856,-114.27918864070766,0,-26.539194107055664,20.841514587402344,-24.14017105102539
0.004360839258879423,-0.04573493078351021,9.802026748657227,-0.00015716488153228781,-0.007235178261580997,-0.0037695596616080236,0.500009298324585,2019-07-26 14:49:39:796,-46.12024391851827,-115.58816996336991,0,-26.539194107055664,20.841514587402344,-24.14017105102539
-0.005218159407377243,-0.06249817833304405,9.766105651855469,-0.000689927185474673,-0.006968797133991773,0.0004925387374217668,0.5099799633026123,2019-07-26 14:49:39:806,-41.59454982654296,-116.86868712236613,0,-26.539194107055664,20.841514587402344,-24.14017105102539
0.030703086405992508,-0.016997933387756348,9.77807903289795,-0.002288214016028602,-0.004304985598025202,0.0010253010251095067,0.5200340747833252,2019-07-26 14:49:39:816,-44.356630352847375,-118.1280295735272,0,-26.539194107055664,20.841514587402344,-24.14017105102539
-0.007612909190356731,-0.021787432953715324,9.77807903289795,-0.001489070633260928,-0.0056368914960456505,-0.0008393669980522279,0.529982328414917,2019-07-26 14:49:39:826,-39.8672411913368,-119.36208388229858,0,-26.539194107055664,20.841514587402344,-24.14017105102539
0.023518836125731468,-0.1056036725640297,9.849921226501465,0.001174740902705643,-0.0003092685216403804,-0.0011057481256414525,0.5400097370147705,2019-07-26 14:49:39:836,-42.66698611939073,-120.5632184273537,0,-26.539194107055664,20.841514587402344,-24.14017105102539
0.01393983792513609,-0.01939268223941326,9.746947288513184,0.0049040769490291125,0.0004898749261458747,0.002623587920682017,0.5500094890594482,2019-07-26 14:49:39:846,-45.41228259585876,-121.75242769408213,0,-26.539194107055664,20.841514587402344,-24.14017105102539
0.021124087274074554,-0.057708676904439926,9.766105651855469,-0.0033537385263855,-0.005370510368456426,0.000226157593577897,0.5600285530090332,2019-07-26 14:49:39:856,-48.09853704923424,-122.90872120518702,0,-26.539194107055664,20.841514587402344,-24.14017105102539
0.021124087274074554,-0.07686667889356613,9.8187894821167,-0.002021832888439377,-0.005104129240867201,-0.0032367971463552496,0.5699775218963623,2019-07-26 14:49:39:866,-50.7312496595344,-124.04044666775232,0,-26.539194107055664,20.841514587402344,-24.14017105102539
-0.005218159407377243,-0.024182181805372238,9.806816101074219,-0.0009563083130638975,-0.002706698832489855,-0.003503178534018799,0.5800116062164307,2019-07-26 14:49:39:876,-46.11570941455594,-125.1562732829591,0,-26.539194107055664,20.841514587402344,-24.14017105102539
0.0019660894758999348,-0.06010342761874199,9.713420867919922,0.002506646540651766,-0.008300702771937896,0.0034227313034496903,0.5900068283081055,2019-07-26 14:49:39:886,-48.78850467556256,-126.24746416821414,0,-26.539194107055664,20.841514587402344,-24.14017105102539
0.05225583165884018,-0.06489292532205582,9.775684356689453,0.0003755974224100973,-0.0064360348788133235,0.0007589198975202821,0.6000080108642578,2019-07-26 14:49:39:896,-51.402994906865594,-127.31511910473633,0,-25.33968162536621,22.340904235839844,-24.14017105102539
-0.0028234098572283983,-0.06968242675065994,9.722999572753906,0.0009083597100978372,-0.007501559389170223,0.0007589198975202821,0.6099948883056641,2019-07-26 14:49:39:906,-46.771061177003986,-128.36111373202903,0,-25.33968162536621,22.340904235839844,-24.14017105102539
0.023518836125731468,-0.04094542935490608,9.814000129699707,0.0027730276682409903,-0.006968797133991773,-0.0008393669980522279,0.6200108528137207,2019-07-26 14:49:39:916,-49.428974603515194,-129.3906700964048,0,-25.33968162536621,22.340904235839844,-24.14017105102539
0.021124087274074554,-0.04094542935490608,9.809210777282715,0.001174740902705643,-0.0011084119369173448,0.0012916821526987312,0.630012035369873,2019-07-26 14:49:39:926,-52.037304946265856,-130.39873315564765,0,-25.33968162536621,22.340904235839844,-24.14017105102539
0.028308335691690445,-0.072077177464962,9.773289680480957,-0.0009563083130638975,-0.006968797133991773,-0.0016385103808199016,0.6400101184844971,2019-07-26 14:49:39:936,-54.58932749182925,-131.38177075315855,0,-25.33968162536621,22.340904235839844,-24.14017105102539
0.01393983792513609,-0.050524428486824036,9.816394805908203,0.0003755974224100973,-0.0037722233428467535,-0.00030660471036448813,0.6500053405761719,2019-07-26 14:49:39:946,-57.09379659162595,-132.34844822416466,0,-25.33968162536621,22.340904235839844,-24.14017105102539
0.028308335691690445,-0.04812967777252197,9.859500885009766,0.0017075031578840923,-0.004837748113277977,0.005820161711827037,0.6600329875946045,2019-07-26 14:49:39:956,-59.54590664759935,-133.2968468676218,0,-25.33968162536621,22.340904235839844,-24.14017105102539
0.030703086405992508,-0.009813684038817883,9.837947845458984,0.003838552178597889,-0.004571366985688751,-0.0029704160187660244,0.6699850559234619,2019-07-26 14:49:39:966,-61.94885774435226,-134.23191185219662,0,-25.33968162536621,22.340904235839844,-24.14017105102539
0.030703086405992508,-0.012208433821797371,9.794842720031738,0.002240265413062541,-0.0011084119369173448,-0.0032367971463552496,0.6800129413604736,2019-07-26 14:49:39:976,-64.30566448674428,-135.14710674381143,0,-25.33968162536621,22.340904235839844,-24.14017105102539
0.021124087274074554,-0.03376118093729019,9.763710975646973,0.0014411220302948675,-0.0064360348788133235,0.006352923967005486,0.689983606338501,2019-07-26 14:49:39:986,-66.61346875379218,-136.04100906615085,0,-25.33968162536621,22.340904235839844,-24.14017105102539
0.030703086405992508,-0.00023468547442462295,9.814000129699707,0.0006419785825086126,-0.005104129240867201,0.0007589198975202821,0.7000343799591064,2019-07-26 14:49:39:996,-68.87473388185808,-136.92052378250196,0,-25.33968162536621,22.340904235839844,-24.14017105102539
0.023518836125731468,-0.0265769325196743,9.878658294677734,0.0003755974224100973,-0.0061696537512241,-0.0011057481256414525,0.709979772567749,2019-07-26 14:49:40:006,-71.09106571046041,-137.77924015950265,0,-25.33968162536621,22.340904235839844,-24.14017105102539
0.021124087274074554,-0.01460318360477686,9.722999572753906,0.001174740902705643,-0.004304985598025202,-0.0005729858704630034,0.720003604888916,2019-07-26 14:49:40:016,-73.26433179152315,-138.6225954696025,0,-25.33968162536621,22.340904235839844,-24.14017105102539
0.016334587708115578,-0.06249817833304405,9.739763259887695,0.001174740902705643,-0.0056368914960456505,0.0012916821526987312,0.7299771308898926,2019-07-26 14:49:40:026,-75.39396661124003,-139.44344841142336,0,-24.88986587524414,22.190963745117188,-23.690353393554688
0.02591358684003353,-0.057708676904439926,9.79963207244873,0.0017075031578840923,-0.002706698832489855,-0.0019048915084091261,0.7400133609771729,2019-07-26 14:49:40:036,-77.48153177841156,-140.24879361719232,0,-24.88986587524414,22.190963745117188,-23.690353393554688
0.05225583165884018,-0.0265769325196743,9.770895004272461,-0.0012226895056717034,-0.005903272623634875,-0.0027040348911768,0.7500276565551758,2019-07-26 14:49:40:046,-79.52245329935623,-141.04001333068362,0,-24.88986587524414,22.190963745117188,-23.690353393554688
0.03309783712029457,-0.06010342761874199,9.79005241394043,-0.00015716488153228781,-0.00963260893003267,-0.0005729858704630034,0.7599825859069824,2019-07-26 14:49:40:056,-81.52274586079339,-141.81209025778833,0,-24.88986587524414,22.190963745117188,-23.690353393554688
0.011545088142156601,-0.057708676904439926,9.842737197875977,-0.001489070633260928,-0.008300702771937896,0.0023572067930927925,0.7700114250183105,2019-07-26 14:49:40:066,-83.48627256199393,-142.5682914215958,0,-24.88986587524414,22.190963745117188,-23.690353393554688
0.05465058237314224,-0.06249817833304405,9.804421424865723,0.001174740902705643,-0.0064360348788133235,0.0012916821526987312,0.7800107002258301,2019-07-26 14:49:40:076,-85.40654619432688,-143.3102806331739,0,-24.88986587524414,22.190963745117188,-23.690353393554688
-0.005218159407377243,-0.07447192817926407,9.766105651855469,0.00010921627043890474,-0.007235178261580997,-4.022355432963424e-05,0.7899861335754395,2019-07-26 14:49:40:086,-80.09497498579506,-144.0353981272374,0,-24.88986587524414,22.190963745117188,-23.690353393554688
0.04507158324122429,-0.057708676904439926,9.768500328063965,0.0027730276682409903,-0.0037722233428467535,0.004488256073880914,0.8000316619873047,2019-07-26 14:49:40:096,-82.08566055995176,-144.74948473941484,0,-24.88986587524414,22.190963745117188,-23.690353393554688
0.05465058237314224,-0.06249817833304405,9.821184158325195,0.0003755974224100973,-0.004304985598025202,0.003156350175860466,0.8099863529205322,2019-07-26 14:49:40:106,-84.03516460564289,-145.44741292589515,0,-24.88986587524414,22.190963745117188,-23.690353393554688
0.01393983792513609,-0.03855068236589432,9.794842720031738,-0.0004235460253761578,-0.002973079960079079,0.004488256073880914,0.820004940032959,2019-07-26 14:49:40:116,-85.95115798563496,-146.1337163171042,0,-24.88986587524414,22.190963745117188,-23.690353393554688
-0.0004286601906642318,-0.04812967777252197,9.727788925170898,-0.006017549802277746,-0.002706698832489855,0.0012916821526987312,0.8300111293792725,2019-07-26 14:49:40:126,-80.63066457292906,-146.80199151245807,0,-24.88986587524414,22.190963745117188,-23.690353393554688
0.009150338359177113,-0.050524428486824036,9.806816101074219,0.0006419785825086126,-0.002173936447274243,-0.0011057481256414525,0.8400304317474365,2019-07-26 14:49:40:136,-82.61575905636259,-147.46040917687418,0,-24.88986587524414,22.190963745117188,-23.690353393554688
0.009150338359177113,-0.03376118093729019,9.797237396240234,0.0027730276682409903,-0.003239461087668304,0.0010253010251095067,0.8499796390533447,2019-07-26 14:49:40:146,-84.56056390925475,-148.10880133801706,0,-26.08937644958496,22.190963745117188,-23.690353393554688
0.023518836125731468,-0.043340180069208145,9.876263618469238,-0.0033537385263855,-0.0019075553196850185,-4.022355432963424e-05,0.8600070476531982,2019-07-26 14:49:40:156,-86.46554978520601,-148.73970842115807,0,-26.08937644958496,22.190963745117188,-23.690353393554688
0.02591358684003353,-0.03136643022298813,9.806816101074219,0.00010921627043890474,-0.007235178261580997,0.004221874686217364,0.8700089454650879,2019-07-26 14:49:40:166,-88.32914750891037,-149.36131046905749,0,-26.08937644958496,22.190963745117188,-23.690353393554688
0.009150338359177113,-0.0529191792011261,9.806816101074219,-0.000689927185474673,-0.002973079960079079,-4.022355432963424e-05,0.8799824714660645,2019-07-26 14:49:40:176,-90.15983039131407,-149.96751440467568,0,-26.08937644958496,22.190963745117188,-23.690353393554688
-0.01719190739095211,-0.0026294351555407047,9.773289680480957,0.003838552178597889,-0.0061696537512241,-0.0040359407891972475,0.8900325298309326,2019-07-26 14:49:40:186,-84.75516793426728,-150.5700219471374,0,-26.08937644958496,22.190963745117188,-23.690353393554688
0.004360839258879423,-0.06249817833304405,9.84034252166748,-0.0038865007815639487,-0.0024403177049006305,0.0007589198975202821,0.8999776840209961,2019-07-26 14:49:40:196,-86.65819403256418,-151.1491733481659,0,-26.08937644958496,22.190963745117188,-23.690353393554688
-0.005218159407377243,-0.03855068236589432,9.828369140625,-0.002288214016028602,-0.003239461087668304,-0.0011057481256414525,0.9100096225738525,2019-07-26 14:49:40:206,-81.32381378841706,-151.7204062454734,0,-26.08937644958496,22.190963745117188,-23.690353393554688
-0.02437615767121315,-0.03376118093729019,9.828369140625,-0.0012226895056717034,-0.005903272623634875,0.000226157593577897,0.9200093746185303,2019-07-26 14:49:40:216,-76.09686499025271,-152.2813753090679,0,-26.08937644958496,22.190963745117188,-23.690353393554688
0.0067555890418589115,-0.009813684038817883,9.79005241394043,0.00010921627043890474,-0.0019075553196850185,0.0012916821526987312,0.9299793243408203,2019-07-26 14:49:40:226,-78.17306908474526,-152.83466026212812,0,-26.08937644958496,22.190963745117188,-23.690353393554688
0.04028208553791046,-0.06968242675065994,9.854711532592773,0.002240265413062541,-0.004038604470435978,-0.002171272635998351,0.9400324821472168,2019-07-26 14:49:40:236,-80.20264396309017,-153.37112904325073,0,-26.08937644958496,22.190963745117188,-23.690353393554688
-0.021981406956911087,-0.05531392991542816,9.746947288513184,-0.0009563083130638975,-0.003239461087668304,0.0018244444078771805,0.9499859809875488,2019-07-26 14:49:40:246,-74.99936486438547,-153.89666899188182,0,-26.08937644958496,22.190963745117188,-23.690353393554688
0.035492584109306335,-0.04812967777252197,9.773289680480957,0.001174740902705643,-4.288736560552649e-05,0.0004925387374217668,0.9600026607513428,2019-07-26 14:49:40:256,-77.09519196807317,-154.41375318151117,0,-26.08937644958496,22.190963745117188,-23.690353393554688
0.016334587708115578,-0.09123517572879791,9.804421424865723,-0.0017554517608501525,-0.007501559389170223,-0.0011057481256414525,0.970008373260498,2019-07-26 14:49:40:266,-79.14716446426367,-154.9138288458341,0,-26.08937644958496,22.190963745117188,-23.690353393554688
0.04028208553791046,-0.08405092358589172,9.744552612304688,0.0006419785825086126,-0.005104129240867201,0.0012916821526987312,0.9800302982330322,2019-07-26 14:49:40:276,-81.15661196451319,-155.40602976360717,0,-24.739927291870117,21.441268920898438,-23.240537643432617
0.030703086405992508,-0.072077177464962,9.79005241394043,-0.00015716488153228781,-0.005104129240867201,-0.0019048915084091261,0.9899804592132568,2019-07-26 14:49:40:286,-83.12703429429172,-155.8893849530417,0,-24.739927291870117,21.441268920898438,-23.240537643432617
-0.021981406956911087,-0.05531392991542816,9.763710975646973,0.0075678882249213585,-0.005903272623634875,0.0012916821526987312,1.0000321865081787,2019-07-26 14:49:40:296,-77.8637416211019,-156.3693767570766,0,-24.739927291870117,21.441268920898438,-23.240537643432617
0.021124087274074554,-0.04094542935490608,9.825974464416504,0.0017075031578840923,-0.004837748113277977,0.0004925387374217668,1.009979009628296,2019-07-26 14:49:40:306,-79.90130133488191,-156.8381678123733,0,-24.739927291870117,21.441268920898438,-23.240537643432617
0.028308335691690445,-0.07686667889356613,9.763710975646973,-0.001489070633260928,-0.0037722233428467535,-0.00030660471036448813,1.0200104713439941,2019-07-26 14:49:40:316,-81.89782815430969,-157.29154446153612,0,-24.739927291870117,21.441268920898438,-23.240537643432617
0.035492584109306335,-0.06489292532205582,9.79963207244873,-0.002021832888439377,-0.005104129240867201,-0.0019048915084091261,1.030029058456421,2019-07-26 14:49:40:326,-83.8528500113155,-157.7369880915113,0,-24.739927291870117,21.441268920898438,-23.240537643432617
-0.0028234098572283983,-0.03376118093729019,9.775684356689453,0.001174740902705643,-0.0016411741920957937,-4.022355432963424e-05,1.0399808883666992,2019-07-26 14:49:40:336,-78.5752068959145,-158.17894726374377,0,-24.739927291870117,21.441268920898438,-23.240537643432617
0.035492584109306335,-0.0529191792011261,9.814000129699707,-0.001489070633260928,-0.004304985598025202,0.002090825535466405,1.0500123500823975,2019-07-26 14:49:40:346,-80.59713369421446,-158.60835061571478,0,-24.739927291870117,21.441268920898438,-23.240537643432617
0.03309783712029457,-0.050524428486824036,9.85710620880127,0.0033057899234194394,-0.0056368914960456505,-0.0024376537635875752,1.0600078105926514,2019-07-26 14:49:40:356,-82.57817965048005,-159.03216540559137,0,-24.739927291870117,21.441268920898438,-23.240537643432617
0.03309783712029457,-0.08405092358589172,9.811605453491211,0.0017075031578840923,-0.0011084119369173448,-0.001372129253230677,1.0699846744537354,2019-07-26 14:49:40:366,-84.5221295825106,-159.4426624169079,0,-24.739927291870117,21.441268920898438,-23.240537643432617
0.021124087274074554,-0.06968242675065994,9.871474266052246,0.0027730276682409903,-0.007501559389170223,-0.004302321916786473,1.0800340175628662,2019-07-26 14:49:40:376,-86.42500193668467,-159.84728505500348,0,-24.739927291870117,21.441268920898438,-23.240537643432617
0.04028208553791046,-0.043340180069208145,9.814000129699707,0.00010921627043890474,-0.002973079960079079,0.0015580632802879558,1.0899848937988281,2019-07-26 14:49:40:386,-88.29013727314579,-160.24533986546592,0,-24.739927291870117,21.441268920898438,-23.240537643432617
0.01393983792513609,-0.043340180069208145,9.8187894821167,0.0003755974224100973,-0.0035058422152575287,-0.00030660471036448813,1.1000072956085205,2019-07-26 14:49:40:396,-90.12073472496343,-160.63558639442758,0,-24.88986587524414,21.591209411621094,-24.290109634399414
0.0019660894758999348,-0.028971681371331215,9.770895004272461,0.0017075031578840923,-0.007235178261580997,0.0007589198975202821,1.109985113143921,2019-07-26 14:49:40:406,-91.91403591947957,-161.0204335560422,0,-24.88986587524414,21.591209411621094,-24.290109634399414
0.049861084669828415,-0.05531392991542816,9.794842720031738,0.002240265413062541,-0.004837748113277977,0.0004925387374217668,1.1200320720672607,2019-07-26 14:49:40:416,-93.6671927720925,-161.39481749435703,0,-24.88986587524414,21.591209411621094,-24.290109634399414
0.01393983792513609,-0.06728767603635788,9.792448043823242,-0.0009563083130638975,-0.0061696537512241,0.005820161711827037,1.1299800872802734,2019-07-26 14:49:40:426,-95.38877142984754,-161.7585130673178,0,-24.88986587524414,21.591209411621094,-24.290109634399414
0.011545088142156601,-0.036155931651592255,9.804421424865723,0.002506646540651766,-0.0024403177049006305,-0.001372129253230677,1.1399996280670166,2019-07-26 14:49:40:436,-97.07827372901184,-162.12052724165977,0,-24.88986587524414,21.591209411621094,-24.290109634399414
0.0378873348236084,-0.04094542935490608,9.768500328063965,0.0006419785825086126,-0.003239461087668304,-0.0016385103808199016,1.1500089168548584,2019-07-26 14:49:40:446,-98.73044317632042,-162.47367433551238,0,-24.88986587524414,21.591209411621094,-24.290109634399414
0.028308335691690445,-0.03855068236589432,9.804421424865723,-0.002288214016028602,-0.00856708389952712,0.000226157593577897,1.159982681274414,2019-07-26 14:49:40:456,-100.34772793085916,-162.81841370906443,0,-24.88986587524414,21.591209411621094,-24.290109634399414
0.03309783712029457,-0.04573493078351021,9.79005241394043,0.0014411220302948675,-0.007235178261580997,0.0018244444078771805,1.170032024383545,2019-07-26 14:49:40:466,-101.93281673052815,-163.157505427946,0,-24.88986587524414,21.591209411621094,-24.290109634399414
-0.0004286601906642318,-0.04812967777252197,9.830763816833496,-0.0004235460253761578,-0.0035058422152575287,0.0028899690482712416,1.1799805164337158,2019-07-26 14:49:40:476,-96.292251976209,-163.48850856896843,0,-24.88986587524414,21.591209411621094,-24.290109634399414
-0.0028234098572283983,-0.03855068236589432,9.785263061523438,-0.0012226895056717034,-0.006968797133991773,-0.0027040348911768,1.1900129318237305,2019-07-26 14:49:40:486,-90.76281192150013,-163.81353513066,0,-24.88986587524414,21.591209411621094,-24.290109634399414
-0.007612909190356731,-0.06010342761874199,9.821184158325195,0.0003755974224100973,-0.002973079960079079,-0.0011057481256414525,1.1999790668487549,2019-07-26 14:49:40:496,-85.34678021449653,-164.13046195437516,0,-24.88986587524414,21.591209411621094,-24.290109634399414
-0.005218159407377243,-0.08644567430019379,9.8187894821167,0.0006419785825086126,-0.0035058422152575287,-0.0029704160187660244,1.2100086212158203,2019-07-26 14:49:40:506,-80.03847925927147,-164.43812574779363,0,-24.88986587524414,21.591209411621094,-24.290109634399414
0.035492584109306335,-0.03376118093729019,9.727788925170898,-0.0033537385263855,-0.0008420308093281202,-0.007765276835520717,1.2200307846069336,2019-07-26 14:49:40:516,-82.03305488466758,-164.74349895072055,0,-24.88986587524414,21.591209411621094,-24.290109634399414
0.023518836125731468,-0.0026294351555407047,9.811605453491211,0.0017075031578840923,-0.004038604470435978,0.0004925387374217668,1.229982614517212,2019-07-26 14:49:40:526,-83.98739023623993,-165.0492760174478,0,-25.63956069946289,21.441268920898438,-24.440048217773438
0.035492584109306335,-0.06728767603635788,9.814000129699707,0.0017075031578840923,-0.0011084119369173448,-0.002171272635998351,1.2399847507476807,2019-07-26 14:49:40:536,-85.90287571160428,-165.34139285085334,0,-25.63956069946289,21.441268920898438,-24.440048217773438
0.028308335691690445,-0.08405092358589172,9.775684356689453,0.003838552178597889,-0.003239461087668304,-0.0005729858704630034,1.250014305114746,2019-07-26 14:49:40:546,-87.7796755461634,-165.62687441428488,0,-25.63956069946289,21.441268920898438,-24.440048217773438
-0.005218159407377243,-0.050524428486824036,9.725394248962402,0.0017075031578840923,-0.00856708389952712,0.0007589198975202821,1.2599642276763916,2019-07-26 14:49:40:556,-82.41991055941676,-165.90933778907615,0,-25.63956069946289,21.441268920898438,-24.440048217773438
0.011545088142156601,-0.0265769325196743,9.754131317138672,0.0003755974224100973,-0.007767940516759447,0.0015580632802879558,1.2699813842773438,2019-07-26 14:49:40:566,-84.36578686041523,-166.1882400415961,0,-25.63956069946289,21.441268920898438,-24.440048217773438
0.011545088142156601,-0.06728767603635788,9.821184158325195,0.0006419785825086126,-0.00856708389952712,-0.001372129253230677,1.279968500137329,2019-07-26 14:49:40:576,-86.27231985850467,-166.45698438146894,0,-25.63956069946289,21.441268920898438,-24.440048217773438
0.023518836125731468,-0.057708676904439926,9.837947845458984,0.0009083597100978372,-0.006702416006402549,-0.00030660471036448813,1.2899682521820068,2019-07-26 14:49:40:586,-88.14037070886874,-166.7216329446432,0,-25.63956069946289,21.441268920898438,-24.440048217773438
0.05944008380174637,-0.07686667889356613,9.816394805908203,0.00010921627043890474,-0.004837748113277977,0.0004925387374217668,1.3003523349761963,2019-07-26 14:49:40:596,-89.9678039281146,-166.9782911273917,0,-25.63956069946289,21.441268920898438,-24.440048217773438
-0.0004286601906642318,-0.07447192817926407,9.780473709106445,-0.001489070633260928,-0.0037722233428467535,-4.022355432963424e-05,1.309985876083374,2019-07-26 14:49:40:606,-84.5664575942479,-167.22919460254803,0,-25.63956069946289,21.441268920898438,-24.440048217773438
0.035492584109306335,-0.06249817833304405,9.792448043823242,0.0009083597100978372,-0.00856708389952712,-0.0011057481256414525,1.3199665546417236,2019-07-26 14:49:40:616,-86.46617399476985,-167.47780630904325,0,-25.63956069946289,21.441268920898438,-24.440048217773438
0.021124087274074554,-0.06489292532205582,9.809210777282715,0.0033057899234194394,-0.004304985598025202,0.004754637201470138,1.3299803733825684,2019-07-26 14:49:40:626,-88.33196221120726,-167.72252823975666,0,-25.63956069946289,21.441268920898438,-24.440048217773438
0.011545088142156601,-0.04094542935490608,9.854711532592773,-0.004685644164331623,-0.008300702771937896,0.0023572067930927925,1.3399872779846191,2019-07-26 14:49:40:636,-90.15931644191433,-167.96068372798177,0,-25.63956069946289,21.441268920898438,-24.440048217773438
0.009150338359177113,-0.08405092358589172,9.766105651855469,0.004104933306187114,-0.006702416006402549,-0.0027040348911768,1.3499648571014404,2019-07-26 14:49:40:646,-91.95130148986188,-168.19390784595345,0,-26.539194107055664,20.841514587402344,-23.240537643432617
0.011545088142156601,-0.0074189347214996815,9.775684356689453,-0.002288214016028602,-0.007235178261580997,0.004754637201470138,1.359978437423706,2019-07-26 14:49:40:656,-93.70685407399294,-168.42787346028726,0,-26.539194107055664,20.841514587402344,-23.240537643432617
-0.0004286601906642318,-0.03855068236589432,9.814000129699707,-0.001489070633260928,-0.00963260893003267,0.003156350175860466,1.3699641227722168,2019-07-26 14:49:40:666,-88.22736608987002,-168.6539797929165,0,-26.539194107055664,20.841514587402344,-23.240537643432617
0.0067555890418589115,-0.016997933387756348,9.79963207244873,0.006235982586975235,-0.006702416006402549,-0.0032367971463552496,1.3799874782562256,2019-07-26 14:49:40:676,-90.05825661935275,-168.8824222269684,0,-26.539194107055664,20.841514587402344,-23.240537643432617
0.0019660894758999348,-0.04812967777252197,9.785263061523438,-0.0004235460253761578,-0.0019075553196850185,0.0007589198975202821,1.3899855613708496,2019-07-26 14:49:40:686,-91.85579036117679,-169.09889976624433,0,-26.539194107055664,20.841514587402344,-23.240537643432617
-0.021981406956911087,-0.036155931651592255,9.782868385314941,0.0017075031578840923,-0.0013747930645065694,-0.003503178534018799,1.3999617099761963,2019-07-26 14:49:40:696,-86.42047923691577,-169.31364314164966,0,-26.539194107055664,20.841514587402344,-23.240537643432617
0.004360839258879423,-0.04812967777252197,9.859500885009766,0.001174740902705643,-0.0024403177049006305,-0.003503178534018799,1.4099791049957275,2019-07-26 14:49:40:706,-88.29019019723778,-169.52243723819063,0,-26.539194107055664,20.841514587402344,-23.240537643432617
-0.007612909190356731,-0.0529191792011261,9.814000129699707,-0.0033537385263855,-0.0035058422152575287,-0.0032367971463552496,1.4199929237365723,2019-07-26 14:49:40:716,-82.92330405605242,-169.723923810503,0,-26.539194107055664,20.841514587402344,-23.240537643432617
0.011545088142156601,-0.016997933387756348,9.837947845458984,-0.000689927185474673,-0.005903272623634875,-0.0029704160187660244,1.4299895763397217,2019-07-26 14:49:40:726,-84.86017964375424,-169.9270781682976,0,-26.539194107055664,20.841514587402344,-23.240537643432617
0.011545088142156601,-0.03855068236589432,9.852315902709961,-0.004152881909153174,-0.006702416006402549,-0.002171272635998351,1.4399585723876953,2019-07-26 14:49:40:736,-86.75788152136616,-170.12172821848128,0,-26.539194107055664,20.841514587402344,-23.240537643432617
0.01872933655977249,-0.050524428486824036,9.859500885009766,-0.0017554517608501525,-0.002706698832489855,-0.003503178534018799,1.449977159500122,2019-07-26 14:49:40:746,-88.61902445312897,-170.31243401304468,0,-26.539194107055664,20.841514587402344,-23.240537643432617
0.02591358684003353,-0.0792614221572876,9.804421424865723,0.0014411220302948675,-0.007235178261580997,-0.005101465039479822,1.4599604606628418,2019-07-26 14:49:40:756,-90.43955949888223,-170.497729499986,0,-26.539194107055664,20.841514587402344,-23.240537643432617
0.02591358684003353,-0.057708676904439926,9.773289680480957,0.0014411220302948675,-0.0035058422152575287,-0.001372129253230677,1.469977855682373,2019-07-26 14:49:40:766,-92.22575800503986,-170.68181925739736,0,-26.539194107055664,20.841514587402344,-23.240537643432617
0.049861084669828415,-0.01460318360477686,9.7373685836792,0.001174740902705643,-0.0064360348788133235,-0.001372129253230677,1.4799599647521973,2019-07-26 14:49:40:776,-93.9717677714854,-170.86712277311966,0,-24.739927291870117,20.541635513305664,-22.64078140258789
-0.01000765897333622,-0.043340180069208145,9.754131317138672,0.001174740902705643,-0.0061696537512241,-0.0008393669980522279,1.4899699687957764,2019-07-26 14:49:40:786,-88.49004039782999,-171.04534902102972,0,-24.739927291870117,20.541635513305664,-22.64078140258789
0.0378873348236084,-0.06249817833304405,9.821184158325195,0.0003755974224100973,-0.0037722233428467535,-0.0032367971463552496,1.4999876022338867,2019-07-26 14:49:40:796,-90.31369716220418,-171.21736124931905,0,-24.739927291870117,20.541635513305664,-22.64078140258789
0.004360839258879423,-0.04812967777252197,9.84034252166748,0.001174740902705643,-0.007235178261580997,-0.0016385103808199016,1.5099461078643799,2019-07-26 14:49:40:806,-92.10286971036426,-171.38806620875533,0,-24.739927291870117,20.541635513305664,-22.64078140258789
0.011545088142156601,-0.06728767603635788,9.821184158325195,-0.0012226895056717034,-0.007767940516759447,-0.004302321916786473,1.5199601650238037,2019-07-26 14:49:40:816,-93.85509744028792,-171.5517665160475,0,-24.739927291870117,20.541635513305664,-22.64078140258789
-0.012402408756315708,-0.021787432953715324,9.792448043823242,0.004637695821439887,-0.008034321644348672,0.0015580632802879558,1.5299527645111084,2019-07-26 14:49:40:826,-88.37493890267766,-171.72078374989727,0,-24.739927291870117,20.541635513305664,-22.64078140258789
0.05465058237314224,-0.03136643022298813,9.766105651855469,0.0033057899234194394,-0.005903272623634875,-4.022355432963424e-05,1.5399518013000488,2019-07-26 14:49:40:836,-90.19771335157397,-171.88454369443645,0,-24.739927291870117,20.541635513305664,-22.64078140258789
0.07380858063697815,-0.06728767603635788,9.811605453491211,0.0009083597100978372,-0.004304985598025202,-0.0048350839118905965,1.5499663352966309,2019-07-26 14:49:40:846,-91.98271824940159,-172.03950507535708,0,-24.739927291870117,20.541635513305664,-22.64078140258789
0.12170357257127762,-0.03855068236589432,9.825974464416504,-0.0017554517608501525,-0.0064360348788133235,-0.0029704160187660244,1.5599586963653564,2019-07-26 14:49:40:856,-93.72526034584811,-172.19323424452986,0,-24.739927291870117,20.541635513305664,-22.64078140258789
0.09536132961511612,-0.08644567430019379,9.802026748657227,0.0003755974224100973,-0.0024403177049006305,0.0012916821526987312,1.569950819015503,2019-07-26 14:49:40:866,-95.43823802479339,-172.3394745362574,0,-24.739927291870117,20.541635513305664,-22.64078140258789
0.09775608032941818,-0.04573493078351021,9.842737197875977,0.0014411220302948675,-0.0011084119369173448,-0.0016385103808199016,1.5799531936645508,2019-07-26 14:49:40:876,-97.11747011641596,-172.4881698913213,0,-24.739927291870117,20.541635513305664,-22.64078140258789
0.057045333087444305,-0.036155931651592255,9.804421424865723,0.00010921627043890474,-0.004038604470435978,-4.022355432963424e-05,1.5899720191955566,2019-07-26 14:49:40:886,-98.7661815374051,-172.63424214047203,0,-24.739927291870117,20.541635513305664,-22.64078140258789
0.057045333087444305,-0.04094542935490608,9.756525993347168,0.002240265413062541,-0.002173936447274243,0.006352923967005486,1.5999510288238525,2019-07-26 14:49:40:896,-100.38293984059645,-172.77800350207363,0,-26.539194107055664,22.940658569335938,-24.14017105102539
0.09775608032941818,-0.072077177464962,9.742157936096191,0.00010921627043890474,-0.003239461087668304,0.003689112431038915,1.6099684238433838,2019-07-26 14:49:40:906,-101.96196081123425,-172.91402698262337,0,-26.539194107055664,22.940658569335938,-24.14017105102539
0.02591358684003353,-0.01939268223941326,9.792448043823242,-0.0012226895056717034,-0.0016411741920957937,-0.00030660471036448813,1.619957447052002,2019-07-26 14:49:40:916,-103.51876867982436,-173.0527913227921,0,-26.539194107055664,22.940658569335938,-24.14017105102539
0.035492584109306335,-0.036155931651592255,9.79005241394043,0.0006419785825086126,-0.0035058422152575287,0.004488256073880914,1.6299524307250977,2019-07-26 14:49:40:926,-105.04227141571819,-173.18786379015035,0,-26.539194107055664,22.940658569335938,-24.14017105102539
0.06662432849407196,-0.043340180069208145,9.77807903289795,0.002506646540651766,-0.0024403177049006305,0.005553780584237813,1.6399688720703125,2019-07-26 14:49:40:936,-106.5322457618872,-173.3204372048462,0,-26.539194107055664,22.940658569335938,-24.14017105102539
0.011545088142156601,-0.08165617287158966,9.847526550292969,0.0017075031578840923,-0.0016411741920957937,0.0039554935586281394,1.6499533653259277,2019-07-26 14:49:40:946,-107.99933730541024,-173.44548396424753,0,-26.539194107055664,22.940658569335938,-24.14017105102539
0.030703086405992508,-0.016997933387756348,9.823579788208008,0.002240265413062541,-0.004304985598025202,0.005287399456648588,1.6599645614624023,2019-07-26 14:49:40:956,-109.43334912160284,-173.57585080099918,0,-26.539194107055664,22.940658569335938,-24.14017105102539
0.04746633395552635,-0.04094542935490608,9.775684356689453,-0.0009563083130638975,-0.003239461087668304,0.005820161711827037,1.6699557304382324,2019-07-26 14:49:40:966,-110.83730078463572,-173.69899765685656,0,-26.539194107055664,22.940658569335938,-24.14017105102539
0.04507158324122429,-0.03376118093729019,9.828369140625,-0.00015716488153228781,-0.0011084119369173448,0.005553780584237813,1.67995285987854,2019-07-26 14:49:40:976,-112.21467759737168,-173.8209931911589,0,-26.539194107055664,22.940658569335938,-24.14017105102539
0.03309783712029457,-0.01460318360477686,9.775684356689453,0.0049040769490291125,0.00022349378230200473,0.003156350175860466,1.6899731159210205,2019-07-26 14:49:40:986,-113.5666300440153,-173.94562073898612,0,-26.539194107055664,22.940658569335938,-24.14017105102539
0.011545088142156601,-0.01939268223941326,9.794842720031738,-0.0004235460253761578,-0.002173936447274243,0.0007589198975202821,1.699953317642212,2019-07-26 14:49:40:996,-114.89272851827565,-174.06420219406235,0,-26.539194107055664,22.940658569335938,-24.14017105102539
-0.0028234098572283983,-0.04812967777252197,9.845131874084473,-0.0012226895056717034,-0.004038604470435978,-0.001372129253230677,1.709956407546997,2019-07-26 14:49:41:006,-108.99293420464073,-174.1766294320575,0,-26.539194107055664,22.940658569335938,-24.14017105102539
0.01872933655977249,-0.03376118093729019,9.823579788208008,0.0014411220302948675,-0.003239461087668304,-0.0024376537635875752,1.719954013824463,2019-07-26 14:49:41:016,-110.40907223801742,-174.28996762868317,0,-26.539194107055664,22.940658569335938,-24.14017105102539
-0.04592890292406082,-0.04812967777252197,9.79005241394043,0.0003755974224100973,-0.005104129240867201,-0.003503178534018799,1.7299702167510986,2019-07-26 14:49:41:026,-104.6033960794613,-174.39874603125006,0,-25.189743041992188,21.591209411621094,-23.39047622680664
-0.01719190739095211,-0.050524428486824036,9.768500328063965,-0.0012226895056717034,-0.0019075553196850185,-0.010162706983823738,1.7399520874023438,2019-07-26 14:49:41:036,-98.9122757427049,-174.5041589895217,0,-25.189743041992188,21.591209411621094,-23.39047622680664
-0.01719190739095211,-0.057708676904439926,9.79963207244873,-0.002021832888439377,-0.0019075553196850185,-0.007765276835520717,1.7499592304229736,2019-07-26 14:49:41:046,-93.33496869898654,-174.60619168209905,0,-25.189743041992188,21.591209411621094,-23.39047622680664
-0.014797158539295197,-0.03136643022298813,9.794842720031738,-0.0009563083130638975,-0.003239461087668304,-0.0059006089423961445,1.7599530220031738,2019-07-26 14:49:41:056,-87.86818264514926,-174.7098616156345,0,-25.189743041992188,21.591209411621094,-23.39047622680664
0.023518836125731468,-0.043340180069208145,9.890632629394531,-0.0012226895056717034,-0.0019075553196850185,-0.00856442021828839,1.7699525356292725,2019-07-26 14:49:41:066,-89.70702309857234,-174.80995657452587,0,-25.189743041992188,21.591209411621094,-23.39047622680664
0.004360839258879423,-0.043340180069208145,9.821184158325195,0.0009083597100978372,-0.0035058422152575287,-0.007232514580342268,1.779968023300171,2019-07-26 14:49:41:076,-91.51040224844787,-174.9092114653697,0,-25.189743041992188,21.591209411621094,-23.39047622680664
0.023518836125731468,-0.03376118093729019,9.811605453491211,-0.001489070633260928,-0.0035058422152575287,-0.003503178534018799,1.7899541854858398,2019-07-26 14:49:41:086,-93.27548159864402,-175.00624926657474,0,-25.189743041992188,21.591209411621094,-23.39047622680664
-0.021981406956911087,-0.028971681371331215,9.821184158325195,0.0003755974224100973,-0.0019075553196850185,-0.004568702784301372,1.799973487854004,2019-07-26 14:49:41:096,-87.8114635506191,-175.10295523931114,0,-25.189743041992188,21.591209411621094,-23.39047622680664
-0.0028234098572283983,-0.08165617287158966,9.785263061523438,0.003039408795830215,-4.288736560552649e-05,-0.0024376537635875752,1.809952974319458,2019-07-26 14:49:41:106,-82.45554088677663,-175.19303703023155,0,-25.189743041992188,21.591209411621094,-23.39047622680664
-0.03156040608882904,-0.09602466970682144,9.804421424865723,0.0017075031578840923,-0.002706698832489855,-0.001372129253230677,1.8199503421783447,2019-07-26 14:49:41:116,-77.20859934781446,-175.2789120400729,0,-25.189743041992188,21.591209411621094,-23.39047622680664
0.01393983792513609,-0.03855068236589432,9.794842720031738,-0.001489070633260928,-0.004571366985688751,-0.0011057481256414525,1.82997727394104,2019-07-26 14:49:41:126,-79.2602227869803,-175.36798534862598,0,-25.189743041992188,21.591209411621094,-23.39047622680664
0.04028208553791046,-0.08405092358589172,9.746947288513184,-0.001489070633260928,-0.005903272623634875,0.0007589198975202821,1.840425729751587,2019-07-26 14:49:41:136,-81.2668192015231,-175.44987069705905,0,-25.189743041992188,21.591209411621094,-23.39047622680664
0.016334587708115578,-0.06728767603635788,9.761316299438477,0.0014411220302948675,-0.0037722233428467535,0.0004925387374217668,1.849966049194336,2019-07-26 14:49:41:146,-83.23754451060053,-175.53374626020778,0,-25.489622116088867,21.89108657836914,-23.990232467651367
0.03309783712029457,-0.04812967777252197,9.775684356689453,-0.0009563083130638975,-0.004837748113277977,0.0004925387374217668,1.859997272491455,2019-07-26 14:49:41:156,-85.16618900288435,-175.61689092876549,0,-25.489622116088867,21.89108657836914,-23.990232467651367
0.06662432849407196,-0.05531392991542816,9.785263061523438,0.0006419785825086126,-0.0037722233428467535,0.009815879145814057,1.8704259395599365,2019-07-26 14:49:41:166,-87.05285432307491,-175.6984514938225,0,-25.489622116088867,21.89108657836914,-23.990232467651367
0.0378873348236084,-0.06968242675065994,9.797237396240234,0.0033057899234194394,-0.004304985598025202,0.004221874686217364,1.8799867630004883,2019-07-26 14:49:41:176,-88.90505475339987,-175.7781070031006,0,-25.489622116088867,21.89108657836914,-23.990232467651367
0.021124087274074554,-0.01460318360477686,9.770895004272461,-0.00015716488153228781,-0.007235178261580997,0.0023572067930927925,1.889993667602539,2019-07-26 14:49:41:186,-90.72041091384045,-175.8607439165241,0,-25.489622116088867,21.89108657836914,-23.990232467651367
0.021124087274074554,-0.05531392991542816,9.734973907470703,0.001174740902705643,-0.0061696537512241,0.005553780584237813,1.8999836444854736,2019-07-26 14:49:41:196,-92.50005537759773,-175.93767699273636,0,-25.489622116088867,21.89108657836914,-23.990232467651367
0.011545088142156601,-0.0265769325196743,9.792448043823242,0.0027730276682409903,-0.0064360348788133235,0.0076848296049516086,1.9099993705749512,2019-07-26 14:49:41:206,-94.2450837525832,-176.0173729187582,0,-25.489622116088867,21.89108657836914,-23.990232467651367
0.0067555890418589115,-0.01460318360477686,9.742157936096191,0.0027730276682409903,-0.0013747930645065694,0.009815879145814057,1.9199750423431396,2019-07-26 14:49:41:216,-95.95861738904546,-176.09686103402942,0,-25.489622116088867,21.89108657836914,-23.990232467651367
-0.0028234098572283983,-0.036155931651592255,9.809210777282715,0.002240265413062541,-0.004837748113277977,0.008217591860130057,1.9300081729888916,2019-07-26 14:49:41:226,-90.43704948447285,-176.1719621568234,0,-25.489622116088867,21.89108657836914,-23.990232467651367
-0.019586658105254173,-0.08165617287158966,9.79005241394043,0.00010921627043890474,-0.0037722233428467535,0.008750354635457157,1.93996262550354,2019-07-26 14:49:41:236,-85.0284926390906,-176.23902640952977,0,-25.489622116088867,21.89108657836914,-23.990232467651367
-0.021981406956911087,-0.06489292532205582,9.775684356689453,0.001973884285473317,0.00022349378230200473,0.010348641400992505,1.9499852657318115,2019-07-26 14:49:41:246,-79.73062524025319,-176.30775002147655,0,-25.489622116088867,21.89108657836914,-23.990232467651367
-0.029165657237172127,-0.06010342761874199,9.79963207244873,-0.00015716488153228781,-0.008034321644348672,0.005820161711827037,1.9599783420562744,2019-07-26 14:49:41:256,-74.53491506123358,-176.37447875499558,0,-25.489622116088867,21.89108657836914,-23.990232467651367
-0.014797158539295197,-0.03136643022298813,9.835553169250488,0.002506646540651766,-0.00963260893003267,0.004754637201470138,1.9699666500091553,2019-07-26 14:49:41:266,-69.44053836554265,-176.44474060129082,0,-25.489622116088867,21.89108657836914,-23.990232467651367
-0.01719190739095211,-0.0265769325196743,9.701447486877441,-0.002021832888439377,-0.0016411741920957937,0.0015580632802879558,1.979978322982788,2019-07-26 14:49:41:276,-64.45283567709166,-176.51157000136135,0,-24.88986587524414,21.591209411621094,-23.990232467651367
-0.06508690118789673,-0.036155931651592255,9.768500328063965,0.002240265413062541,-0.005370510368456426,-0.001372129253230677,1.9899840354919434,2019-07-26 14:49:41:286,-59.56839675693352,-176.57835589353354,0,-24.88986587524414,21.591209411621094,-23.990232467651367
-0.05071840435266495,-0.03855068236589432,9.766105651855469,0.0009083597100978372,-0.005370510368456426,-0.0027040348911768,1.9999902248382568,2019-07-26 14:49:41:296,-54.77996246135735,-176.64277577543558,0,-24.88986587524414,21.591209411621094,-23.990232467651367
-0.0602974034845829,-0.04094542935490608,9.84034252166748,0.0014411220302948675,-0.0056368914960456505,-0.004568702784301372,2.009993553161621,2019-07-26 14:49:41:306,-50.08821864373665,-176.7059616175246,0,-24.88986587524414,21.591209411621094,-23.990232467651367
-0.007612909190356731,-0.04812967777252197,9.782868385314941,0.0017075031578840923,-0.005903272623634875,-0.0016385103808199016,2.019984483718872,2019-07-26 14:49:41:316,-45.48403433494118,-176.76716265544428,0,-24.88986587524414,21.591209411621094,-23.990232467651367
-0.019586658105254173,-0.06249817833304405,9.847526550292969,0.002240265413062541,-0.006968797133991773,-0.002171272635998351,2.0300025939941406,2019-07-26 14:49:41:326,-40.97271280633943,-176.8258070317314,0,-24.88986587524414,21.591209411621094,-23.990232467651367
-0.0004286601906642318,-0.03136643022298813,9.787657737731934,0.0003755974224100973,-0.006702416006402549,-0.005367846167069046,2.0399746894836426,2019-07-26 14:49:41:336,-36.54955584083316,-176.8858289058786,0,-24.88986587524414,21.591209411621094,-23.990232467651367
0.04746633395552635,-0.01460318360477686,9.780473709106445,0.002506646540651766,-0.007501559389170223,-0.006699752325163819,2.049982786178589,2019-07-26 14:49:41:346,-39.408787914910796,-176.94780998556334,0,-24.88986587524414,21.591209411621094,-23.990232467651367
0.0019660894758999348,0.0021600641775876284,9.876263618469238,0.0027730276682409903,-0.010165371185211118,-0.00909718247346684,2.0599892139434814,2019-07-26 14:49:41:356,-42.21467252572943,-169.81066246422688,0,-24.88986587524414,21.591209411621094,-23.990232467651367
-0.0004286601906642318,-0.06010342761874199,9.780473709106445,0.00010921627043890474,-0.005104129240867201,-0.004302321916786473,2.0700013637542725,2019-07-26 14:49:41:366,-37.76755985487713,-170.00746876843135,0,-24.88986587524414,21.591209411621094,-23.990232467651367
0.011545088142156601,-0.05531392991542816,9.794842720031738,0.00010921627043890474,-0.0064360348788133235,-0.00856442021828839,2.079986333847046,2019-07-26 14:49:41:376,-40.607249585294504,-170.200909422143,0,-24.88986587524414,21.591209411621094,-23.990232467651367
0.042676832526922226,-0.04812967777252197,9.852315902709961,-0.0009563083130638975,-0.002706698832489855,-0.004568702784301372,2.089987277984619,2019-07-26 14:49:41:386,-43.38862096254161,-170.39075633442104,0,-24.88986587524414,21.591209411621094,-23.990232467651367
0.035492584109306335,-0.03376118093729019,9.787657737731934,-0.0004235460253761578,-0.003239461087668304,-0.00616699006998537,2.0999865531921387,2019-07-26 14:49:41:396,-46.11487435337451,-170.57875074170303,0,-25.939437866210938,22.041025161743164,-24.14017105102539
0.035492584109306335,-0.04573493078351021,9.782868385314941,0.001973884285473317,-0.005104129240867201,-0.006433371197574595,2.109987497329712,2019-07-26 14:49:41:406,-48.785553231031265,-170.76292704602477,0,-25.939437866210938,22.041025161743164,-24.14017105102539
0.057045333087444305,-0.01939268223941326,9.730184555053711,0.0006419785825086126,-0.0037722233428467535,-0.008298039090699167,2.1200029850006104,2019-07-26 14:49:41:416,-51.40100268412468,-170.94574567675787,0,-25.939437866210938,22.041025161743164,-24.14017105102539
0.04507158324122429,-0.04094542935490608,9.816394805908203,0.0033057899234194394,-0.008034321644348672,-0.005634227814806921,2.1299870014190674,2019-07-26 14:49:41:426,-53.96321719185816,-171.12390426116804,0,-25.939437866210938,22.041025161743164,-24.14017105102539
0.05944008380174637,-0.005024184938520193,9.766105651855469,-0.00015716488153228781,-0.006702416006402549,0.0023572067930927925,2.1399855613708496,2019-07-26 14:49:41:436,-56.473215618057424,-171.30074842316765,0,-25.939437866210938,22.041025161743164,-24.14017105102539
0.057045333087444305,-0.036155931651592255,9.816394805908203,0.002240265413062541,-0.0024403177049006305,-0.0011057481256414525,2.1499853134155273,2019-07-26 14:49:41:446,-58.935721999910044,-171.47177069053055,0,-25.939437866210938,22.041025161743164,-24.14017105102539
0.05225583165884018,-0.04094542935490608,9.825974464416504,-0.0030873573987962753,-0.0056368914960456505,-0.0016385103808199016,2.1599860191345215,2019-07-26 14:49:41:456,-61.34774815643816,-171.6358265355309,0,-25.939437866210938,22.041025161743164,-24.14017105102539
0.0378873348236084,-0.036155931651592255,9.821184158325195,0.0003755974224100973,-0.006968797133991773,-0.001372129253230677,2.16998553276062,2019-07-26 14:49:41:466,-63.71245981905841,-171.79910231123844,0,-25.939437866210938,22.041025161743164,-24.14017105102539
0.049861084669828415,-0.06249817833304405,9.758920669555664,-0.00015716488153228781,-0.004837748113277977,0.002623587920682017,2.179988384246826,2019-07-26 14:49:41:476,-66.02963870335013,-171.95569340811093,0,-25.939437866210938,22.041025161743164,-24.14017105102539
0.0378873348236084,-0.04573493078351021,9.787657737731934,-0.002820976271207051,-0.0056368914960456505,0.0012916821526987312,2.189988613128662,2019-07-26 14:49:41:486,-68.30144501342234,-172.10964103186816,0,-25.939437866210938,22.041025161743164,-24.14017105102539
0.042676832526922226,0.014133812859654427,9.825974464416504,-0.004419263036742399,-0.005104129240867201,-0.0032367971463552496,2.2000067234039307,2019-07-26 14:49:41:496,-70.52756797490169,-165.0666106062949,0,-25.939437866210938,22.041025161743164,-24.14017105102539
0.06662432849407196,-0.08644567430019379,9.837947845458984,-0.005484787547099296,-0.008300702771937896,0.002090825535466405,2.209986448287964,2019-07-26 14:49:41:506,-72.70460500690578,-165.35213607989343,0,-25.939437866210938,22.041025161743164,-24.14017105102539
0.06183483079075813,-0.06968242675065994,9.883447647094727,0.00010921627043890474,-0.005104129240867201,-0.0016385103808199016,2.2199864387512207,2019-07-26 14:49:41:516,-74.84047773176391,-165.6370756341947,0,-25.939437866210938,22.041025161743164,-24.14017105102539
0.042676832526922226,-0.06968242675065994,9.806816101074219,-0.004152881909153174,-0.003239461087668304,-0.00030660471036448813,2.2299857139587402,2019-07-26 14:49:41:526,-76.93686264687905,-165.91386027568532,0,-25.63956069946289,21.741147994995117,-23.240537643432617
0.04028208553791046,-0.03136643022298813,9.727788925170898,0.0027730276682409903,-0.005104129240867201,0.000226157593577897,2.2399864196777344,2019-07-26 14:49:41:536,-78.99051410181696,-166.19344533650528,0,-25.63956069946289,21.741147994995117,-23.240537643432617
0.021124087274074554,-0.06489292532205582,9.770895004272461,-0.002288214016028602,-0.004304985598025202,0.002090825535466405,2.249987840652466,2019-07-26 14:49:41:546,-81.00580883602237,-166.460680987222,0,-25.63956069946289,21.741147994995117,-23.240537643432617
0.035492584109306335,-0.05531392991542816,9.833158493041992,-0.00015716488153228781,-0.005104129240867201,0.0004925387374217668,2.2599854469299316,2019-07-26 14:49:41:556,-82.9786912428283,-166.724933152283,0,-25.63956069946289,21.741147994995117,-23.240537643432617
0.049861084669828415,-0.06489292532205582,9.770895004272461,0.0027730276682409903,-0.004571366985688751,0.004221874686217364,2.270004987716675,2019-07-26 14:49:41:566,-84.910698005039,-166.98438415217433,0,-25.63956069946289,21.741147994995117,-23.240537643432617
0.06901907920837402,-0.04573493078351021,9.804421424865723,0.0027730276682409903,-0.0024403177049006305,0.008217591860130057,2.279986619949341,2019-07-26 14:49:41:576,-86.80304968725162,-167.2409053179835,0,-25.63956069946289,21.741147994995117,-23.240537643432617
0.042676832526922226,-0.0529191792011261,9.830763816833496,0.002506646540651766,-0.004837748113277977,0.0010253010251095067,2.289987802505493,2019-07-26 14:49:41:586,-88.65929742166034,-167.49132643194653,0,-25.63956069946289,21.741147994995117,-23.240537643432617
0.04028208553791046,-0.050524428486824036,9.763710975646973,0.003838552178597889,-0.0013747930645065694,0.0010253010251095067,2.299983501434326,2019-07-26 14:49:41:596,-90.48061219035425,-167.73772458363536,0,-25.63956069946289,21.741147994995117,-23.240537643432617
0.02591358684003353,-0.0792614221572876,9.787657737731934,0.005703220331796786,-0.0016411741920957937,0.0004925387374217668,2.3100197315216064,2019-07-26 14:49:41:606,-92.26704119704299,-167.976904509415,0,-25.63956069946289,21.741147994995117,-23.240537643432617
0.02591358684003353,-0.057708676904439926,9.821184158325195,-0.002021832888439377,0.00075625608624439,-0.0040359407891972475,2.3199846744537354,2019-07-26 14:49:41:616,-94.01909998415618,-168.20950189031828,0,-25.63956069946289,21.741147994995117,-23.240537643432617
0.030703086405992508,-0.043340180069208145,9.873868942260742,0.0027730276682409903,-0.004304985598025202,-0.00030660471036448813,2.329986572265625,2019-07-26 14:49:41:626,-95.73273703536312,-168.44183937060467,0,-25.63956069946289,21.741147994995117,-23.240537643432617
0.023518836125731468,-0.03136643022298813,9.854711532592773,-0.0033537385263855,-0.002706698832489855,-0.0027040348911768,2.340003490447998,2019-07-26 14:49:41:636,-97.41382512740468,-168.66746897050803,0,-25.63956069946289,21.741147994995117,-23.240537643432617
0.030703086405992508,-0.07447192817926407,9.804421424865723,0.002240265413062541,-0.004304985598025202,-0.002171272635998351,2.3499855995178223,2019-07-26 14:49:41:646,-99.05954721983709,-168.8866713262975,0,-25.039804458618164,22.041025161743164,-23.240537643432617
0.021124087274074554,-0.04094542935490608,9.814000129699707,0.0009083597100978372,-0.004038604470435978,-0.0032367971463552496,2.359990119934082,2019-07-26 14:49:41:656,-100.67362106393219,-169.10466727507156,0,-25.039804458618164,22.041025161743164,-23.240537643432617
-0.014797158539295197,-0.04573493078351021,9.780473709106445,0.0017075031578840923,-0.0056368914960456505,-0.002171272635998351,2.3699839115142822,2019-07-26 14:49:41:666,-95.05871918794398,-169.3181736645729,0,-25.039804458618164,22.041025161743164,-23.240537643432617
-0.02437615767121315,-0.024182181805372238,9.751736640930176,-0.0009563083130638975,-0.002173936447274243,0.0023572067930927925,2.3799867630004883,2019-07-26 14:49:41:676,-89.55918820262755,-169.5284314572246,0,-25.039804458618164,22.041025161743164,-23.240537643432617
0.04028208553791046,-0.036155931651592255,9.811605453491211,0.003838552178597889,-0.0011084119369173448,-0.0048350839118905965,2.389969825744629,2019-07-26 14:49:41:686,-91.36267852789318,-169.73579182017554,0,-25.039804458618164,22.041025161743164,-23.240537643432617
-0.029165657237172127,-0.03136643022298813,9.79963207244873,-0.00015716488153228781,-0.0064360348788133235,0.0050210183290593634,2.3999850749969482,2019-07-26 14:49:41:696,-85.93521608470154,-169.9373197943799,0,-25.039804458618164,22.041025161743164,-23.240537643432617
0.0019660894758999348,-0.07447192817926407,9.773289680480957,0.00010921627043890474,-0.004304985598025202,0.003689112431038915,2.4099864959716797,2019-07-26 14:49:41:706,-87.8138636525082,-170.12990308740942,0,-25.039804458618164,22.041025161743164,-23.240537643432617
-0.033955156803131104,-0.06010342761874199,9.866684913635254,0.0033057899234194394,-0.0064360348788133235,0.0012916821526987312,2.419987201690674,2019-07-26 14:49:41:716,-82.45791583182567,-170.32218103473832,0,-25.039804458618164,22.041025161743164,-23.240537643432617
-0.019586658105254173,-0.024182181805372238,9.77807903289795,0.0003755974224100973,-0.004304985598025202,0.002090825535466405,2.4300053119659424,2019-07-26 14:49:41:726,-77.20863129641961,-170.5131147336526,0,-25.039804458618164,22.041025161743164,-23.240537643432617
0.0067555890418589115,-0.00023468547442462295,9.787657737731934,0.003039408795830215,-0.008300702771937896,0.0018244444078771805,2.4399874210357666,2019-07-26 14:49:41:736,-79.25901524774066,-170.70452853315874,0,-25.039804458618164,22.041025161743164,-23.240537643432617
-0.0028234098572283983,-0.009813684038817883,9.77807903289795,0.0027730276682409903,-0.007235178261580997,0.007418448477362384,2.4499895572662354,2019-07-26 14:49:41:746,-74.07010241407589,-170.89084525854315,0,-25.039804458618164,22.041025161743164,-23.240537643432617
-0.0028234098572283983,-0.06010342761874199,9.775684356689453,-0.001489070633260928,-0.0061696537512241,0.0034227313034496903,2.460000514984131,2019-07-26 14:49:41:756,-68.98556328052364,-171.06514603035475,0,-25.039804458618164,22.041025161743164,-23.240537643432617
-0.0004286601906642318,-0.024182181805372238,9.768500328063965,0.0009083597100978372,-0.008034321644348672,-0.0008393669980522279,2.4699816703796387,2019-07-26 14:49:41:766,-64.00139954046912,-171.24151545267335,0,-25.039804458618164,22.041025161743164,-23.240537643432617
-0.02437615767121315,-0.043340180069208145,9.725394248962402,0.0006419785825086126,-0.00909984667485422,0.0004925387374217668,2.4799857139587402,2019-07-26 14:49:41:776,-59.119132099477696,-171.4119391429257,0,-26.239316940307617,21.14139175415039,-23.540414810180664
-0.029165657237172127,-0.07447192817926407,9.77807903289795,0.001174740902705643,-0.0035058422152575287,0.0018244444078771805,2.489989995956421,2019-07-26 14:49:41:786,-54.33819806930506,-171.57563288998657,0,-26.239316940307617,21.14139175415039,-23.540414810180664
-0.048323653638362885,0.0021600641775876284,9.763710975646973,0.002240265413062541,-0.007235178261580997,-0.005367846167069046,2.4999876022338867,2019-07-26 14:49:41:796,-49.653043985308464,-164.5456313524685,0,-26.239316940307617,21.14139175415039,-23.540414810180664
-0.03156040608882904,-0.0265769325196743,9.792448043823242,-0.002554595143617826,-0.002706698832489855,-0.0016385103808199016,2.5100033283233643,2019-07-26 14:49:41:806,-45.06215410446164,-164.85017203395086,0,-26.239316940307617,21.14139175415039,-23.540414810180664
-0.03874465450644493,-0.06489292532205582,9.775684356689453,0.0003755974224100973,-0.00909984667485422,0.0007589198975202821,2.5199856758117676,2019-07-26 14:49:41:816,-40.56035215422813,-165.14577241593156,0,-26.239316940307617,21.14139175415039,-23.540414810180664
0.03309783712029457,-0.057708676904439926,9.854711532592773,0.0009083597100978372,-0.006968797133991773,-0.0016385103808199016,2.52998948097229,2019-07-26 14:49:41:826,-43.34138201736849,-165.43665685918896,0,-26.239316940307617,21.14139175415039,-23.540414810180664
-0.021981406956911087,-0.04812967777252197,9.77807903289795,-0.002820976271207051,-0.004837748113277977,-0.002171272635998351,2.539987325668335,2019-07-26 14:49:41:836,-38.87441462084433,-165.72069970688474,0,-26.239316940307617,21.14139175415039,-23.540414810180664
0.04507158324122429,-0.036155931651592255,9.821184158325195,0.0009083597100978372,-0.004571366985688751,-0.004302321916786473,2.5500035285949707,2019-07-26 14:49:41:846,-41.68909653027592,-166.0025780011408,0,-26.239316940307617,21.14139175415039,-23.540414810180664
0.05225583165884018,-0.021787432953715324,9.828369140625,-0.000689927185474673,-0.007501559389170223,-0.0011057481256414525,2.5599863529205322,2019-07-26 14:49:41:856,-44.44501713046125,-166.27959946296122,0,-26.239316940307617,21.14139175415039,-23.540414810180664
0.030703086405992508,-0.06489292532205582,9.804421424865723,0.003039408795830215,-0.004571366985688751,-0.0019048915084091261,2.569990873336792,2019-07-26 14:49:41:866,-47.14996032506445,-166.54813046140768,0,-26.239316940307617,21.14139175415039,-23.540414810180664
0.07859808206558228,-0.04812967777252197,9.84034252166748,0.004104933306187114,-0.0037722233428467535,-0.0027040348911768,2.579989433288574,2019-07-26 14:49:41:876,-49.79569071175235,-166.81386774076321,0,-26.239316940307617,21.14139175415039,-23.540414810180664
0.06662432849407196,-0.05531392991542816,9.8187894821167,-0.004152881909153174,-0.007501559389170223,-0.0011057481256414525,2.5899882316589355,2019-07-26 14:49:41:886,-52.38778992194759,-167.06880340716836,0,-26.239316940307617,21.14139175415039,-23.540414810180664
0.01872933655977249,-0.0529191792011261,9.828369140625,-0.002820976271207051,-0.005104129240867201,-0.0005729858704630034,2.6000001430511475,2019-07-26 14:49:41:896,-54.93498104781207,-167.31967155030836,0,-26.539194107055664,20.841514587402344,-23.240537643432617
0.07380858063697815,-0.072077177464962,9.744552612304688,0.0009083597100978372,-0.0035058422152575287,0.0028899690482712416,2.6099841594696045,2019-07-26 14:49:41:906,-57.42563665626006,-167.56531154926358,0,-26.539194107055664,20.841514587402344,-23.240537643432617
0.07141382992267609,-0.06728767603635788,9.74934196472168,0.0049040769490291125,-0.007767940516759447,-0.002171272635998351,2.619987964630127,2019-07-26 14:49:41:916,-59.864366905584205,-167.8088512830283,0,-26.539194107055664,20.841514587402344,-23.240537643432617
0.035492584109306335,-0.06249817833304405,9.86907958984375,0.00010921627043890474,-4.288736560552649e-05,0.0018244444078771805,2.6299848556518555,2019-07-26 14:49:41:926,-62.26293440731643,-168.04547889047703,0,-26.539194107055664,20.841514587402344,-23.240537643432617
0.05225583165884018,-0.06968242675065994,9.758920669555664,0.0009083597100978372,-0.007235178261580997,-0.0019048915084091261,2.639984130859375,2019-07-26 14:49:41:936,-64.60747752593409,-168.27689718182268,0,-26.539194107055664,20.841514587402344,-23.240537643432617
0.05225583165884018,-0.06010342761874199,9.79963207244873,0.001973884285473317,-0.0064360348788133235,0.004488256073880914,2.649988889694214,2019-07-26 14:49:41:946,-66.90560197645912,-168.50544001967975,0,-26.539194107055664,20.841514587402344,-23.240537643432617
0.06183483079075813,-0.09123517572879791,9.797237396240234,-0.0012226895056717034,-0.004571366985688751,0.004221874686217364,2.6599886417388916,2019-07-26 14:49:41:956,-69.1576908846655,-168.72397385418273,0,-26.539194107055664,20.841514587402344,-23.240537643432617
0.0642295852303505,-0.057708676904439926,9.758920669555664,0.0017075031578840923,-0.004304985598025202,0.0023572067930927925,2.6699845790863037,2019-07-26 14:49:41:966,-71.36457892425763,-168.94367653768015,0,-26.539194107055664,20.841514587402344,-23.240537643432617
0.07141382992267609,-0.0265769325196743,9.821184158325195,-0.000689927185474673,-0.006968797133991773,0.006352923967005486,2.6800060272216797,2019-07-26 14:49:41:976,-73.52503371096533,-169.16131384854899,0,-26.539194107055664,20.841514587402344,-23.240537643432617
0.04507158324122429,-0.04094542935490608,9.809210777282715,-0.0009563083130638975,-0.005104129240867201,0.006885686222183935,2.6899828910827637,2019-07-26 14:49:41:986,-75.64640846406814,-169.37276861584255,0,-26.539194107055664,20.841514587402344,-23.240537643432617
0.04028208553791046,-0.07447192817926407,9.830763816833496,0.003838552178597889,-0.004837748113277977,0.0007589198975202821,2.699983596801758,2019-07-26 14:49:41:996,-77.72606828937884,-169.5787881392093,0,-26.539194107055664,20.841514587402344,-23.240537643432617
-0.0028234098572283983,-0.05531392991542816,9.770895004272461,0.002506646540651766,-0.005903272623634875,0.005820161711827037,2.7099876403808594,2019-07-26 14:49:42:006,-72.56856202890062,-169.7821333605494,0,-26.539194107055664,20.841514587402344,-23.240537643432617
0.0378873348236084,-0.0529191792011261,9.802026748657227,0.0017075031578840923,-0.006968797133991773,0.0015580632802879558,2.7200021743774414,2019-07-26 14:49:42:016,-74.70884289697351,-169.98126433884593,0,-26.539194107055664,20.841514587402344,-23.240537643432617
0.02591358684003353,0.0069495635107159615,9.754131317138672,0.0009083597100978372,-0.006968797133991773,0.0039554935586281394,2.729987859725952,2019-07-26 14:49:42:026,-76.8077143485409,-162.98296479945805,0,-25.789499282836914,20.69157600402832,-22.790719985961914
0.011545088142156601,-0.005024184938520193,9.758920669555664,0.0006419785825086126,-0.0064360348788133235,0.0018244444078771805,2.7399864196777344,2019-07-26 14:49:42:036,-78.86659110617674,-163.32307597001102,0,-25.789499282836914,20.69157600402832,-22.790719985961914
0.009150338359177113,-0.072077177464962,9.811605453491211,-0.0004235460253761578,-0.0008420308093281202,0.004221874686217364,2.7499887943267822,2019-07-26 14:49:42:046,-80.88771768795577,-163.6479586978652,0,-25.789499282836914,20.69157600402832,-22.790719985961914
-0.0004286601906642318,-0.04094542935490608,9.816394805908203,0.0009083597100978372,-0.002973079960079079,0.002090825535466405,2.7600042819976807,2019-07-26 14:49:42:056,-75.66834140795582,-163.9707306248551,0,-25.789499282836914,20.69157600402832,-22.790719985961914
0.0067555890418589115,-0.04573493078351021,9.785263061523438,-0.0038865007815639487,-0.004571366985688751,0.0034227313034496903,2.7699859142303467,2019-07-26 14:49:42:066,-77.75162135646156,-164.28378194795437,0,-25.789499282836914,20.69157600402832,-22.790719985961914
0.0067555890418589115,-0.043340180069208145,9.775684356689453,-0.0004235460253761578,-0.0037722233428467535,0.002623587920682017,2.779989242553711,2019-07-26 14:49:42:076,-79.79367822924469,-164.59278806294375,0,-25.789499282836914,20.69157600402832,-22.790719985961914
0.03309783712029457,-0.016997933387756348,9.811605453491211,-0.001489070633260928,-0.0005756496817388956,0.005820161711827037,2.7899909019470215,2019-07-26 14:49:42:086,-81.79361584141725,-164.8981108336408,0,-25.789499282836914,20.69157600402832,-22.790719985961914
0.0067555890418589115,-0.01460318360477686,9.821184158325195,0.0003755974224100973,-0.008034321644348672,-0.001372129253230677,2.8000738620758057,2019-07-26 14:49:42:096,-83.75240661031593,-165.19865739581195,0,-25.789499282836914,20.69157600402832,-22.790719985961914
0.049861084669828415,-0.04094542935490608,9.833158493041992,0.0027730276682409903,-0.0037722233428467535,-0.0019048915084091261,2.8099591732025146,2019-07-26 14:49:42:106,-85.66945411743941,-165.49145185823113,0,-25.789499282836914,20.69157600402832,-22.790719985961914
-0.01000765897333622,-0.021787432953715324,9.785263061523438,0.004371314693850663,-0.007501559389170223,-0.0008393669980522279,2.8199853897094727,2019-07-26 14:49:42:116,-80.35301383614208,-165.78153230248822,0,-25.789499282836914,20.69157600402832,-22.790719985961914
0.07620333135128021,-0.06010342761874199,9.821184158325195,0.0006419785825086126,-0.006702416006402549,-0.0008393669980522279,2.8300015926361084,2019-07-26 14:49:42:126,-82.33329299442323,-166.05925005369645,0,-25.789499282836914,20.69157600402832,-22.790719985961914
0.06183483079075813,-0.06010342761874199,9.842737197875977,0.001973884285473317,-0.002706698832489855,-4.022355432963424e-05,2.8399853706359863,2019-07-26 14:49:42:136,-84.27791092439564,-166.33217428663107,0,-25.789499282836914,20.69157600402832,-22.790719985961914
0.06183483079075813,-0.03376118093729019,9.763710975646973,0.0017075031578840923,-0.002706698832489855,-0.0008393669980522279,2.8499932289123535,2019-07-26 14:49:42:146,-86.18357457086974,-166.60252795793033,0,-25.789499282836914,22.190963745117188,-23.39047622680664
0.06901907920837402,-0.0792614221572876,9.8187894821167,0.001973884285473317,-0.002973079960079079,-0.0032367971463552496,2.8599867820739746,2019-07-26 14:49:42:156,-88.05017993959834,-166.8623349031291,0,-25.789499282836914,22.190963745117188,-23.39047622680664
0.049861084669828415,-0.024182181805372238,9.696657180786133,0.005170458076618337,-0.0037722233428467535,-0.0040359407891972475,2.869985580444336,2019-07-26 14:49:42:166,-89.88116614779668,-167.1251333052333,0,-25.789499282836914,22.190963745117188,-23.39047622680664
0.009150338359177113,-0.06249817833304405,9.787657737731934,0.002240265413062541,-0.004038604470435978,-0.005367846167069046,2.880000352859497,2019-07-26 14:49:42:176,-91.68020050458105,-167.37657336534303,0,-25.789499282836914,22.190963745117188,-23.39047622680664
0.02591358684003353,-0.05531392991542816,9.811605453491211,-0.002820976271207051,-0.005370510368456426,-0.0040359407891972475,2.8899669647216797,2019-07-26 14:49:42:186,-93.44056453972277,-167.62100306431427,0,-25.789499282836914,22.190963745117188,-23.39047622680664
0.04746633395552635,-0.072077177464962,9.811605453491211,0.001973884285473317,-0.007501559389170223,-0.003503178534018799,2.8999879360198975,2019-07-26 14:49:42:196,-95.16198866229539,-167.86127578493247,0,-25.789499282836914,22.190963745117188,-23.39047622680664
0.035492584109306335,-0.04573493078351021,9.792448043823242,0.001174740902705643,-0.004571366985688751,-0.0016385103808199016,2.910006523132324,2019-07-26 14:49:42:206,-96.85202396569807,-168.0993592324929,0,-25.789499282836914,22.190963745117188,-23.39047622680664
0.0378873348236084,-0.04094542935490608,9.751736640930176,0.0003755974224100973,-0.0037722233428467535,0.0015580632802879558,2.9199578762054443,2019-07-26 14:49:42:216,-98.50842361636185,-168.33277049631732,0,-25.789499282836914,22.190963745117188,-23.39047622680664
-0.005218159407377243,-0.10799842327833176,9.766105651855469,-0.006550312577604846,-0.007235178261580997,0.0015580632802879558,2.929988145828247,2019-07-26 14:49:42:226,-92.93479258191894,-168.54975437719517,0,-25.789499282836914,22.190963745117188,-23.39047622680664
-0.012402408756315708,-0.012208433821797371,9.823579788208008,-0.002021832888439377,-0.0056368914960456505,-0.001372129253230677,2.9399867057800293,2019-07-26 14:49:42:236,-87.47437881307694,-168.77620008984985,0,-25.789499282836914,22.190963745117188,-23.39047622680664
-0.0004286601906642318,-0.04573493078351021,9.794842720031738,-0.001489070633260928,-0.006968797133991773,0.005553780584237813,2.949984550476074,2019-07-26 14:49:42:246,-82.12102925976865,-168.99448958735834,0,-25.789499282836914,22.190963745117188,-23.39047622680664
0.049861084669828415,-0.06968242675065994,9.77807903289795,0.0003755974224100973,-0.003239461087668304,-0.0029704160187660244,2.9599859714508057,2019-07-26 14:49:42:256,-84.07094617846967,-169.20664461726415,0,-25.789499282836914,22.190963745117188,-23.39047622680664
0.016334587708115578,-0.08405092358589172,9.837947845458984,0.00010921627043890474,-0.006702416006402549,-0.0019048915084091261,2.969987154006958,2019-07-26 14:49:42:266,-85.9838607755997,-169.4127831168293,0,-25.789499282836914,22.190963745117188,-23.39047622680664
0.01872933655977249,-0.06010342761874199,9.746947288513184,-0.002554595143617826,-0.002173936447274243,-0.006966133452753044,2.9799861907958984,2019-07-26 14:49:42:276,-87.86076107333331,-169.61602712403945,0,-26.38925552368164,20.39169692993164,-23.990232467651367
-0.005218159407377243,-0.043340180069208145,9.782868385314941,-0.0004235460253761578,-0.006968797133991773,-0.002171272635998351,2.990006685256958,2019-07-26 14:49:42:286,-82.50023609100938,-169.81839165795387,0,-26.38925552368164,20.39169692993164,-23.990232467651367
0.0019660894758999348,-0.04812967777252197,9.72060489654541,-0.0033537385263855,-0.0056368914960456505,-0.0016385103808199016,2.9999849796295166,2019-07-26 14:49:42:296,-84.446841359472,-170.01447106159654,0,-26.38925552368164,20.39169692993164,-23.990232467651367
0.057045333087444305,-0.03855068236589432,9.794842720031738,-0.002021832888439377,-0.0064360348788133235,0.002623587920682017,3.009986400604248,2019-07-26 14:49:42:306,-86.34761643721679,-170.20853613491545,0,-26.38925552368164,20.39169692993164,-23.990232467651367
0.021124087274074554,-0.03376118093729019,9.806816101074219,0.0033057899234194394,-0.004837748113277977,0.0010253010251095067,3.0199859142303467,2019-07-26 14:49:42:316,-88.2154795292442,-170.40227657749756,0,-26.38925552368164,20.39169692993164,-23.990232467651367
0.021124087274074554,-0.03855068236589432,9.809210777282715,-0.00015716488153228781,0.0015553994690120636,-0.0040359407891972475,3.0299904346466064,2019-07-26 14:49:42:326,-90.0495759683515,-170.58963927656245,0,-26.38925552368164,20.39169692993164,-23.990232467651367
0.011545088142156601,-0.043340180069208145,9.770895004272461,0.0017075031578840923,-0.007235178261580997,0.0034227313034496903,3.040012836456299,2019-07-26 14:49:42:336,-91.84315881579302,-170.77372456297184,0,-26.38925552368164,20.39169692993164,-23.990232467651367
0.023518836125731468,-0.06728767603635788,9.835553169250488,-0.002021832888439377,-0.0056368914960456505,0.002090825535466405,3.0500032901763916,2019-07-26 14:49:42:346,-93.6003934387833,-170.94927650325445,0,-26.38925552368164,20.39169692993164,-23.990232467651367
0.01393983792513609,-0.03855068236589432,9.758920669555664,0.0017075031578840923,-0.0056368914960456505,0.000226157593577897,3.0599863529205322,2019-07-26 14:49:42:356,-95.3235889762372,-171.12672142108244,0,-26.38925552368164,20.39169692993164,-23.990232467651367
0.011545088142156601,-0.06489292532205582,9.849921226501465,0.0017075031578840923,0.00022349378230200473,-0.0024376537635875752,3.0699872970581055,2019-07-26 14:49:42:366,-97.01589957349364,-171.2975964699032,0,-26.38925552368164,20.39169692993164,-23.990232467651367
-0.0028234098572283983,-0.0026294351555407047,9.814000129699707,0.001174740902705643,-0.004571366985688751,-0.0019048915084091261,3.0799975395202637,2019-07-26 14:49:42:376,-91.47334180743097,-171.47199780986645,0,-26.38925552368164,20.39169692993164,-23.990232467651367
0.021124087274074554,-0.04094542935490608,9.739763259887695,0.00010921627043890474,-0.002973079960079079,-0.002171272635998351,3.0899853706359863,2019-07-26 14:49:42:386,-93.23972230704575,-171.6378017660589,0,-26.38925552368164,20.39169692993164,-23.990232467651367
0.035492584109306335,-0.050524428486824036,9.739763259887695,-0.0033537385263855,-0.0024403177049006305,0.0015580632802879558,3.099966049194336,2019-07-26 14:49:42:396,-94.9693844710652,-171.79722193559041,0,-26.239316940307617,21.741147994995117,-24.739927291870117
0.021124087274074554,-0.07686667889356613,9.722999572753906,0.001174740902705643,-0.002173936447274243,0.0015580632802879558,3.109987497329712,2019-07-26 14:49:42:406,-96.66628390087344,-171.95287950261041,0,-26.239316940307617,21.741147994995117,-24.739927291870117
0.009150338359177113,-0.01939268223941326,9.79963207244873,0.003838552178597889,-0.002173936447274243,-0.0059006089423961445,3.119988441467285,2019-07-26 14:49:42:416,-98.3306674548422,-172.1137097862193,0,-26.239316940307617,21.741147994995117,-24.739927291870117
0.021124087274074554,-0.06728767603635788,9.761316299438477,0.0033057899234194394,-0.0024403177049006305,-0.001372129253230677,3.129986047744751,2019-07-26 14:49:42:426,-99.96020437090934,-172.26539232854924,0,-26.239316940307617,21.741147994995117,-24.739927291870117
0.028308335691690445,-0.05531392991542816,9.794842720031738,-0.00015716488153228781,-0.005903272623634875,-0.0016385103808199016,3.1399850845336914,2019-07-26 14:49:42:436,-101.55437409128803,-172.41352503907493,0,-26.239316940307617,21.741147994995117,-24.739927291870117
0.05225583165884018,-0.01939268223941326,9.797237396240234,0.004637695821439887,-0.0024403177049006305,0.0015580632802879558,3.150008201599121,2019-07-26 14:49:42:446,-103.11580125892901,-172.56559639207984,0,-26.239316940307617,21.741147994995117,-24.739927291870117
0.057045333087444305,-0.050524428486824036,9.830763816833496,-0.002554595143617826,-0.0003092685216403804,-0.0029704160187660244,3.1600050926208496,2019-07-26 14:49:42:456,-104.64666226217068,-172.70696121834038,0,-26.239316940307617,21.741147994995117,-24.739927291870117
0.0378873348236084,-0.03136643022298813,9.823579788208008,-0.000689927185474673,-0.0005756496817388956,-0.0029704160187660244,3.169985294342041,2019-07-26 14:49:42:466,-106.14898691390607,-172.8487765020576,0,-26.239316940307617,21.741147994995117,-24.739927291870117
0.01872933655977249,-0.06249817833304405,9.761316299438477,0.003039408795830215,-0.006968797133991773,0.0018244444078771805,3.179989814758301,2019-07-26 14:49:42:476,-107.61989373605209,-172.98617158450432,0,-26.239316940307617,21.741147994995117,-24.739927291870117
0.009150338359177113,-0.036155931651592255,9.837947845458984,-0.004419263036742399,-0.004837748113277977,0.003689112431038915,3.1899919509887695,2019-07-26 14:49:42:486,-109.06371306893595,-173.11975482010175,0,-26.239316940307617,21.741147994995117,-24.739927291870117
0.021124087274074554,0.0069495635107159615,9.830763816833496,0.0014411220302948675,-0.003239461087668304,0.0028899690482712416,3.1999857425689697,2019-07-26 14:49:42:496,-110.47815867429176,-166.05897847988945,0,-26.239316940307617,21.741147994995117,-24.739927291870117
0.028308335691690445,-0.050524428486824036,9.85710620880127,0.00010921627043890474,-0.0035058422152575287,0.000226157593577897,3.209989309310913,2019-07-26 14:49:42:506,-111.86333536055186,-166.33198670521773,0,-26.239316940307617,21.741147994995117,-24.739927291870117
0.0019660894758999348,-0.024182181805372238,9.758920669555664,0.0027730276682409903,-0.007501559389170223,0.0010253010251095067,3.219985008239746,2019-07-26 14:49:42:516,-113.22162748673043,-166.60406382939766,0,-26.239316940307617,21.741147994995117,-24.739927291870117
0.016334587708115578,-0.06728767603635788,9.782868385314941,0.0017075031578840923,-0.008300702771937896,-0.0040359407891972475,3.230006217956543,2019-07-26 14:49:42:526,-114.55061086920175,-166.86506173416979,0,-25.189743041992188,22.490842819213867,-23.990232467651367
0.01872933655977249,-0.07447192817926407,9.8187894821167,-0.002820976271207051,0.00022349378230200473,-0.0011057481256414525,3.239982843399048,2019-07-26 14:49:42:536,-115.85753801911515,-167.11748904350333,0,-25.189743041992188,22.490842819213867,-23.990232467651367
0.01393983792513609,-0.06968242675065994,9.79963207244873,0.0027730276682409903,-0.007501559389170223,0.0004925387374217668,3.249945640563965,2019-07-26 14:49:42:546,-117.13456076599805,-167.3685423751677,0,-25.189743041992188,22.490842819213867,-23.990232467651367
-0.033955156803131104,-0.072077177464962,9.823579788208008,0.003838552178597889,-0.0019075553196850185,0.003156350175860466,3.259984016418457,2019-07-26 14:49:42:556,-111.19475518657586,-167.61492752554318,0,-25.189743041992188,22.490842819213867,-23.990232467651367
-0.007612909190356731,-0.043340180069208145,9.773289680480957,-0.002288214016028602,-0.006968797133991773,-0.0005729858704630034,3.2699875831604004,2019-07-26 14:49:42:566,-105.36783832845855,-167.85626209654737,0,-25.189743041992188,22.490842819213867,-23.990232467651367
-0.026770906522870064,-0.04812967777252197,9.780473709106445,0.0006419785825086126,-0.004837748113277977,-0.0011057481256414525,3.2800047397613525,2019-07-26 14:49:42:576,-99.6608970806781,-168.09385894196694,0,-25.189743041992188,22.490842819213867,-23.990232467651367
0.03309783712029457,-0.06728767603635788,9.830763816833496,-0.0012226895056717034,-0.004304985598025202,0.0028899690482712416,3.290034532546997,2019-07-26 14:49:42:586,-101.26139668395442,-168.32344996437635,0,-25.189743041992188,22.490842819213867,-23.990232467651367
0.0067555890418589115,-0.072077177464962,9.8187894821167,-0.00015716488153228781,-0.0024403177049006305,0.006619305094594711,3.300096273422241,2019-07-26 14:49:42:596,-102.83400163488893,-168.54848045542988,0,-25.189743041992188,22.490842819213867,-23.990232467651367
0.021124087274074554,-0.06010342761874199,9.828369140625,0.0006419785825086126,-0.002706698832489855,0.0012916821526987312,3.3100204467773438,2019-07-26 14:49:42:606,-104.3733504091782,-168.77086105262987,0,-25.189743041992188,22.490842819213867,-23.990232467651367
0.023518836125731468,-0.072077177464962,9.84034252166748,0.0006419785825086126,-0.004837748113277977,-0.0037695596616080236,3.3201050758361816,2019-07-26 14:49:42:616,-105.8804052418039,-168.9874140586599,0,-25.189743041992188,22.490842819213867,-23.990232467651367
-0.041139405220746994,-0.043340180069208145,9.804421424865723,-0.0012226895056717034,-0.003239461087668304,-0.002171272635998351,3.3300225734710693,2019-07-26 14:49:42:626,-100.16580143055121,-169.20191944717882,0,-25.189743041992188,22.490842819213867,-23.990232467651367
0.02591358684003353,-0.03855068236589432,9.85710620880127,0.0009083597100978372,-0.010431751792651692,0.003156350175860466,3.340017557144165,2019-07-26 14:49:42:636,-101.75361840728048,-169.4139092455764,0,-25.189743041992188,22.490842819213867,-23.990232467651367
0.004360839258879423,-0.057708676904439926,9.785263061523438,-0.0030873573987962753,-0.004837748113277977,0.0004925387374217668,3.3499982357025146,2019-07-26 14:49:42:646,-103.31532421705182,-169.61714289399853,0,-25.489622116088867,20.991453170776367,-23.990232467651367
-0.041139405220746994,-0.04573493078351021,9.811605453491211,-0.00015716488153228781,-0.00909984667485422,0.003156350175860466,3.3600051403045654,2019-07-26 14:49:42:656,-97.64870937248949,-169.81937029865304,0,-25.489622116088867,20.991453170776367,-23.990232467651367
0.0067555890418589115,-0.043340180069208145,9.794842720031738,0.0017075031578840923,-0.008833465027116346,0.003689112431038915,3.3700971603393555,2019-07-26 14:49:42:666,-99.2899392167864,-170.01888006636528,0,-25.489622116088867,20.991453170776367,-23.990232467651367
-0.041139405220746994,-0.07447192817926407,9.804421424865723,0.0003755974224100973,-0.007235178261580997,0.003156350175860466,3.3800220489501953,2019-07-26 14:49:42:676,-93.70491664380872,-170.21000785812907,0,-25.489622116088867,20.991453170776367,-23.990232467651367
0.035492584109306335,-0.0529191792011261,9.780473709106445,0.002506646540651766,-0.005903272623634875,-0.0029704160187660244,3.390101432800293,2019-07-26 14:49:42:686,-95.42331889721834,-170.40102621121775,0,-25.489622116088867,20.991453170776367,-23.990232467651367
0.0019660894758999348,-0.028971681371331215,9.758920669555664,0.001174740902705643,-0.0037722233428467535,0.0023572067930927925,3.4000086784362793,2019-07-26 14:49:42:696,-97.11252320440386,-170.59025727070556,0,-25.489622116088867,20.991453170776367,-23.990232467651367
0.0019660894758999348,-0.04812967777252197,9.837947845458984,-0.00015716488153228781,-0.003239461087668304,-0.0011057481256414525,3.4099926948547363,2019-07-26 14:49:42:706,-98.76822768627612,-170.77275796028403,0,-25.489622116088867,20.991453170776367,-23.990232467651367
-0.005218159407377243,-0.024182181805372238,9.833158493041992,0.0003755974224100973,-0.008300702771937896,-0.0027040348911768,3.419997453689575,2019-07-26 14:49:42:716,-93.18880818386764,-170.95469571318876,0,-25.489622116088867,20.991453170776367,-23.990232467651367
0.009150338359177113,-0.0529191792011261,9.804421424865723,0.0006419785825086126,-0.004837748113277977,-0.0016385103808199016,3.4299979209899902,2019-07-26 14:49:42:726,-94.92124603653953,-171.12977728820715,0,-25.489622116088867,20.991453170776367,-23.990232467651367
0.02591358684003353,-0.072077177464962,9.830763816833496,0.0014411220302948675,-0.005370510368456426,-0.0016385103808199016,3.4399964809417725,2019-07-26 14:49:42:736,-96.61678542503283,-171.2995893425344,0,-25.489622116088867,20.991453170776367,-23.990232467651367
-0.014797158539295197,-0.01939268223941326,9.833158493041992,-0.0017554517608501525,-0.0064360348788133235,-0.0008393669980522279,3.44999623298645,2019-07-26 14:49:42:746,-91.08256037961988,-171.47035195635956,0,-25.489622116088867,20.991453170776367,-23.990232467651367
0.01872933655977249,-0.028971681371331215,9.794842720031738,0.0027730276682409903,-0.008034321644348672,0.0015580632802879558,3.460012674331665,2019-07-26 14:49:42:756,-92.8541993194312,-171.63911509127,0,-25.489622116088867,20.991453170776367,-23.990232467651367
0.028308335691690445,-0.03136643022298813,9.905000686645508,-0.0030873573987962753,-0.0061696537512241,0.000226157593577897,3.4699947834014893,2019-07-26 14:49:42:766,-94.59038227896504,-171.80097355456772,0,-25.489622116088867,20.991453170776367,-23.990232467651367
0.04028208553791046,-0.0265769325196743,9.768500328063965,-0.001489070633260928,-0.0056368914960456505,0.0004925387374217668,3.479998826980591,2019-07-26 14:49:42:776,-96.29068289406968,-171.96099997594916,0,-24.440048217773438,21.741147994995117,-23.840293884277344
0.01872933655977249,-0.07447192817926407,9.7373685836792,0.0027730276682409903,-0.005104129240867201,-0.005101465039479822,3.4900026321411133,2019-07-26 14:49:42:786,-97.95979807599015,-172.1145737658582,0,-24.440048217773438,21.741147994995117,-23.840293884277344
0.05465058237314224,-0.024182181805372238,9.782868385314941,-0.0009563083130638975,-0.002173936447274243,-0.0008393669980522279,3.499979019165039,2019-07-26 14:49:42:796,-99.59298290898381,-172.26891402028966,0,-24.440048217773438,21.741147994995117,-23.840293884277344
0.07859808206558228,-0.036155931651592255,9.739763259887695,0.004371314693850663,-0.0061696537512241,-0.0008393669980522279,3.509989023208618,2019-07-26 14:49:42:806,-101.18840840753012,-172.421738836363,0,-24.440048217773438,21.741147994995117,-23.840293884277344
0.057045333087444305,-0.057708676904439926,9.780473709106445,-0.002021832888439377,-0.005104129240867201,0.0028899690482712416,3.519996404647827,2019-07-26 14:49:42:816,-102.75508860099367,-172.56540668688663,0,-24.440048217773438,21.741147994995117,-23.840293884277344
0.049861084669828415,-0.0792614221572876,9.785263061523438,-0.0012226895056717034,-0.004038604470435978,-0.001372129253230677,3.5299887657165527,2019-07-26 14:49:42:826,-104.29188189555435,-172.70413073313668,0,-24.440048217773438,21.741147994995117,-23.840293884277344
0.04507158324122429,-0.04812967777252197,9.806816101074219,-0.0012226895056717034,-0.0056368914960456505,-0.0029704160187660244,3.5400266647338867,2019-07-26 14:49:42:836,-105.79760062783697,-172.84373512372466,0,-24.440048217773438,21.741147994995117,-23.840293884277344
0.06662432849407196,-0.036155931651592255,9.785263061523438,0.0017075031578840923,-0.00856708389952712,0.0015580632802879558,3.549987554550171,2019-07-26 14:49:42:846,-107.26905501733444,-172.9835813654442,0,-24.440048217773438,21.741147994995117,-23.840293884277344
0.08578232675790787,-0.043340180069208145,9.775684356689453,-0.0009563083130638975,-0.004837748113277977,-0.0032367971463552496,3.5599920749664307,2019-07-26 14:49:42:856,-108.71090106721736,-173.11829218320767,0,-24.440048217773438,21.741147994995117,-23.840293884277344
0.10015082359313965,-0.06249817833304405,9.797237396240234,0.0006419785825086126,-0.007767940516759447,0.0034227313034496903,3.569988250732422,2019-07-26 14:49:42:866,-110.12060947965304,-173.24897678814,0,-24.440048217773438,21.741147994995117,-23.840293884277344
0.06662432849407196,-0.06489292532205582,9.814000129699707,-0.0012226895056717034,-0.008833465027116346,0.000226157593577897,3.5799922943115234,2019-07-26 14:49:42:876,-111.50545614518258,-173.37573343096608,0,-24.440048217773438,21.741147994995117,-23.840293884277344
0.057045333087444305,-0.057708676904439926,9.746947288513184,0.0017075031578840923,-0.005903272623634875,0.0028899690482712416,3.589991331100464,2019-07-26 14:49:42:886,-112.86532611192081,-173.50239289622684,0,-24.440048217773438,21.741147994995117,-23.840293884277344
0.06183483079075813,-0.050524428486824036,9.7373685836792,-0.000689927185474673,-0.0024403177049006305,0.0010253010251095067,3.5999908447265625,2019-07-26 14:49:42:896,-114.19937265612465,-173.62601188814364,0,-25.189743041992188,21.591209411621094,-23.990232467651367
0.07141382992267609,-0.036155931651592255,9.72060489654541,-0.002288214016028602,-0.0064360348788133235,0.0023572067930927925,3.609989643096924,2019-07-26 14:49:42:906,-115.50335332924247,-173.74794474562208,0,-25.189743041992188,21.591209411621094,-23.990232467651367
0.01393983792513609,-0.06010342761874199,9.823579788208008,-0.0030873573987962753,-0.0024403177049006305,-0.00030660471036448813,3.6200053691864014,2019-07-26 14:49:42:916,-116.79028779882435,-173.8642386307311,0,-25.189743041992188,21.591209411621094,-23.990232467651367
0.01872933655977249,-0.0265769325196743,9.751736640930176,0.00010921627043890474,-0.004571366985688751,0.0018244444078771805,3.6299893856048584,2019-07-26 14:49:42:926,-118.04971846865783,-173.98389206720745,0,-25.189743041992188,21.591209411621094,-23.990232467651367
0.028308335691690445,-0.06249817833304405,9.761316299438477,-0.0017554517608501525,-0.0005756496817388956,0.0010253010251095067,3.639991283416748,2019-07-26 14:49:42:936,-119.28507760467446,-174.095891572144,0,-25.189743041992188,21.591209411621094,-23.990232467651367
0.030703086405992508,-0.05531392991542816,9.787657737731934,0.004371314693850663,-0.0011084119369173448,-0.004568702784301372,3.6499924659729004,2019-07-26 14:49:42:946,-120.49515897495583,-174.20995256435526,0,-25.189743041992188,21.591209411621094,-23.990232467651367
0.02591358684003353,-0.0529191792011261,9.770895004272461,-0.0036201196539747244,-0.0024403177049006305,0.0034227313034496903,3.659992218017578,2019-07-26 14:49:42:956,-121.68084649574034,-174.31751465166477,0,-25.189743041992188,21.591209411621094,-23.990232467651367
0.03309783712029457,-0.08405092358589172,9.773289680480957,-0.002021832888439377,-0.0061696537512241,-0.0024376537635875752,3.6699914932250977,2019-07-26 14:49:42:966,-122.83988486704831,-174.42017447923138,0,-25.189743041992188,21.591209411621094,-23.990232467651367
0.035492584109306335,-0.036155931651592255,9.821184158325195,-0.0017554517608501525,-0.004038604470435978,0.002090825535466405,3.679988145828247,2019-07-26 14:49:42:976,-123.97667907410492,-174.52656705505333,0,-25.189743041992188,21.591209411621094,-23.990232467651367
0.0067555890418589115,-0.050524428486824036,9.77807903289795,0.0017075031578840923,-0.00909984667485422,-0.006699752325163819,3.6899921894073486,2019-07-26 14:49:42:986,-125.09124217210542,-174.63107384095142,0,-25.189743041992188,21.591209411621094,-23.990232467651367
0.035492584109306335,-0.057708676904439926,9.780473709106445,0.0006419785825086126,-0.003239461087668304,0.0012916821526987312,3.699993133544922,2019-07-26 14:49:42:996,-126.18343978296994,-174.7320515899153,0,-25.189743041992188,21.591209411621094,-23.990232467651367
0.04028208553791046,-0.024182181805372238,9.756525993347168,-0.002021832888439377,-4.288736560552649e-05,-0.0008393669980522279,3.7100112438201904,2019-07-26 14:49:43:006,-127.2550157104937,-174.83343302550185,0,-25.189743041992188,21.591209411621094,-23.990232467651367
0.028308335691690445,-0.0265769325196743,9.780473709106445,0.0035721710510086637,0.002620923979368962,0.0034227313034496903,3.719989538192749,2019-07-26 14:49:43:016,-128.30806714974165,-174.93565193888182,0,-25.189743041992188,21.591209411621094,-23.990232467651367
0.023518836125731468,-0.043340180069208145,9.763710975646973,0.004371314693850663,-0.004837748113277977,-0.0040359407891972475,3.7299954891204834,2019-07-26 14:49:43:026,-129.33642752405441,-175.03430827160275,0,-25.039804458618164,21.441268920898438,-23.840293884277344
0.009150338359177113,-0.05531392991542816,9.761316299438477,-0.0017554517608501525,-0.007235178261580997,0.0015580632802879558,3.7399961948394775,2019-07-26 14:49:43:036,-130.34456195371834,-175.12614292364216,0,-25.039804458618164,21.441268920898438,-23.840293884277344
-0.026770906522870064,-0.050524428486824036,9.806816101074219,0.0027730276682409903,-0.004571366985688751,-0.002171272635998351,3.749990940093994,2019-07-26 14:49:43:046,-124.13823339007935,-175.21927262701286,0,-25.039804458618164,21.441268920898438,-23.840293884277344
0.01393983792513609,-0.009813684038817883,9.79005241394043,-0.0009563083130638975,-0.007501559389170223,0.0012916821526987312,3.7599947452545166,2019-07-26 14:49:43:056,-125.24962336148724,-175.31320132306905,0,-25.039804458618164,21.441268920898438,-23.840293884277344
0.03309783712029457,-0.04094542935490608,9.785263061523438,0.0009083597100978372,-0.0037722233428467535,0.0018244444078771805,3.769993782043457,2019-07-26 14:49:43:066,-126.33863705076163,-175.40265235198453,0,-25.039804458618164,21.441268920898438,-23.840293884277344
-0.029165657237172127,-0.0529191792011261,9.811605453491211,0.006235982586975235,-0.0061696537512241,-0.002171272635998351,3.7800076007843018,2019-07-26 14:49:43:076,-120.2118015715452,-175.491925170194,0,-25.039804458618164,21.441268920898438,-23.840293884277344
0.011545088142156601,-0.08165617287158966,9.806816101074219,0.0006419785825086126,-0.005104129240867201,-0.001372129253230677,3.789994716644287,2019-07-26 14:49:43:086,-121.40335424090806,-175.5729054596679,0,-25.039804458618164,21.441268920898438,-23.840293884277344
-0.014797158539295197,-0.050524428486824036,9.739763259887695,-0.0004235460253761578,-0.009366227282294795,-0.0032367971463552496,3.799997091293335,2019-07-26 14:49:43:096,-115.37176771701024,-175.6552651594966,0,-25.039804458618164,21.441268920898438,-23.840293884277344
-0.007612909190356731,-0.04094542935490608,9.833158493041992,-0.000689927185474673,-0.004571366985688751,-0.0005729858704630034,3.809994697570801,2019-07-26 14:49:43:106,-109.46265333750189,-175.7370009725807,0,-25.039804458618164,21.441268920898438,-23.840293884277344
0.028308335691690445,-0.03855068236589432,9.766105651855469,0.005703220331796786,-0.0035058422152575287,0.0034227313034496903,3.819995880126953,2019-07-26 14:49:43:116,-110.8681099352844,-175.82094032362897,0,-25.039804458618164,21.441268920898438,-23.840293884277344
0.049861084669828415,-0.050524428486824036,9.74934196472168,0.0014411220302948675,-0.002706698832489855,0.006086542839416261,3.8299927711486816,2019-07-26 14:49:43:126,-112.24336789341929,-175.89939197982298,0,-25.039804458618164,21.441268920898438,-23.840293884277344
0.04507158324122429,0.004554813727736473,9.780473709106445,0.0014411220302948675,-0.004038604470435978,-0.0016385103808199016,3.8399932384490967,2019-07-26 14:49:43:136,-113.59095204672676,-168.7827470244716,0,-25.039804458618164,21.441268920898438,-23.840293884277344
0.04507158324122429,-0.04094542935490608,9.74934196472168,0.0009083597100978372,-0.004304985598025202,0.004488256073880914,3.849996328353882,2019-07-26 14:49:43:146,-114.91141744118215,-169.0027896795166,0,-25.489622116088867,21.591209411621094,-23.990232467651367
0.035492584109306335,-0.057708676904439926,9.780473709106445,-0.0004235460253761578,-0.004038604470435978,0.0010253010251095067,3.8599979877471924,2019-07-26 14:49:43:156,-116.20676262418156,-169.2157347475947,0,-25.489622116088867,21.591209411621094,-23.990232467651367
0.09536132961511612,-0.016997933387756348,9.787657737731934,0.0017075031578840923,-0.008034321644348672,0.0018244444078771805,3.8700101375579834,2019-07-26 14:49:43:166,-117.466946306483,-169.4303899027775,0,-25.489622116088867,21.591209411621094,-23.990232467651367
0.028308335691690445,-0.08165617287158966,9.775684356689453,-0.0009563083130638975,-0.0056368914960456505,-0.0032367971463552496,3.8799962997436523,2019-07-26 14:49:43:176,-118.7111283308492,-169.63167428552802,0,-25.489622116088867,21.591209411621094,-23.990232467651367
0.021124087274074554,-0.09602466970682144,9.859500885009766,0.0014411220302948675,-0.010698133440389567,0.000226157593577897,3.8899967670440674,2019-07-26 14:49:43:186,-119.92844336336812,-169.82868995902686,0,-25.489622116088867,21.591209411621094,-23.990232467651367
0.01872933655977249,-0.03136643022298813,9.806816101074219,0.0014411220302948675,-0.005104129240867201,-0.0040359407891972475,3.899995803833008,2019-07-26 14:49:43:196,-121.12482031097598,-170.02926014986045,0,-25.489622116088867,21.591209411621094,-23.990232467651367
0.030703086405992508,-0.04573493078351021,9.859500885009766,-0.002021832888439377,-0.003239461087668304,0.0018244444078771805,3.9099955558776855,2019-07-26 14:49:43:206,-122.2969365574423,-170.2222242371211,0,-25.489622116088867,21.591209411621094,-23.990232467651367
0.04028208553791046,-0.028971681371331215,9.782868385314941,0.002506646540651766,-0.008300702771937896,0.0010253010251095067,3.9199938774108887,2019-07-26 14:49:43:216,-123.44161936273898,-170.41579340885042,0,-25.489622116088867,21.591209411621094,-23.990232467651367
-0.021981406956911087,-0.057708676904439926,9.821184158325195,-0.0036201196539747244,-0.007767940516759447,-0.00030660471036448813,3.929997444152832,2019-07-26 14:49:43:226,-117.37098847287388,-170.59871087103605,0,-25.489622116088867,21.591209411621094,-23.990232467651367
-0.029165657237172127,-0.057708676904439926,9.792448043823242,-0.004152881909153174,-0.0016411741920957937,-0.0011057481256414525,3.9399917125701904,2019-07-26 14:49:43:236,-111.42606067952272,-170.77765314182437,0,-25.489622116088867,21.591209411621094,-23.990232467651367
0.021124087274074554,-0.06249817833304405,9.797237396240234,0.005170458076618337,0.00022349378230200473,0.0015580632802879558,3.9500062465667725,2019-07-26 14:49:43:246,-112.7951944041547,-170.9576976200277,0,-25.489622116088867,21.591209411621094,-23.990232467651367
0.011545088142156601,-0.050524428486824036,9.792448043823242,-0.0012226895056717034,-0.006702416006402549,0.0023572067930927925,3.959993839263916,2019-07-26 14:49:43:256,-114.13418077846283,-171.13194564765374,0,-25.489622116088867,21.591209411621094,-23.990232467651367
-0.012402408756315708,-0.06728767603635788,9.809210777282715,0.001174740902705643,-0.002173936447274243,-0.004568702784301372,3.9699971675872803,2019-07-26 14:49:43:266,-108.25172494741521,-171.3021061220272,0,-25.489622116088867,21.591209411621094,-23.990232467651367
0.05465058237314224,-0.05531392991542816,9.758920669555664,-0.002288214016028602,-0.0056368914960456505,0.000226157593577897,3.979994773864746,2019-07-26 14:49:43:276,-109.6771089653975,-171.4682844549112,0,-24.440048217773438,21.441268920898438,-23.840293884277344
0.009150338359177113,-0.04094542935490608,9.787657737731934,-0.0009563083130638975,-0.005903272623634875,0.000226157593577897,3.9899935722351074,2019-07-26 14:49:43:286,-111.07918120539856,-171.63358809941306,0,-24.440048217773438,21.441268920898438,-23.840293884277344
0.0067555890418589115,-0.05531392991542816,9.768500328063965,0.0035721710510086637,-0.003239461087668304,-0.0059006089423961445,3.9999938011169434,2019-07-26 14:49:43:296,-112.4549861074404,-171.7964334986729,0,-24.440048217773438,21.441268920898438,-23.840293884277344
0.03309783712029457,-0.050524428486824036,9.816394805908203,0.00010921627043890474,-0.0016411741920957937,-0.0005729858704630034,4.009993553161621,2019-07-26 14:49:43:306,-113.80110123392987,-171.95466824135872,0,-24.440048217773438,21.441268920898438,-23.840293884277344
0.02591358684003353,-0.06728767603635788,9.823579788208008,0.002240265413062541,-0.0024403177049006305,0.003689112431038915,4.019994735717773,2019-07-26 14:49:43:316,-115.12068601241764,-172.1089839807993,0,-24.440048217773438,21.441268920898438,-23.840293884277344
-0.026770906522870064,-0.03376118093729019,9.806816101074219,0.001174740902705643,-0.003239461087668304,0.0015580632802879558,4.030005216598511,2019-07-26 14:49:43:326,-109.21957957573439,-172.2635196669541,0,-24.440048217773438,21.441268920898438,-23.840293884277344
0.01872933655977249,-0.072077177464962,9.79005241394043,0.001973884285473317,-0.0061696537512241,0.0007589198975202821,4.039995193481445,2019-07-26 14:49:43:336,-110.62953495734125,-172.41092008881492,0,-24.440048217773438,21.441268920898438,-23.840293884277344
-0.01719190739095211,-0.06489292532205582,9.871474266052246,0.003039408795830215,-0.005370510368456426,0.0028899690482712416,4.049995422363281,2019-07-26 14:49:43:346,-104.81592435020957,-172.5568754585954,0,-24.440048217773438,21.441268920898438,-23.840293884277344
0.0067555890418589115,-0.057708676904439926,9.811605453491211,0.001973884285473317,-0.0024403177049006305,0.0007589198975202821,4.059997320175171,2019-07-26 14:49:43:356,-106.31744637044652,-172.70010666746379,0,-24.440048217773438,21.441268920898438,-23.840293884277344
-0.005218159407377243,-0.021787432953715324,9.852315902709961,0.002506646540651766,-0.004571366985688751,0.002090825535466405,4.06999135017395,2019-07-26 14:49:43:366,-100.58913907929757,-172.84497709635733,0,-24.440048217773438,21.441268920898438,-23.840293884277344
0.06183483079075813,-0.072077177464962,9.825974464416504,-0.0004235460253761578,-0.0016411741920957937,0.0012916821526987312,4.079994201660156,2019-07-26 14:49:43:376,-102.16922336933978,-172.9794340997807,0,-24.440048217773438,21.441268920898438,-23.840293884277344
-0.007612909190356731,-0.06010342761874199,9.763710975646973,0.005436839204207561,-0.0037722233428467535,-0.002171272635998351,4.089997291564941,2019-07-26 14:49:43:386,-96.52461363628188,-173.11584520365233,0,-24.440048217773438,21.441268920898438,-23.840293884277344
0.021124087274074554,-0.08884042501449585,9.77807903289795,0.002240265413062541,-0.0064360348788133235,0.00715206734977316,4.100008010864258,2019-07-26 14:49:43:396,-98.18802808840034,-173.24437642650724,0,-26.08937644958496,22.490842819213867,-23.690353393554688
0.06662432849407196,-0.10081417113542557,9.84034252166748,0.004104933306187114,-0.0011084119369173448,0.003156350175860466,4.109994888305664,2019-07-26 14:49:43:406,-99.81588763488453,-173.3700513093657,0,-26.08937644958496,22.490842819213867,-23.690353393554688
0.02591358684003353,-0.06968242675065994,9.72060489654541,0.009698937245635154,-0.006968797133991773,0.00715206734977316,4.1199963092803955,2019-07-26 14:49:43:416,-101.41260153455744,-173.49988260999996,0,-26.08937644958496,22.490842819213867,-23.690353393554688
0.035492584109306335,-0.03136643022298813,9.72060489654541,0.001174740902705643,-0.007767940516759447,0.0034227313034496903,4.12999701499939,2019-07-26 14:49:43:426,-102.97580347573762,-173.62684699425694,0,-26.08937644958496,22.490842819213867,-23.690353393554688
0.02591358684003353,-0.08405092358589172,9.756525993347168,-0.0004235460253761578,-0.005104129240867201,0.005553780584237813,4.139995813369751,2019-07-26 14:49:43:436,-104.510378214522,-173.74420062562308,0,-26.08937644958496,22.490842819213867,-23.690353393554688
0.028308335691690445,-0.0792614221572876,9.773289680480957,0.0003755974224100973,-0.002173936447274243,0.0050210183290593634,4.149995565414429,2019-07-26 14:49:43:446,-106.0156308826666,-173.86023432860244,0,-26.08937644958496,22.490842819213867,-23.690353393554688
0.049861084669828415,-0.11518266797065735,9.814000129699707,-0.004952025291920847,-0.0024403177049006305,0.0004925387374217668,4.159994840621948,2019-07-26 14:49:43:456,-107.4881262317722,-173.9668007907167,0,-26.08937644958496,22.490842819213867,-23.690353393554688
-0.012402408756315708,-0.03855068236589432,9.780473709106445,-0.00015716488153228781,-0.0037722233428467535,-0.001372129253230677,4.169994831085205,2019-07-26 14:49:43:466,-101.73769872106499,-174.08285981346322,0,-26.08937644958496,22.490842819213867,-23.690353393554688
0.04028208553791046,0.028502311557531357,9.703842163085938,-0.002554595143617826,-0.005903272623634875,0.0010253010251095067,4.179994583129883,2019-07-26 14:49:43:476,-103.29487331133531,-167.0031340466629,0,-26.08937644958496,22.490842819213867,-23.690353393554688
0.07620333135128021,-0.009813684038817883,9.77807903289795,-0.0009563083130638975,-0.004837748113277977,0.0050210183290593634,4.190004587173462,2019-07-26 14:49:43:486,-104.81732647561435,-167.26138377489352,0,-26.08937644958496,22.490842819213867,-23.690353393554688
0.05225583165884018,-0.072077177464962,9.770895004272461,-0.000689927185474673,-0.004837748113277977,-0.005367846167069046,4.1999945640563965,2019-07-26 14:49:43:496,-106.31213785437207,-167.50731614693112,0,-26.08937644958496,22.490842819213867,-23.690353393554688
0.0642295852303505,-0.05531392991542816,9.806816101074219,-0.0036201196539747244,-0.002706698832489855,0.005553780584237813,4.209993362426758,2019-07-26 14:49:43:506,-107.77687042367454,-167.74867407313357,0,-26.08937644958496,22.490842819213867,-23.690353393554688
0.07859808206558228,0.018923312425613403,9.763710975646973,-0.0012226895056717034,-0.004304985598025202,-0.0016385103808199016,4.2199931144714355,2019-07-26 14:49:43:516,-109.20969138583905,-160.79523499743084,0,-26.08937644958496,22.490842819213867,-23.690353393554688
0.09296657890081406,-0.05531392991542816,9.713420867919922,0.002506646540651766,-0.0035058422152575287,-0.0016385103808199016,4.2299933433532715,2019-07-26 14:49:43:526,-110.61256183169186,-161.17421236168474,0,-25.489622116088867,22.790719985961914,-23.39047622680664
0.07141382992267609,-0.06968242675065994,9.766105651855469,-0.006550312577604846,-0.005104129240867201,-0.0037695596616080236,4.239992618560791,2019-07-26 14:49:43:536,-111.98906557869259,-161.53887427225428,0,-25.489622116088867,22.790719985961914,-23.39047622680664
0.0833875760436058,-0.05531392991542816,9.770895004272461,-0.0017554517608501525,-0.009366227282294795,-0.008298039090699167,4.249994516372681,2019-07-26 14:49:43:546,-113.33424481546976,-161.9006238523476,0,-25.489622116088867,22.790719985961914,-23.39047622680664
0.06662432849407196,-0.072077177464962,9.830763816833496,0.003838552178597889,-0.0019075553196850185,-0.007498895707931493,4.260008811950684,2019-07-26 14:49:43:556,-114.6587214024119,-162.25636832687067,0,-25.489622116088867,22.790719985961914,-23.39047622680664
0.05944008380174637,-0.036155931651592255,9.802026748657227,-0.004419263036742399,-0.008300702771937896,0.0007589198975202821,4.2699925899505615,2019-07-26 14:49:43:566,-115.95394488549698,-162.60453674986852,0,-25.489622116088867,22.790719985961914,-23.39047622680664
0.057045333087444305,-0.072077177464962,9.782868385314941,0.001174740902705643,-0.0035058422152575287,-0.003503178534018799,4.279994964599609,2019-07-26 14:49:43:576,-117.22621506941016,-162.94466318464646,0,-25.489622116088867,22.790719985961914,-23.39047622680664
0.011545088142156601,-0.050524428486824036,9.787657737731934,-0.002554595143617826,-0.0011084119369173448,-0.0037695596616080236,4.289997816085815,2019-07-26 14:49:43:586,-118.47971654804168,-163.27841988336883,0,-25.489622116088867,22.790719985961914,-23.39047622680664
0.042676832526922226,-0.021787432953715324,9.792448043823242,0.0009083597100978372,-0.0035058422152575287,-0.0037695596616080236,4.301045656204224,2019-07-26 14:49:43:597,-119.70295339563992,-163.61086540418285,0,-25.489622116088867,22.790719985961914,-23.39047622680664
0.08817707747220993,-0.11039317399263382,9.768500328063965,0.0035721710510086637,-0.0016411741920957937,-0.008298039090699167,4.309995174407959,2019-07-26 14:49:43:606,-120.89772608768573,-163.92749379807702,0,-25.489622116088867,22.790719985961914,-23.39047622680664
0.05225583165884018,0.0021600641775876284,9.802026748657227,0.004637695821439887,0.0004898749261458747,-0.0016385103808199016,4.31998610496521,2019-07-26 14:49:43:616,-122.07393741897968,-157.05179814469702,0,-25.489622116088867,22.790719985961914,-23.39047622680664
0.04028208553791046,-0.043340180069208145,9.794842720031738,0.0014411220302948675,-0.0016411741920957937,-0.001372129253230677,4.329992294311523,2019-07-26 14:49:43:626,-123.22682393887833,-157.50650146116294,0,-25.489622116088867,22.790719985961914,-23.39047622680664
0.0378873348236084,-0.036155931651592255,9.814000129699707,-0.00015716488153228781,-0.002173936447274243,-0.0008393669980522279,4.339982509613037,2019-07-26 14:49:43:636,-124.35664416174097,-157.95206160160373,0,-25.489622116088867,22.790719985961914,-23.39047622680664
0.023518836125731468,-0.06489292532205582,9.797237396240234,-0.0004235460253761578,-0.004038604470435978,-0.003503178534018799,4.350005149841309,2019-07-26 14:49:43:646,-125.464487642036,-158.38519204169896,0,-26.08937644958496,21.89108657836914,-24.589988708496094
-0.021981406956911087,-0.06728767603635788,9.751736640930176,-0.000689927185474673,-0.0003092685216403804,-0.00030660471036448813,4.359997272491455,2019-07-26 14:49:43:656,-119.35760737813575,-158.80919433930222,0,-26.08937644958496,21.89108657836914,-24.589988708496094
-0.01000765897333622,-0.021787432953715324,9.814000129699707,0.002240265413062541,-0.004837748113277977,0.005287399456648588,4.3699963092803955,2019-07-26 14:49:43:666,-113.36890763067781,-159.23172426772476,0,-26.08937644958496,21.89108657836914,-24.589988708496094
-0.0028234098572283983,-0.04094542935490608,9.751736640930176,-0.0017554517608501525,-0.0019075553196850185,0.000226157593577897,4.379992961883545,2019-07-26 14:49:43:676,-107.50079052258755,-159.6412930055267,0,-26.08937644958496,21.89108657836914,-24.589988708496094
0.009150338359177113,-0.0265769325196743,9.74934196472168,0.0009083597100978372,-0.0061696537512241,0.004488256073880914,4.3899986743927,2019-07-26 14:49:43:686,-108.94623297124645,-160.04585369475686,0,-26.08937644958496,21.89108657836914,-24.589988708496094
-0.01000765897333622,-0.07686667889356613,9.830763816833496,0.0006419785825086126,-0.0024403177049006305,0.0007589198975202821,4.399996042251587,2019-07-26 14:49:43:696,-103.16710497225431,-160.43633727205642,0,-26.08937644958496,21.89108657836914,-24.589988708496094
-0.005218159407377243,-0.06249817833304405,9.794842720031738,0.0033057899234194394,-0.0013747930645065694,0.003156350175860466,4.40999436378479,2019-07-26 14:49:43:706,-97.50360153937885,-160.8221547408541,0,-26.08937644958496,21.89108657836914,-24.589988708496094
-0.005218159407377243,-0.057708676904439926,9.787657737731934,0.002506646540651766,-0.0024403177049006305,0.006619305094594711,4.420008182525635,2019-07-26 14:49:43:716,-91.95276830961038,-161.20036475385174,0,-26.08937644958496,21.89108657836914,-24.589988708496094
-0.041139405220746994,-0.005024184938520193,9.782868385314941,-0.0030873573987962753,-0.002973079960079079,0.002623587920682017,4.429993391036987,2019-07-26 14:49:43:726,-86.51686486521788,-161.574037968478,0,-26.08937644958496,21.89108657836914,-24.589988708496094
-0.055507902055978775,-0.021787432953715324,9.79963207244873,0.001174740902705643,-0.0013747930645065694,0.006352923967005486,4.439993381500244,2019-07-26 14:49:43:736,-81.19224634648162,-161.94066912437466,0,-26.08937644958496,21.89108657836914,-24.589988708496094
-0.033955156803131104,-0.04573493078351021,9.816394805908203,0.0035721710510086637,-0.004571366985688751,0.007951210732540834,4.449995517730713,2019-07-26 14:49:43:746,-75.96979778995055,-162.29852311689226,0,-26.08937644958496,21.89108657836914,-24.589988708496094
