ACCELEROMETER X (m/s²),ACCELEROMETER Y (m/s²),ACCELEROMETER Z (m/s²),GYROSCOPE X (rad/s),GYROSCOPE Y (rad/s),GYROSCOPE Z (rad/s),Time since start in ms ,YYYY-MO-DD HH-MI-SS_SSS,Pitch (Deg),Roll (Deg),Heading (Deg),MagX,MagY,MagZ
0.008886916562914848,-0.1255040466785431,9.741145133972168,0.013790551365405645,-0.016315844975100142,-0.02388826161417194,0.0,2019-08-07 14:36:18:266,-3.5989545732792805,-3.5852369423820325,0,-38.68424987792969,6.59731388092041,-31.487178802490234
-0.577826738357544,-0.25961002707481384,9.829751014709473,0.009528453323978052,0.0007325481658889489,-0.02868312295107528,0.010048151016235352,2019-08-07 14:36:18:276,0.00532776181286021,-7.088650847182057,0,-38.68424987792969,6.59731388092041,-31.487178802490234
-0.12042956799268723,0.0972076803445816,9.920751571655273,-0.017109660475241706,-0.0019312633050590406,-0.02708483514524263,0.020003080368041992,2019-08-07 14:36:18:286,3.5923909539627483,-3.348541880503288,0,-38.68424987792969,6.59731388092041,-31.487178802490234
-0.07732407003641129,0.1570764183998108,9.669301986694336,-6.126766340918298e-05,-0.0037959311981836125,-0.035342652701251843,0.030119657516479492,2019-08-07 14:36:18:296,7.113535859376449,0.29985016334109416,0,-38.68424987792969,6.59731388092041,-31.487178802490234
0.028044912964105606,0.03973368555307388,9.789039611816406,-0.0019259356825072562,-0.007258886116917857,-0.03720731903393047,0.03999733924865723,2019-08-07 14:36:18:306,3.378574100653463,3.890270099949668,0,-38.68424987792969,6.59731388092041,-31.487178802490234
-0.04140282794833183,0.22412940859794617,9.875250816345215,-0.004856128085988727,-0.004595074841025611,-0.03560903122809782,0.05008578300476074,2019-08-07 14:36:18:316,6.908801246226444,7.38921220423369,0,-38.68424987792969,6.59731388092041,-31.487178802490234
0.07354515790939331,0.2145504206418991,9.968646049499512,0.0015370192362269886,-0.00246402556023749,-0.02708483514524263,0.06039690971374512,2019-08-07 14:36:18:326,3.1805058222022864,10.815878886280078,0,-38.68424987792969,6.59731388092041,-31.487178802490234
0.11904539912939072,0.2408926635980606,9.822566032409668,0.0010042569160299579,-0.010455460168137204,-0.02468740551708826,0.07000470161437988,2019-08-07 14:36:18:336,-0.46357648365288906,14.170922261037106,0,-38.68424987792969,6.59731388092041,-31.487178802490234
0.1262296438217163,0.26962965726852417,9.798619270324707,0.0034016871293515603,-0.0027304066878267143,-0.018560639062387443,0.08015298843383789,2019-08-07 14:36:18:346,-4.037987784152742,17.454041122562618,0,-38.68424987792969,6.59731388092041,-31.487178802490234
0.27470412850379944,0.1953924149274826,9.85609245300293,-0.0016595545549180318,-0.004595074841025611,-0.009770061331794384,0.09000897407531738,2019-08-07 14:36:18:356,-7.522754932114303,20.68316445361196,0,-38.68424987792969,6.59731388092041,-31.487178802490234
0.25315138697624207,0.23131366074085236,9.760302543640137,0.009528453323978052,-0.005394218223793286,0.008876618639748637,0.10003161430358887,2019-08-07 14:36:18:366,-10.939549364790498,23.83698636807514,0,-38.38437271118164,6.297435760498047,-31.187301635742188
0.3489413857460022,0.19060291349887848,9.808197975158691,0.008462928813621153,0.0033963595067997765,0.020331008686531246,0.11011385917663574,2019-08-07 14:36:18:376,-14.281930630357532,26.933189836829325,0,-38.38437271118164,6.297435760498047,-31.187301635742188
0.3561256229877472,0.17862917482852936,9.851303100585938,0.010860359482072824,-0.003529550070594388,0.025658631238315736,0.12000155448913574,2019-08-07 14:36:18:386,-17.5529255013878,29.967720360616866,0,-38.38437271118164,6.297435760498047,-31.187301635742188
0.31302013993263245,0.22412940859794617,9.858488082885742,0.011126740089513398,-0.00033297644199582136,0.031519015004981374,0.13037371635437012,2019-08-07 14:36:18:396,-20.765300939199808,32.93583827208757,0,-38.38437271118164,6.297435760498047,-31.187301635742188
0.30104637145996094,0.19778716564178467,9.726776123046875,0.009794834971715925,-0.002996787815415939,0.03844492744319312,0.14011740684509277,2019-08-07 14:36:18:406,-23.91290027551524,35.848464506423326,0,-38.38437271118164,6.297435760498047,-31.187301635742188
0.31302013993263245,0.2217346578836441,9.762697219848633,0.011925883992429723,0.002330834996442878,0.04110873767878806,0.15007901191711426,2019-08-07 14:36:18:416,-26.999217240073783,38.69880249613918,0,-38.38437271118164,6.297435760498047,-31.187301635742188
0.23399338126182556,0.23849791288375854,9.839329719543457,0.008995691068799602,0.002330834996442878,0.04643635814997795,0.160172700881958,2019-08-07 14:36:18:426,-30.033307536024875,41.491957365459136,0,-38.38437271118164,6.297435760498047,-31.187301635742188
0.21004588901996613,0.21215566992759705,9.762697219848633,0.005266355282550457,-0.0008657387296835611,0.04483807450533451,0.17001557350158691,2019-08-07 14:36:18:436,-33.00751217037668,44.234309364345236,0,-38.38437271118164,6.297435760498047,-31.187301635742188
0.1597561538219452,0.21933990716934204,9.777066230773926,0.0020697814914054373,-0.00566059935138251,0.04537083572021565,0.18000507354736328,2019-08-07 14:36:18:446,-35.92546438075475,46.92275891795253,0,-38.38437271118164,6.297435760498047,-31.187301635742188
0.1405981481075287,0.21933990716934204,9.73396110534668,0.006065498665318131,0.001531691613675204,0.04217426010855036,0.1900196075439453,2019-08-07 14:36:18:456,-38.791265836206136,49.555075936414156,0,-38.38437271118164,6.297435760498047,-31.187301635742188
0.1334138959646225,0.2025766670703888,9.791434288024902,0.0015370192362269886,-0.00246402556023749,0.0365802569493253,0.199998140335083,2019-08-07 14:36:18:466,-41.59844715298552,52.13940857335709,0,-38.38437271118164,6.297435760498047,-31.187301635742188
0.08312415331602097,0.2025766670703888,9.724381446838379,0.0012706381086377639,-0.0019312633050590406,0.03311730281081402,0.2100057601928711,2019-08-07 14:36:18:476,-44.35559791742853,54.672038329442884,0,-38.38437271118164,6.297435760498047,-31.187301635742188
0.10228215157985687,0.25047165155410767,9.820171356201172,0.0010042569160299579,-0.002996787815415939,0.026191392453196884,0.220001220703125,2019-08-07 14:36:18:486,-47.05486916009063,57.14881273364874,0,-38.38437271118164,6.297435760498047,-31.187301635742188
0.1334138959646225,0.21933990716934204,9.765092849731445,-0.00032764881944403687,-0.0008657387296835611,0.027789680259029535,0.23000764846801758,2019-08-07 14:36:18:496,-49.69763045329537,59.580285766416935,0,-38.08449172973633,5.6976799964904785,-29.38803482055664
0.12383490055799484,0.21215566992759705,9.78664493560791,0.0020697814914054373,-0.0037959311981836125,0.016868053507722677,0.24002766609191895,2019-08-07 14:36:18:506,-52.28704314644828,61.96267818577116,0,-38.08449172973633,5.6976799964904785,-29.38803482055664
0.14778240025043488,0.22652415931224823,9.801013946533203,-0.004589746958399502,-0.004328693453362062,0.012605954425997783,0.2499985694885254,2019-08-07 14:36:18:516,-54.821601677043,64.29951420800647,0,-38.08449172973633,5.6976799964904785,-29.38803482055664
0.15736140310764313,0.18820816278457642,9.841724395751953,-0.0056552714687564,-0.005394218223793286,0.005946426236267168,0.26000308990478516,2019-08-07 14:36:18:526,-57.30381870370447,66.59478954674613,0,-38.08449172973633,5.6976799964904785,-29.38803482055664
0.20046688616275787,0.21215566992759705,9.84411907196045,-0.005388890341167176,-0.0021976444326482656,0.011806811563378757,0.2699930667877197,2019-08-07 14:36:18:536,-59.73317724698177,68.84122418414378,0,-38.08449172973633,5.6976799964904785,-29.38803482055664
0.16215088963508606,0.17144492268562317,9.827356338500977,0.00047149462834221814,-0.006992504989328633,0.006212807363856391,0.2800130844116211,2019-08-07 14:36:18:546,-62.11567372598285,71.0441451769557,0,-38.08449172973633,5.6976799964904785,-29.38803482055664
0.15017715096473694,0.19778716564178467,9.812987327575684,0.00047149462834221814,-0.004595074841025611,0.005946426236267168,0.2899940013885498,2019-08-07 14:36:18:556,-64.45324941783366,73.19990448515928,0,-38.08449172973633,5.6976799964904785,-29.38803482055664
0.16694039106369019,0.15228691697120667,9.836935043334961,-0.0016595545549180318,0.0009989292934781736,0.0016843279347652483,0.3000037670135498,2019-08-07 14:36:18:566,-66.7453006680173,75.31910048643297,0,-38.08449172973633,5.6976799964904785,-29.38803482055664
0.17651939392089844,0.12833942472934723,9.858488082885742,0.00020511348449834825,-0.00246402556023749,-0.0012458645987533845,0.3099963665008545,2019-08-07 14:36:18:576,-68.98849633731591,77.39768651536836,0,-38.08449172973633,5.6976799964904785,-29.38803482055664
0.15496665239334106,0.1307341754436493,9.753118515014648,0.002336162618994662,-0.00246402556023749,0.001950709062354473,0.3200356960296631,2019-08-07 14:36:18:586,-71.18913157739895,79.43305654463683,0,-38.08449172973633,5.6976799964904785,-29.38803482055664
0.1262296438217163,0.14749743044376373,9.832145690917969,-0.0029914601928641544,-0.0021976444326482656,-0.003909676004682793,0.3300004005432129,2019-08-07 14:36:18:596,-73.34940833957343,81.42887996473122,0,-38.08449172973633,5.6976799964904785,-29.38803482055664
0.12383490055799484,0.06128643453121185,9.870461463928223,-0.0008604111071317767,-0.0019312633050590406,-0.00018034003963255039,0.34000277519226074,2019-08-07 14:36:18:606,-75.46695960022892,83.39367061552971,0,-38.08449172973633,5.6976799964904785,-29.38803482055664
0.08791365474462509,0.09481292963027954,9.824960708618164,-0.0011267922997395827,-0.0013985010498805918,-0.012167492000246055,0.3500072956085205,2019-08-07 14:36:18:616,-77.54658142868804,85.31537219925144,0,-38.234432220458984,7.047130584716797,-31.33724021911621
0.08551890403032303,0.1235499233007431,9.760302543640137,-0.0024586979376857053,-0.010721840775577777,-0.007905393438669812,0.35999226570129395,2019-08-07 14:36:18:626,-79.57959839586037,87.19593853976585,0,-38.234432220458984,7.047130584716797,-31.33724021911621
0.006492166314274073,0.06847068667411804,9.827356338500977,-0.0008604111071317767,-0.008857173402601856,-0.016163208393935775,0.37001729011535645,2019-08-07 14:36:18:636,-81.58226367499553,89.04452022534508,0,-38.234432220458984,7.047130584716797,-31.33724021911621
0.020860664546489716,0.13312892615795135,9.810592651367188,-0.004589746958399502,0.0004661670057904337,-0.02015892478762549,0.37999534606933594,2019-08-07 14:36:18:646,-83.54844297571344,90.85065227736142,0,-38.234432220458984,7.047130584716797,-31.33724021911621
0.04001866281032562,0.13791842758655548,9.784250259399414,-0.0024586979376857053,-0.0027304066878267143,-0.022023593200898715,0.39000415802001953,2019-08-07 14:36:18:656,-85.47125275055342,92.61886929008271,0,-38.234432220458984,7.047130584716797,-31.33724021911621
0.011281665414571762,0.1690501719713211,9.81538200378418,-0.00272507906527493,-0.001132119922291367,-0.030015028068872754,0.3999955654144287,2019-08-07 14:36:18:666,-87.35987545888632,94.3482865823554,0,-38.234432220458984,7.047130584716797,-31.33724021911621
0.018465915694832802,0.11636567860841751,9.81538200378418,-0.0019259356825072562,-0.008324410627274756,-0.02974864746143218,0.4100022315979004,2019-08-07 14:36:18:676,-89.20584485241048,96.04881828403956,0,-38.234432220458984,7.047130584716797,-31.33724021911621
0.011281665414571762,0.17144492268562317,9.827356338500977,-0.004323365830810277,-0.0005993576020943366,-0.02815035965559953,0.42000365257263184,2019-08-07 14:36:18:686,-91.02007587482852,97.71028057738113,0,-38.234432220458984,7.047130584716797,-31.33724021911621
0.049597661942243576,0.2025766670703888,9.858488082885742,-0.003524222448042604,-0.0048614559686148365,-0.030015028068872754,0.4300050735473633,2019-08-07 14:36:18:696,-92.79117926135942,99.33451061515639,0,-38.234432220458984,7.047130584716797,-31.33724021911621
0.04720291122794151,0.18581341207027435,9.769882202148438,-0.00272507906527493,-0.007258886116917857,-0.03774008024881161,0.43999719619750977,2019-08-07 14:36:18:706,-94.52574661626477,100.92755778170175,0,-38.234432220458984,7.047130584716797,-31.33724021911621
0.049597661942243576,0.17862917482852936,9.858488082885742,0.0015370192362269886,-0.00805802949968553,-0.036141792442978965,0.45000529289245605,2019-08-07 14:36:18:716,-96.22493844075424,102.4873819449589,0,-38.234432220458984,7.047130584716797,-31.33724021911621
0.049597661942243576,0.1834186613559723,9.882434844970703,-0.004056984703221053,-0.010721840775577777,-0.03720731903393047,0.4599912166595459,2019-08-07 14:36:18:726,-97.88867680939286,104.01864326141035,0,-38.234432220458984,7.047130584716797,-31.33724021911621
0.054387159645557404,0.1762344241142273,9.779460906982422,-0.0016595545549180318,-0.004062312325772837,-0.03853922415172794,0.4700169563293457,2019-08-07 14:36:18:736,-99.52224362908923,105.518556467859,0,-38.234432220458984,7.047130584716797,-31.33724021911621
0.06396616250276566,0.16186591982841492,9.73396110534668,-0.008052702137208073,-0.003263168943005164,-0.04093665586047691,0.4799935817718506,2019-08-07 14:36:18:746,-101.12244056478303,106.99364269063304,0,-37.78461456298828,5.997558116912842,-30.287668228149414
0.107071653008461,0.16665542125701904,9.781855583190918,0.0015370192362269886,-0.007258886116917857,-0.03987112926952541,0.49000120162963867,2019-08-07 14:36:18:756,-102.68337016497553,108.43338484155903,0,-37.78461456298828,5.997558116912842,-30.287668228149414
0.107071653008461,0.1690501719713211,9.798619270324707,-0.00272507906527493,-0.011254603030756228,-0.03720731903393047,0.49999308586120605,2019-08-07 14:36:18:766,-104.21086727449887,109.84647814279634,0,-37.78461456298828,5.997558116912842,-30.287668228149414
0.10228215157985687,0.14749743044376373,9.808197975158691,-0.004056984703221053,-0.005127837096204061,-0.03694093634589529,0.5100104808807373,2019-08-07 14:36:18:776,-105.71181620792373,111.23459934972803,0,-37.78461456298828,5.997558116912842,-30.287668228149414
0.08791365474462509,0.1762344241142273,9.836935043334961,0.002336162618994662,-0.006726123861739408,-0.0337443648954192,0.519995927810669,2019-08-07 14:36:18:786,-107.18356778309675,112.58806997002426,0,-37.78461456298828,5.997558116912842,-30.287668228149414
0.09988740086555481,0.17862917482852936,9.889619827270508,-0.0029914601928641544,-0.004595074841025611,-0.02868312295107528,0.5300023555755615,2019-08-07 14:36:18:796,-108.62574102718467,113.91729374259387,0,-37.78461456298828,5.997558116912842,-30.287668228149414
0.152571901679039,0.1834186613559723,9.817776679992676,-0.005921652596345625,-0.005394218223793286,-0.028949503558515853,0.5399932861328125,2019-08-07 14:36:18:806,-110.03239358625794,115.2208640019691,0,-37.78461456298828,5.997558116912842,-30.287668228149414
0.14299289882183075,0.21933990716934204,9.760302543640137,0.003668068256940785,-0.004595074841025611,-0.02335550039929079,0.5500030517578125,2019-08-07 14:36:18:816,-111.41237607977035,116.4886376638123,0,-37.78461456298828,5.997558116912842,-30.287668228149414
0.1860983967781067,0.18820816278457642,9.73396110534668,-0.00032764881944403687,-0.003263168943005164,-0.021757212593458142,0.5600004196166992,2019-08-07 14:36:18:826,-112.76039129685442,117.73689508062603,0,-37.78461456298828,5.997558116912842,-30.287668228149414
0.1860983967781067,0.1834186613559723,9.820171356201172,0.0028689248741731116,-0.003263168943005164,-0.0169623522968521,0.5700037479400635,2019-08-07 14:36:18:836,-114.08163737714297,118.95914511404628,0,-37.78461456298828,5.997558116912842,-30.287668228149414
0.21483539044857025,0.18820816278457642,9.858488082885742,-0.004589746958399502,-0.004595074841025611,-0.010835585842151283,0.579991340637207,2019-08-07 14:36:18:846,-115.37245995270288,120.16066216065785,0,-37.78461456298828,5.997558116912842,-30.287668228149414
0.17651939392089844,0.21933990716934204,9.824960708618164,0.00020511348449834825,-0.00859079175486398,-0.010569204194413408,0.5899965763092041,2019-08-07 14:36:18:856,-116.6395987215136,121.3317556424056,0,-37.78461456298828,5.997558116912842,-30.287668228149414
0.13580864667892456,0.22412940859794617,9.8034086227417,-0.0016595545549180318,0.002064453868853653,-0.0033769137495043436,0.5999898910522461,2019-08-07 14:36:18:866,-117.89209156995291,122.47985793149542,0,-38.53430938720703,5.84761905670166,-29.83785057067871
0.14299289882183075,0.15468166768550873,9.767487525939941,0.00047149462834221814,-0.003529550070594388,0.0022170901899436976,0.6100060939788818,2019-08-07 14:36:18:876,-119.11549004977432,123.61184995962928,0,-38.53430938720703,5.84761905670166,-29.83785057067871
0.14299289882183075,0.2145504206418991,9.772276878356934,-0.002192316810096481,0.0004661670057904337,0.003016233572711371,0.6199941635131836,2019-08-07 14:36:18:886,-120.31667526858286,124.7156879295141,0,-38.53430938720703,5.84761905670166,-29.83785057067871
0.12862439453601837,0.16665542125701904,9.824960708618164,-0.0016595545549180318,-0.006459742734150184,0.01020852479784341,0.6300032138824463,2019-08-07 14:36:18:896,-121.49171033931299,125.80287117796743,0,-38.53430938720703,5.84761905670166,-29.83785057067871
0.15496665239334106,0.18102392554283142,9.812987327575684,0.008462928813621153,0.0004661670057904337,0.012339573818557208,0.6399943828582764,2019-08-07 14:36:18:906,-122.64404286369111,126.86092928266143,0,-38.53430938720703,5.84761905670166,-29.83785057067871
0.11904539912939072,0.2025766670703888,9.81538200378418,0.002602543746583887,-0.005127837096204061,0.013405098328914105,0.6500096321105957,2019-08-07 14:36:18:916,-123.77438084024254,127.89860029956552,0,-38.53430938720703,5.84761905670166,-29.83785057067871
0.1717298924922943,0.1834186613559723,9.805803298950195,0.002336162618994662,-0.0013985010498805918,0.015536147349627901,0.6599879264831543,2019-08-07 14:36:18:926,-124.87804320264598,128.917887407092,0,-38.53430938720703,5.84761905670166,-29.83785057067871
0.1405981481075287,0.17144492268562317,9.85609245300293,0.006331879792907356,-0.0037959311981836125,0.020331008686531246,0.6700026988983154,2019-08-07 14:36:18:936,-125.96200228754273,129.91603808326568,0,-38.53430938720703,5.84761905670166,-29.83785057067871
0.10946640372276306,0.15947116911411285,9.820171356201172,0.006331879792907356,0.003662740634389001,0.015802528997365776,0.679995059967041,2019-08-07 14:36:18:946,-127.03204419130603,130.89555764372946,0,-38.53430938720703,5.84761905670166,-29.83785057067871
0.042413413524627686,0.22652415931224823,9.820171356201172,0.0028689248741731116,-0.009389935657780304,0.01846634027325802,0.6900010108947754,2019-08-07 14:36:18:956,-128.08117854423313,131.84960622222326,0,-38.53430938720703,5.84761905670166,-29.83785057067871
0.21723014116287231,0.5474206209182739,9.353195190429688,0.016720744289035767,0.0041955028895674495,0.025392250630875163,0.7000017166137695,2019-08-07 14:36:18:966,-129.09530153552228,132.73623342574922,0,-38.53430938720703,5.84761905670166,-29.83785057067871
-0.15874555706977844,0.3199194073677063,10.05485725402832,0.004733593027372009,0.03989057450667219,0.01793357697778227,0.7100026607513428,2019-08-07 14:36:18:976,-122.95388627491756,133.6424028423778,0,-38.53430938720703,5.84761905670166,-29.83785057067871
0.25554612278938293,-0.5254272222518921,10.490701675415039,-0.032293385267976156,-0.01844689503611124,0.0075447130018025145,0.7200000286102295,2019-08-07 14:36:18:986,-124.05654518970158,127.44502801539487,0,-38.53430938720703,5.84761905670166,-29.83785057067871
-0.3263780474662781,0.20018191635608673,9.93511962890625,0.009794834971715925,-0.038958243420927484,0.02059738929397182,0.7300069332122803,2019-08-07 14:36:18:996,-117.9911550560357,128.46753803506513,0,-38.234432220458984,6.747252941131592,-30.737483978271484
-0.11324531584978104,0.23610316216945648,9.762697219848633,-0.015244993102265786,-0.01604946436765957,0.04643635814997795,0.7400128841400146,2019-08-07 14:36:19:006,-112.03560663293577,129.4790447440167,0,-38.234432220458984,6.747252941131592,-30.737483978271484
0.2435723841190338,0.008601941168308258,9.726776123046875,0.014856075875762542,0.02337494563643757,0.016868053507722677,0.7501649856567383,2019-08-07 14:36:19:016,-113.37952976434028,130.47998190669043,0,-38.234432220458984,6.747252941131592,-30.737483978271484
-0.1874825656414032,0.23131366074085236,10.006961822509766,-0.0019259356825072562,0.01005588821667904,0.021396533196888144,0.7600395679473877,2019-08-07 14:36:19:026,-107.53898118292412,131.44496667976324,0,-38.234432220458984,6.747252941131592,-30.737483978271484
0.24117763340473175,0.29118239879608154,10.078804969787598,-0.005388890341167176,-0.021909849174622513,0.03977683256099059,0.7700009346008301,2019-08-07 14:36:19:036,-108.94853113761012,132.385984565003,0,-38.234432220458984,6.747252941131592,-30.737483978271484
0.05678191035985947,0.09241817891597748,9.853697776794434,0.006065498665318131,-0.01791413174063549,0.03977683256099059,0.780012845993042,2019-08-07 14:36:19:046,-110.35288651006286,133.3241077801068,0,-38.234432220458984,6.747252941131592,-30.737483978271484
0.04720291122794151,0.1427079290151596,9.767487525939941,0.0010042569160299579,0.0071256958131975705,0.026990536356113207,0.7901642322540283,2019-08-07 14:36:19:056,-111.74435264582917,134.2403119843807,0,-38.234432220458984,6.747252941131592,-30.737483978271484
0.054387159645557404,0.21933990716934204,9.836935043334961,0.0015370192362269886,0.01058865047185749,0.028056060866470108,0.8000185489654541,2019-08-07 14:36:19:066,-113.10898893291879,135.12910836505105,0,-38.234432220458984,6.747252941131592,-30.737483978271484
0.14778240025043488,0.14031317830085754,9.990199089050293,0.005799117537728906,-0.004062312325772837,0.021396533196888144,0.8099994659423828,2019-08-07 14:36:19:076,-114.42758253112109,136.00718279320543,0,-38.234432220458984,6.747252941131592,-30.737483978271484
0.15496665239334106,0.0517074353992939,9.90638256072998,0.005799117537728906,-0.010721840775577777,0.01846634027325802,0.8200113773345947,2019-08-07 14:36:19:086,-115.7150791864676,136.87779788608609,0,-38.234432220458984,6.747252941131592,-30.737483978271484
0.028044912964105606,0.008601941168308258,9.755513191223145,-0.0011267922997395827,-0.0037959311981836125,0.007011950746624065,0.8301529884338379,2019-08-07 14:36:19:096,-116.9953217681011,137.73987316747804,0,-38.234432220458984,6.747252941131592,-30.737483978271484
0.049597661942243576,0.17383967339992523,9.729170799255371,-6.126766340918298e-05,0.01165417498221439,0.001950709062354473,0.8400206565856934,2019-08-07 14:36:19:106,-118.25603090813026,138.56463674487708,0,-38.234432220458984,6.747252941131592,-30.737483978271484
0.10467690229415894,0.20018191635608673,9.877645492553711,0.005266355282550457,0.0033963595067997765,0.0011515656795867992,0.849999189376831,2019-08-07 14:36:19:116,-119.48067002912808,139.3671731797438,0,-38.984127044677734,5.397802352905273,-30.287668228149414
0.10946640372276306,0.10918142646551132,9.868066787719727,-0.00272507906527493,-0.012852889796291574,-0.012433872607686629,0.8599929809570312,2019-08-07 14:36:19:126,-120.67113311578498,140.16868086972437,0,-38.984127044677734,5.397802352905273,-30.287668228149414
0.049597661942243576,0.1953924149274826,9.712408065795898,0.00020511348449834825,-0.00912355401004243,-0.022023593200898715,0.8699941635131836,2019-08-07 14:36:19:136,-121.84673526990562,140.94214186087942,0,-38.984127044677734,5.397802352905273,-30.287668228149414
0.04001866281032562,0.2528664171695709,9.762697219848633,0.004467211899782784,-0.002996787815415939,-0.024953786124528834,0.8800046443939209,2019-08-07 14:36:19:146,-123.00341886647868,141.6911140080488,0,-38.984127044677734,5.397802352905273,-30.287668228149414
0.049597661942243576,0.22412940859794617,9.798619270324707,0.00047149462834221814,0.002064453868853653,-0.031080552579229648,0.8900051116943359,2019-08-07 14:36:19:156,-124.13870950102611,142.4308203606906,0,-38.984127044677734,5.397802352905273,-30.287668228149414
0.15496665239334106,0.18581341207027435,9.868066787719727,-0.004323365830810277,-0.005127837096204061,-0.03774008024881161,0.900005578994751,2019-08-07 14:36:19:166,-125.23506209405598,143.1630568553997,0,-38.984127044677734,5.397802352905273,-30.287668228149414
0.09988740086555481,0.20018191635608673,9.810592651367188,-0.002192316810096481,-0.012320127541113125,-0.036141792442978965,0.910006046295166,2019-08-07 14:36:19:176,-126.31177595812046,143.87764797222297,0,-38.984127044677734,5.397802352905273,-30.287668228149414
0.1405981481075287,0.21694517135620117,9.748329162597656,-0.0005940299795425521,-0.006193361606560959,-0.034543506717740924,0.9199941158294678,2019-08-07 14:36:19:186,-127.36554086452524,144.57493047699685,0,-38.984127044677734,5.397802352905273,-30.287668228149414
0.13820339739322662,0.13791842758655548,9.810592651367188,-0.0016595545549180318,0.0033963595067997765,-0.03720731903393047,0.9300055503845215,2019-08-07 14:36:19:196,-128.40399764948657,145.26825641997564,0,-38.984127044677734,5.397802352905273,-30.287668228149414
0.18370364606380463,0.15947116911411285,9.889619827270508,-0.00272507906527493,-0.00033297644199582136,-0.0348098894057761,0.9399995803833008,2019-08-07 14:36:19:206,-129.41444744930578,145.945944097084,0,-38.984127044677734,5.397802352905273,-30.287668228149414
0.12144014984369278,0.2145504206418991,9.887224197387695,-0.00272507906527493,-0.014184795954386346,-0.035875413916133,0.9500021934509277,2019-08-07 14:36:19:216,-130.4041176379957,146.60369354844875,0,-38.984127044677734,5.397802352905273,-30.287668228149414
0.07593990862369537,0.1570764183998108,9.789039611816406,-0.0011267922997395827,-0.010189078520399329,-0.034543506717740924,0.9599988460540771,2019-08-07 14:36:19:226,-131.38142661689338,147.25386620008598,0,-38.984127044677734,5.397802352905273,-30.287668228149414
0.03762391209602356,0.15947116911411285,9.765092849731445,-0.004856128085988727,-0.002996787815415939,-0.03853922415172794,0.970003604888916,2019-08-07 14:36:19:236,-132.3476995168387,147.89280489949232,0,-38.984127044677734,5.397802352905273,-30.287668228149414
0.03283441439270973,0.20018191635608673,9.836935043334961,-0.0037906035756318283,0.0031299783792105513,-0.04200217829023921,0.9799997806549072,2019-08-07 14:36:19:246,-133.29867742946706,148.51376020869876,0,-38.68424987792969,5.997558116912842,-30.88742446899414
0.054387159645557404,0.18102392554283142,9.834540367126465,0.0010042569160299579,-0.0115209846784941,-0.03853922415172794,0.9900023937225342,2019-08-07 14:36:19:256,-134.21989607396694,149.1218305352066,0,-38.68424987792969,5.997558116912842,-30.88742446899414
0.0352291613817215,0.2025766670703888,9.899198532104492,-0.005388890341167176,-0.012586509188851,-0.03747370172196564,0.9999988079071045,2019-08-07 14:36:19:266,-135.12435532403646,149.71897201157014,0,-38.68424987792969,5.997558116912842,-30.88742446899414
-0.005481582134962082,0.14749743044376373,9.824960708618164,0.0012706381086377639,-0.002996787815415939,-0.03747370172196564,1.010025978088379,2019-08-07 14:36:19:276,-128.82082028720157,150.3066753814573,0,-38.68424987792969,5.997558116912842,-30.88742446899414
0.04001866281032562,0.18820816278457642,9.812987327575684,0.0010042569160299579,-0.003529550070594388,-0.03640817513101414,1.0200185775756836,2019-08-07 14:36:19:286,-129.83775034082169,150.87800301171785,0,-38.68424987792969,5.997558116912842,-30.88742446899414
0.04001866281032562,0.18581341207027435,9.798619270324707,0.002602543746583887,-0.003263168943005164,-0.028949503558515853,1.0300216674804688,2019-08-07 14:36:19:296,-130.83448248084056,151.4372535253569,0,-38.68424987792969,5.997558116912842,-30.88742446899414
0.06396616250276566,0.16665542125701904,9.836935043334961,-0.0032578413204533796,-0.00805802949968553,-0.02681845453780206,1.040010690689087,2019-08-07 14:36:19:306,-131.80582184020346,151.99092370062309,0,-38.68424987792969,5.997558116912842,-30.88742446899414
0.05678191035985947,0.16426067054271698,9.8034086227417,0.0012706381086377639,-0.005127837096204061,-0.026019310634885735,1.050004005432129,2019-08-07 14:36:19:316,-132.76019091948888,152.53119368988885,0,-38.68424987792969,5.997558116912842,-30.88742446899414
0.06875565648078918,0.18820816278457642,9.8034086227417,0.0012706381086377639,-0.00246402556023749,-0.02282273710381504,1.060011863708496,2019-08-07 14:36:19:326,-133.69556578392397,153.05785893691782,0,-38.68424987792969,5.997558116912842,-30.88742446899414
0.05917666107416153,0.20976091921329498,9.81538200378418,-0.0005940299795425521,-0.004595074841025611,-0.016429590041673648,1.0700068473815918,2019-08-07 14:36:19:336,-134.61216702520514,153.57254992425936,0,-38.68424987792969,5.997558116912842,-30.88742446899414
0.09749265760183334,0.1762344241142273,9.81538200378418,0.00047149462834221814,-0.004062312325772837,-0.0148313032761383,1.0800175666809082,2019-08-07 14:36:19:346,-135.50625866386048,154.08026128321032,0,-38.68424987792969,5.997558116912842,-30.88742446899414
0.09030840545892715,0.22652415931224823,9.832145690917969,-6.126766340918298e-05,-0.004062312325772837,-0.010036441939234959,1.0899884700775146,2019-08-07 14:36:19:356,-136.3833341887338,154.57229412171228,0,-38.68424987792969,5.997558116912842,-30.88742446899414
0.08551890403032303,0.23131366074085236,9.78664493560791,0.0015370192362269886,-0.0005993576020943366,-0.0033769137495043436,1.1000335216522217,2019-08-07 14:36:19:366,-137.2453163199961,155.05290190525196,0,-37.484737396240234,5.997558116912842,-30.88742446899414
0.08551890403032303,0.21215566992759705,9.750723838806152,-0.002192316810096481,0.0007325481658889489,-0.0007131023435749355,1.1100172996520996,2019-08-07 14:36:19:376,-138.09077063491827,155.528144023165,0,-37.484737396240234,5.997558116912842,-30.88742446899414
0.14299289882183075,0.2289189100265503,9.769882202148438,-0.00032764881944403687,-0.005394218223793286,0.004614520598321043,1.1201989650726318,2019-08-07 14:36:19:386,-138.9091008233161,155.99092332928006,0,-37.484737396240234,5.997558116912842,-30.88742446899414
0.11186115443706512,0.1570764183998108,9.841724395751953,0.004733593027372009,-0.006459742734150184,0.013405098328914105,1.1300959587097168,2019-08-07 14:36:19:396,-139.71430510274573,156.45018678390062,0,-37.484737396240234,5.997558116912842,-30.88742446899414
0.08551890403032303,0.15468166768550873,9.81538200378418,0.0007378757884407334,-0.007258886116917857,0.010474905405283983,1.1400237083435059,2019-08-07 14:36:19:406,-140.50598877842873,156.90271461229509,0,-37.484737396240234,5.997558116912842,-30.88742446899414
0.107071653008461,0.17383967339992523,9.872856140136719,0.0010042569160299579,-0.0037959311981836125,0.013937860584092555,1.1501178741455078,2019-08-07 14:36:19:416,-141.2812904933703,157.34391610745848,0,-37.484737396240234,5.997558116912842,-30.88742446899414
0.04720291122794151,0.18102392554283142,9.834540367126465,-0.0008604111071317767,-0.0013985010498805918,0.01420424223183043,1.1599953174591064,2019-08-07 14:36:19:426,-142.04938903418198,157.7764245509422,0,-37.484737396240234,5.997558116912842,-30.88742446899414
0.10946640372276306,0.2408926635980606,9.829751014709473,0.00393444938453001,-0.006193361606560959,0.01313871668117623,1.170093059539795,2019-08-07 14:36:19:436,-142.79212904271702,158.19058853334968,0,-37.484737396240234,5.997558116912842,-30.88742446899414
0.09030840545892715,0.20497141778469086,9.784250259399414,0.0028689248741731116,-0.003529550070594388,0.013405098328914105,1.1799907684326172,2019-08-07 14:36:19:446,-143.52374842246272,158.60117993273175,0,-37.484737396240234,5.997558116912842,-30.88742446899414
0.08791365474462509,0.16426067054271698,9.817776679992676,0.004200830512119234,-0.003263168943005164,0.012339573818557208,1.1900732517242432,2019-08-07 14:36:19:456,-144.24116520547094,159.0076076568356,0,-37.484737396240234,5.997558116912842,-30.88742446899414
0.08791365474462509,0.17862917482852936,9.779460906982422,-6.126766340918298e-05,-0.0021976444326482656,0.008343856384570188,1.2000222206115723,2019-08-07 14:36:19:466,-144.94481315384763,159.4065610510347,0,-37.484737396240234,5.997558116912842,-30.88742446899414
0.09270315617322922,0.19778716564178467,9.839329719543457,-0.0019259356825072562,-0.003263168943005164,0.012073192170819333,1.210045337677002,2019-08-07 14:36:19:476,-145.6332842433155,159.7964820009499,0,-37.484737396240234,5.997558116912842,-30.88742446899414
0.1405981481075287,0.21215566992759705,9.762697219848633,-0.00032764881944403687,-0.00033297644199582136,0.012605954425997783,1.2200038433074951,2019-08-07 14:36:19:486,-146.30393052790285,160.17583730605443,0,-37.484737396240234,5.997558116912842,-30.88742446899414
0.107071653008461,0.19060291349887848,9.812987327575684,0.0020697814914054373,-0.0027304066878267143,0.009143000287486512,1.2299978733062744,2019-08-07 14:36:19:496,-146.96381687326453,160.54890413989392,0,-38.38437271118164,5.397802352905273,-29.987789154052734
0.05678191035985947,0.19060291349887848,9.8034086227417,0.004999974154961233,-0.003263168943005164,0.0075447130018025145,1.2399933338165283,2019-08-07 14:36:19:506,-147.61607196740576,160.9128431791402,0,-38.38437271118164,5.397802352905273,-29.987789154052734
0.11904539912939072,0.1953924149274826,9.769882202148438,0.0010042569160299579,-0.0016648821774698163,0.01074128705302186,1.2499902248382568,2019-08-07 14:36:19:516,-148.24885377131767,161.27110795829495,0,-38.38437271118164,5.397802352905273,-29.987789154052734
0.11425590515136719,0.19060291349887848,9.817776679992676,-6.126766340918298e-05,-0.0016648821774698163,0.007811094129391739,1.260000467300415,2019-08-07 14:36:19:526,-148.86960574016504,161.62347615548018,0,-38.38437271118164,5.397802352905273,-29.987789154052734
0.15496665239334106,0.1427079290151596,9.801013946533203,0.0007378757884407334,-0.004062312325772837,0.0075447130018025145,1.2699906826019287,2019-08-07 14:36:19:536,-149.47181798280278,161.97390876551057,0,-38.38437271118164,5.397802352905273,-29.987789154052734
0.12862439453601837,0.14031317830085754,9.796224594116211,0.004733593027372009,-0.0027304066878267143,0.0038153772155533703,1.280019760131836,2019-08-07 14:36:19:546,-150.0657990424262,162.31535291208615,0,-38.38437271118164,5.397802352905273,-29.987789154052734
0.1262296438217163,0.1953924149274826,9.832145690917969,-0.0016595545549180318,-0.004062312325772837,0.003016233572711371,1.290003776550293,2019-08-07 14:36:19:556,-150.64749473727056,162.64720663036687,0,-38.38437271118164,5.397802352905273,-29.987789154052734
0.14778240025043488,0.13312892615795135,9.841724395751953,-0.0056552714687564,-0.005394218223793286,0.00061880342440835,1.2999908924102783,2019-08-07 14:36:19:566,-151.21431423198806,162.98193398816278,0,-38.38437271118164,5.397802352905273,-29.987789154052734
0.08791365474462509,0.11397092789411545,9.868066787719727,0.0020697814914054373,-0.003263168943005164,-0.0007131023435749355,1.3099911212921143,2019-08-07 14:36:19:576,-151.77798705915149,163.30789897454903,0,-38.38437271118164,5.397802352905273,-29.987789154052734
0.10946640372276306,0.12115518003702164,9.762697219848633,-0.0005940299795425521,-0.004328693453362062,8.60411123386422e-05,1.3199913501739502,2019-08-07 14:36:19:586,-152.32714841306236,163.6278544545944,0,-38.38437271118164,5.397802352905273,-29.987789154052734
0.09509790688753128,0.14749743044376373,9.848908424377441,-0.0019259356825072562,-0.007258886116917857,0.0011515656795867992,1.3300011157989502,2019-08-07 14:36:19:596,-152.86546135953066,163.93921986206516,0,-38.38437271118164,5.397802352905273,-29.987789154052734
0.08312415331602097,0.16426067054271698,9.777066230773926,0.0034016871293515603,-0.0005993576020943366,-0.0009794834711641602,1.3399977684020996,2019-08-07 14:36:19:606,-153.39807342125326,164.2392757923524,0,-38.38437271118164,5.397802352905273,-29.987789154052734
0.12144014984369278,0.1834186613559723,9.820171356201172,-0.0011267922997395827,-0.006726123861739408,-0.0015122457263426093,1.350003719329834,2019-08-07 14:36:19:616,-153.91216286969956,164.5337227139634,0,-39.13406753540039,5.84761905670166,-30.13772964477539
0.12862439453601837,0.15468166768550873,9.765092849731445,0.002602543746583887,-0.006193361606560959,-0.003643294877093568,1.359999656677246,2019-08-07 14:36:19:626,-154.4153504989572,164.82343743883666,0,-39.13406753540039,5.84761905670166,-30.13772964477539
0.11186115443706512,0.2025766670703888,9.832145690917969,-0.0005940299795425521,-0.0037959311981836125,-0.0015122457263426093,1.3700447082519531,2019-08-07 14:36:19:636,-154.91186586015127,165.10369720166977,0,-39.13406753540039,5.84761905670166,-30.13772964477539
0.1717298924922943,0.1762344241142273,9.834540367126465,-0.0016595545549180318,-0.004595074841025611,-0.00257777036673667,1.3800075054168701,2019-08-07 14:36:19:646,-155.39105016807542,165.38201908166388,0,-39.13406753540039,5.84761905670166,-30.13772964477539
0.1597561538219452,0.15228691697120667,9.820171356201172,-0.0011267922997395827,-0.00805802949968553,-0.005507962770218141,1.3900227546691895,2019-08-07 14:36:19:656,-155.8600573945188,165.65724342431722,0,-39.13406753540039,5.84761905670166,-30.13772964477539
0.1334138959646225,0.15468166768550873,9.841724395751953,-0.00032764881944403687,-0.004328693453362062,-0.0007131023435749355,1.4000236988067627,2019-08-07 14:36:19:666,-156.32489244188645,165.9262737582006,0,-39.13406753540039,5.84761905670166,-30.13772964477539
0.16454564034938812,0.15468166768550873,9.839329719543457,0.0010042569160299579,-0.005127837096204061,-0.003909676004682793,1.409996747970581,2019-08-07 14:36:19:676,-156.77636142454043,166.18917274228536,0,-39.13406753540039,5.84761905670166,-30.13772964477539
0.13101914525032043,0.17383967339992523,9.784250259399414,-0.0011267922997395827,-0.0016648821774698163,-0.010569204194413408,1.419999361038208,2019-08-07 14:36:19:686,-157.22455528905817,166.44566446525513,0,-39.13406753540039,5.84761905670166,-30.13772964477539
0.16454564034938812,0.15947116911411285,9.784250259399414,0.0007378757884407334,-0.003263168943005164,-0.007106249535753488,1.4299988746643066,2019-08-07 14:36:19:696,-157.65896250428656,166.69766152762907,0,-39.13406753540039,5.84761905670166,-30.13772964477539
0.12383490055799484,0.17144492268562317,9.824960708618164,0.001803400363816213,-0.004328693453362062,-0.004708819387450467,1.440000057220459,2019-08-07 14:36:19:706,-158.08890992814833,166.94270144751098,0,-39.13406753540039,5.84761905670166,-30.13772964477539
0.13101914525032043,0.17383967339992523,9.789039611816406,0.0012706381086377639,-0.00246402556023749,-0.005774343897807364,1.4499974250793457,2019-08-07 14:36:19:716,-158.51041221929373,167.18278642296627,0,-39.13406753540039,5.84761905670166,-30.13772964477539
0.15736140310764313,0.1427079290151596,9.84411907196045,0.0028689248741731116,-0.0019312633050590406,-0.008171774566259036,1.4600048065185547,2019-08-07 14:36:19:726,-158.92080250423726,167.42090769695184,0,-39.13406753540039,5.84761905670166,-30.13772964477539
0.12383490055799484,0.1307341754436493,9.789039611816406,0.00020511348449834825,-0.004062312325772837,-0.00897091742887806,1.4699938297271729,2019-08-07 14:36:19:736,-159.32561250058734,167.65707152394225,0,-39.13406753540039,5.84761905670166,-30.13772964477539
0.16694039106369019,0.16426067054271698,9.78664493560791,0.00047149462834221814,-0.005926980478971734,-0.0031105326219151193,1.479997158050537,2019-08-07 14:36:19:746,-159.71622604207636,167.88443383032455,0,-39.28400421142578,6.297435760498047,-30.58754539489746
0.1262296438217163,0.13552367687225342,9.777066230773926,-0.0005940299795425521,-0.005926980478971734,-0.0068398684081642635,1.4899890422821045,2019-08-07 14:36:19:756,-160.10378237768788,168.1111954703302,0,-39.28400421142578,6.297435760498047,-30.58754539489746
0.09988740086555481,0.17144492268562317,9.877645492553711,-0.00272507906527493,-0.005394218223793286,-0.008704536821437486,1.4999980926513672,2019-08-07 14:36:19:766,-160.48708749984672,168.3306155729295,0,-39.28400421142578,6.297435760498047,-30.58754539489746
0.11186115443706512,0.15947116911411285,9.836935043334961,-0.00032764881944403687,-0.0008657387296835611,-0.010835585842151283,1.509993314743042,2019-08-07 14:36:19:776,-160.86382960135302,168.54561179984,0,-39.28400421142578,6.297435760498047,-30.58754539489746
0.11665065586566925,0.12115518003702164,9.77467155456543,-0.0013931734273288073,-0.007791648372096307,-0.007905393438669812,1.5199894905090332,2019-08-07 14:36:19:786,-161.22850500714878,168.7612788529055,0,-39.28400421142578,6.297435760498047,-30.58754539489746
0.11904539912939072,0.17862917482852936,9.805803298950195,0.002336162618994662,-0.006726123861739408,-0.00950367968405651,1.5299906730651855,2019-08-07 14:36:19:796,-161.5862466747386,168.96386890030197,0,-39.28400421142578,6.297435760498047,-30.58754539489746
0.11425590515136719,0.1834186613559723,9.824960708618164,-0.0024586979376857053,0.002064453868853653,-0.007639012311080588,1.5400102138519287,2019-08-07 14:36:19:806,-161.9423577750925,169.16458457385673,0,-39.28400421142578,6.297435760498047,-30.58754539489746
0.11186115443706512,0.17862917482852936,9.839329719543457,0.00047149462834221814,-0.002996787815415939,-0.005507962770218141,1.5499961376190186,2019-08-07 14:36:19:816,-162.288803197277,169.3602271481175,0,-39.28400421142578,6.297435760498047,-30.58754539489746
0.11425590515136719,0.23131366074085236,9.848908424377441,0.0015370192362269886,-0.003529550070594388,-0.005241581642628916,1.5600006580352783,2019-08-07 14:36:19:826,-162.62775137853794,169.54525089842153,0,-39.28400421142578,6.297435760498047,-30.58754539489746
0.07593990862369537,0.20976091921329498,9.808197975158691,-6.126766340918298e-05,-0.002996787815415939,-0.0041760571322720175,1.5699975490570068,2019-08-07 14:36:19:836,-162.96464211515448,169.72987712907468,0,-39.28400421142578,6.297435760498047,-30.58754539489746
0.10228215157985687,0.14749743044376373,9.801013946533203,0.00020511348449834825,-0.003529550070594388,-0.0033769137495043436,1.579993486404419,2019-08-07 14:36:19:846,-163.29141004324643,169.917920649817,0,-39.28400421142578,6.297435760498047,-30.58754539489746
0.09030840545892715,0.18581341207027435,9.801013946533203,0.0015370192362269886,-0.003529550070594388,-0.007639012311080588,1.5899980068206787,2019-08-07 14:36:19:856,-163.613040723685,170.09697647009736,0,-39.28400421142578,6.297435760498047,-30.58754539489746
0.09270315617322922,0.16665542125701904,9.784250259399414,-0.0029914601928641544,0.002597216124032102,-0.004442438259861242,1.59999418258667,2019-08-07 14:36:19:866,-163.9313807657503,170.27719947261122,0,-39.733821868896484,5.547740936279297,-31.63711929321289
0.08551890403032303,0.2145504206418991,9.719592094421387,0.0020697814914054373,-0.004062312325772837,-0.005507962770218141,1.609999656677246,2019-08-07 14:36:19:876,-164.24038871430588,170.44520181689978,0,-39.733821868896484,5.547740936279297,-31.63711929321289
0.0807294100522995,0.17862917482852936,9.798619270324707,0.001803400363816213,-0.0019312633050590406,-0.004975200515039691,1.6199889183044434,2019-08-07 14:36:19:886,-164.54505688320737,170.6143984931688,0,-39.733821868896484,5.547740936279297,-31.63711929321289
0.06875565648078918,0.20497141778469086,9.851303100585938,-0.0037906035756318283,-0.005127837096204061,-0.0031105326219151193,1.629990577697754,2019-08-07 14:36:19:896,-164.8432783822541,170.7804002096407,0,-39.733821868896484,5.547740936279297,-31.63711929321289
0.09749265760183334,0.19060291349887848,9.743539810180664,-0.0013931734273288073,-0.0019312633050590406,-0.00257777036673667,1.6399824619293213,2019-08-07 14:36:19:906,-165.1338637855269,170.94316031846026,0,-39.733821868896484,5.547740936279297,-31.63711929321289
0.07115040719509125,0.1834186613559723,9.801013946533203,-0.002192316810096481,-0.004595074841025611,-0.0007131023435749355,1.6500604152679443,2019-08-07 14:36:19:916,-165.42026764674722,171.1040952388444,0,-39.733821868896484,5.547740936279297,-31.63711929321289
0.10946640372276306,0.19060291349887848,9.772276878356934,0.004200830512119234,-0.0008657387296835611,8.60411123386422e-05,1.6600074768066406,2019-08-07 14:36:19:926,-165.69854305629067,171.25731943734746,0,-39.733821868896484,5.547740936279297,-31.63711929321289
0.07115040719509125,0.20018191635608673,9.851303100585938,-6.126766340918298e-05,-0.0019312633050590406,-0.0020450079815210586,1.6700201034545898,2019-08-07 14:36:19:936,-165.9752102659815,171.4089252932996,0,-39.733821868896484,5.547740936279297,-31.63711929321289
0.11665065586566925,0.20018191635608673,9.805803298950195,-0.0005940299795425521,-0.0021976444326482656,-0.0007131023435749355,1.6800286769866943,2019-08-07 14:36:19:946,-166.24083976367808,171.55769041842717,0,-39.733821868896484,5.547740936279297,-31.63711929321289
0.07833465933799744,0.19299766421318054,9.85609245300293,-0.0032578413204533796,-0.0019312633050590406,-0.0004467211834764202,1.6900262832641602,2019-08-07 14:36:19:956,-166.50583146269034,171.70592949824203,0,-39.733821868896484,5.547740936279297,-31.63711929321289
0.1453876495361328,0.1570764183998108,9.779460906982422,0.004467211899782784,-0.0037959311981836125,-0.004442438259861242,1.700011968612671,2019-08-07 14:36:19:966,-166.75655182343706,171.85090220208687,0,-39.733821868896484,5.547740936279297,-31.63711929321289
0.12383490055799484,0.2025766670703888,9.817776679992676,-6.126766340918298e-05,-0.00566059935138251,8.60411123386422e-05,1.710003137588501,2019-08-07 14:36:19:976,-167.00379212488647,171.9902774512339,0,-39.733821868896484,5.547740936279297,-31.63711929321289
0.11186115443706512,0.15947116911411285,9.753118515014648,0.001803400363816213,-0.00246402556023749,-0.0004467211834764202,1.7199900150299072,2019-08-07 14:36:19:986,-167.24919231132742,172.13072567122006,0,-39.733821868896484,5.547740936279297,-31.63711929321289
0.1262296438217163,0.1498921662569046,9.784250259399414,0.0007378757884407334,-0.001132119922291367,0.0011515656795867992,1.7300004959106445,2019-08-07 14:36:19:996,-167.48878912315297,172.27014265201652,0,-38.38437271118164,5.997558116912842,-30.287668228149414
0.1453876495361328,0.17383967339992523,9.781855583190918,0.0015370192362269886,-0.003263168943005164,8.60411123386422e-05,1.7399916648864746,2019-08-07 14:36:20:006,-167.72015221261407,172.40351486438652,0,-38.38437271118164,5.997558116912842,-30.287668228149414
0.13580864667892456,0.19060291349887848,9.870461463928223,0.0010042569160299579,-0.0008657387296835611,-0.0009794834711641602,1.7499868869781494,2019-08-07 14:36:20:016,-167.94949751942283,172.53275556792337,0,-38.38437271118164,5.997558116912842,-30.287668228149414
0.13580864667892456,0.1690501719713211,9.817776679992676,0.001803400363816213,0.00019978586194656375,-0.0017786268539318336,1.7599942684173584,2019-08-07 14:36:20:026,-168.17476946872262,172.6613577793777,0,-38.38437271118164,5.997558116912842,-30.287668228149414
0.1597561538219452,0.19060291349887848,9.824960708618164,0.003135306001762336,-0.002996787815415939,-0.005507962770218141,1.7700016498565674,2019-08-07 14:36:20:036,-168.3909589319816,172.78414103449197,0,-38.38437271118164,5.997558116912842,-30.287668228149414
0.15736140310764313,0.1690501719713211,9.820171356201172,0.001803400363816213,0.0007325481658889489,-0.0007131023435749355,1.7800014019012451,2019-08-07 14:36:20:046,-168.60519014055723,172.9077211192728,0,-38.38437271118164,5.997558116912842,-30.287668228149414
0.14299289882183075,0.18102392554283142,9.829751014709473,0.002336162618994662,-0.004328693453362062,0.0038153772155533703,1.7900021076202393,2019-08-07 14:36:20:056,-168.8139872093578,173.02715414552887,0,-38.38437271118164,5.997558116912842,-30.287668228149414
0.12862439453601837,0.1690501719713211,9.858488082885742,0.0015370192362269886,-0.006459742734150184,-0.004442438259861242,1.7999927997589111,2019-08-07 14:36:20:066,-169.01913371062668,173.14610096661397,0,-38.38437271118164,5.997558116912842,-30.287668228149414
0.10228215157985687,0.15947116911411285,9.822566032409668,0.003135306001762336,-0.0005993576020943366,-0.005241581642628916,1.8099911212921143,2019-08-07 14:36:20:076,-169.22648259328935,173.26281625631088,0,-38.38437271118164,5.997558116912842,-30.287668228149414
0.15736140310764313,0.1762344241142273,9.858488082885742,0.002602543746583887,-0.0008657387296835611,-0.0033769137495043436,1.8199903964996338,2019-08-07 14:36:20:086,-169.42317728894557,173.37561603136822,0,-38.38437271118164,5.997558116912842,-30.287668228149414
0.15736140310764313,0.1834186613559723,9.73396110534668,0.0007378757884407334,-0.0013985010498805918,-0.0017786268539318336,1.8300018310546875,2019-08-07 14:36:20:096,-169.61540407340243,173.48609879617342,0,-38.38437271118164,5.997558116912842,-30.287668228149414
0.13820339739322662,0.19299766421318054,9.839329719543457,0.004200830512119234,-0.0005993576020943366,-0.0015122457263426093,1.8399932384490967,2019-08-07 14:36:20:106,-169.80666525057546,173.59154592589945,0,-38.38437271118164,5.997558116912842,-30.287668228149414
0.12144014984369278,0.16665542125701904,9.858488082885742,-0.00032764881944403687,-0.007791648372096307,-0.005241581642628916,1.8500025272369385,2019-08-07 14:36:20:116,-169.9920378245964,173.70052956417643,0,-38.68424987792969,5.997558116912842,-29.687911987304688
0.09749265760183334,0.1570764183998108,9.74593448638916,-0.0029914601928641544,-0.005394218223793286,-0.0068398684081642635,1.859999656677246,2019-08-07 14:36:20:126,-170.17770640092579,173.80973092871494,0,-38.68424987792969,5.997558116912842,-29.687911987304688
0.08791365474462509,0.15468166768550873,9.8034086227417,-6.126766340918298e-05,-0.003263168943005164,-0.0031105326219151193,1.870007038116455,2019-08-07 14:36:20:136,-170.3620427472975,173.91549157374166,0,-38.68424987792969,5.997558116912842,-29.687911987304688
0.09030840545892715,0.17144492268562317,9.820171356201172,-0.0029914601928641544,-0.005127837096204061,-0.007639012311080588,1.8799970149993896,2019-08-07 14:36:20:146,-170.5413877158392,174.01885588727683,0,-38.68424987792969,5.997558116912842,-29.687911987304688
0.107071653008461,0.14749743044376373,9.860882759094238,-0.0005940299795425521,-0.004595074841025611,-0.006573487280575038,1.889998197555542,2019-08-07 14:36:20:156,-170.71553741135745,174.12167322093592,0,-38.68424987792969,5.997558116912842,-29.687911987304688
0.13101914525032043,0.19778716564178467,9.812987327575684,0.004467211899782784,-0.0021976444326482656,-0.007106249535753488,1.8999974727630615,2019-08-07 14:36:20:166,-170.8846938732272,174.21363805504055,0,-38.68424987792969,5.997558116912842,-29.687911987304688
0.08551890403032303,0.1953924149274826,9.796224594116211,0.003668068256940785,-0.006992504989328633,-0.010036441939234959,1.9099900722503662,2019-08-07 14:36:20:176,-171.05307328032154,174.3044541610661,0,-38.68424987792969,5.997558116912842,-29.687911987304688
0.12862439453601837,0.1570764183998108,9.798619270324707,0.00020511348449834825,-0.001132119922291367,-0.0031105326219151193,1.919997215270996,2019-08-07 14:36:20:186,-171.21633435011466,174.3998818387095,0,-38.68424987792969,5.997558116912842,-29.687911987304688
0.14299289882183075,0.12833942472934723,9.812987327575684,-6.126766340918298e-05,-0.0027304066878267143,-0.007372630663342713,1.9299898147583008,2019-08-07 14:36:20:196,-171.37377880580743,174.49693254401748,0,-38.68424987792969,5.997558116912842,-29.687911987304688
0.09749265760183334,0.18820816278457642,9.767487525939941,-0.0032578413204533796,-0.0005993576020943366,-0.003643294877093568,1.9399917125701904,2019-08-07 14:36:20:206,-171.53452922892015,174.58674578074434,0,-38.68424987792969,5.997558116912842,-29.687911987304688
0.13820339739322662,0.15228691697120667,9.765092849731445,0.0015370192362269886,-0.005926980478971734,-0.0031105326219151193,1.9500064849853516,2019-08-07 14:36:20:216,-171.68428890617005,174.676277416409,0,-38.68424987792969,5.997558116912842,-29.687911987304688
0.09988740086555481,0.20736616849899292,9.808197975158691,-0.00032764881944403687,-0.005127837096204061,-0.006307106152985815,1.9599947929382324,2019-08-07 14:36:20:226,-171.8360575367496,174.75871214303933,0,-38.68424987792969,5.997558116912842,-29.687911987304688
0.11425590515136719,0.1570764183998108,9.822566032409668,0.0012706381086377639,-0.004062312325772837,-0.00257777036673667,1.9699933528900146,2019-08-07 14:36:20:236,-171.98372706395446,174.84450132771056,0,-38.68424987792969,5.997558116912842,-29.687911987304688
0.11904539912939072,0.18581341207027435,9.853697776794434,0.003135306001762336,-0.00566059935138251,-0.0015122457263426093,1.979992389678955,2019-08-07 14:36:20:246,-172.1270309427468,174.92424477147418,0,-39.13406753540039,5.547740936279297,-30.13772964477539
0.09509790688753128,0.1690501719713211,9.750723838806152,0.0010042569160299579,-0.0048614559686148365,0.00061880342440835,1.9900004863739014,2019-08-07 14:36:20:256,-172.27058275849194,175.00533056207618,0,-39.13406753540039,5.547740936279297,-30.13772964477539
0.1262296438217163,0.18102392554283142,9.875250816345215,0.0034016871293515603,-0.00566059935138251,-0.003643294877093568,1.9999988079071045,2019-08-07 14:36:20:266,-172.40734643662216,175.08231072087344,0,-39.13406753540039,5.547740936279297,-30.13772964477539
0.11665065586566925,0.16665542125701904,9.71719741821289,-0.0005940299795425521,-0.004595074841025611,-0.004442438259861242,2.010002374649048,2019-08-07 14:36:20:276,-172.5428629104184,175.16134699977866,0,-39.13406753540039,5.547740936279297,-30.13772964477539
0.12862439453601837,0.1953924149274826,9.846513748168945,0.00020511348449834825,-0.006193361606560959,-0.005774343897807364,2.02000093460083,2019-08-07 14:36:20:286,-172.6735604163994,175.23526855042394,0,-39.13406753540039,5.547740936279297,-30.13772964477539
0.10467690229415894,0.17144492268562317,9.801013946533203,0.00020511348449834825,-0.006193361606560959,-0.0033769137495043436,2.0299787521362305,2019-08-07 14:36:20:296,-172.8043812024446,175.31040529940452,0,-39.13406753540039,5.547740936279297,-30.13772964477539
0.08312415331602097,0.15947116911411285,9.836935043334961,-0.00032764881944403687,-0.0027304066878267143,0.002483471317532922,2.0399930477142334,2019-08-07 14:36:20:306,-172.9370752717424,175.38580608268882,0,-39.13406753540039,5.547740936279297,-30.13772964477539
0.107071653008461,0.20736616849899292,9.848908424377441,0.004733593027372009,-0.0016648821774698163,-0.003909676004682793,2.05000376701355,2019-08-07 14:36:20:316,-173.06494069240443,175.45130581969576,0,-39.13406753540039,5.547740936279297,-30.13772964477539
0.08312415331602097,0.16186591982841492,9.832145690917969,0.005799117537728906,-0.003529550070594388,-0.0017786268539318336,2.05999755859375,2019-08-07 14:36:20:326,-173.19197355959727,175.52016210492943,0,-39.13406753540039,5.547740936279297,-30.13772964477539
0.09749265760183334,0.16426067054271698,9.801013946533203,-0.0029914601928641544,-0.002996787815415939,0.001950709062354473,2.0700035095214844,2019-08-07 14:36:20:336,-173.3150521177738,175.59223632122269,0,-39.13406753540039,5.547740936279297,-30.13772964477539
0.1334138959646225,0.15468166768550873,9.784250259399414,0.0015370192362269886,-6.659528596096748e-05,0.0008851845519975746,2.0800206661224365,2019-08-07 14:36:20:346,-173.43308936633588,175.66141252182183,0,-39.13406753540039,5.547740936279297,-30.13772964477539
0.1262296438217163,0.2025766670703888,9.75790786743164,0.0028689248741731116,-0.004062312325772837,-0.0009794834711641602,2.090017080307007,2019-08-07 14:36:20:356,-173.54732451855065,175.72278786718215,0,-39.13406753540039,5.547740936279297,-30.13772964477539
0.12862439453601837,0.19060291349887848,9.853697776794434,0.0034016871293515603,-0.00246402556023749,-0.003909676004682793,2.09999418258667,2019-08-07 14:36:20:366,-173.66004038830076,175.78426342938994,0,-37.78461456298828,5.6976799964904785,-30.58754539489746
0.13101914525032043,0.1762344241142273,9.772276878356934,0.005266355282550457,-0.003529550070594388,0.00061880342440835,2.1099953651428223,2019-08-07 14:36:20:376,-173.76949487735038,175.8449574192419,0,-37.78461456298828,5.6976799964904785,-30.58754539489746
0.1262296438217163,0.2025766670703888,9.767487525939941,-0.0005940299795425521,-0.00246402556023749,-0.0007131023435749355,2.11999249458313,2019-08-07 14:36:20:386,-173.87791347065755,175.904628959694,0,-37.78461456298828,5.6976799964904785,-30.58754539489746
0.1334138959646225,0.17383967339992523,9.810592651367188,0.0020697814914054373,-0.00246402556023749,0.00035242226430983473,2.1300017833709717,2019-08-07 14:36:20:396,-173.98338806478347,175.96507009251988,0,-37.78461456298828,5.6976799964904785,-30.58754539489746
0.152571901679039,0.17144492268562317,9.810592651367188,0.0012706381086377639,-0.0005993576020943366,-0.0015122457263426093,2.139991044998169,2019-08-07 14:36:20:406,-174.08556456808483,176.02503259593058,0,-37.78461456298828,5.6976799964904785,-30.58754539489746
0.15017715096473694,0.1498921662569046,9.8034086227417,0.00020511348449834825,-0.006193361606560959,-0.003909676004682793,2.1500000953674316,2019-08-07 14:36:20:416,-174.1828198052445,176.08689721271637,0,-37.78461456298828,5.6976799964904785,-30.58754539489746
0.1405981481075287,0.13552367687225342,9.824960708618164,0.004999974154961233,-0.002996787815415939,-0.004708819387450467,2.160000801086426,2019-08-07 14:36:20:426,-174.28108331997788,176.1465460479542,0,-37.78461456298828,5.6976799964904785,-30.58754539489746
0.14778240025043488,0.20018191635608673,9.827356338500977,0.0028689248741731116,-0.0021976444326482656,-0.005507962770218141,2.170020818710327,2019-08-07 14:36:20:436,-174.37699439063854,176.19866208738165,0,-37.78461456298828,5.6976799964904785,-30.58754539489746
0.12862439453601837,0.1690501719713211,9.84411907196045,-0.0029914601928641544,-0.00246402556023749,-0.004975200515039691,2.1800012588500977,2019-08-07 14:36:20:446,-174.47310184880604,176.25668872243693,0,-37.78461456298828,5.6976799964904785,-30.58754539489746
0.12862439453601837,0.18581341207027435,9.798619270324707,-0.005921652596345625,0.002064453868853653,-0.004442438259861242,2.1899912357330322,2019-08-07 14:36:20:456,-174.56975651126587,176.31314896535784,0,-37.78461456298828,5.6976799964904785,-30.58754539489746
0.107071653008461,0.17144492268562317,9.777066230773926,0.0020697814914054373,-0.004062312325772837,-0.004708819387450467,2.2000138759613037,2019-08-07 14:36:20:466,-174.6635264623209,176.3656291280963,0,-37.78461456298828,5.6976799964904785,-30.58754539489746
0.1262296438217163,0.1427079290151596,9.899198532104492,0.00393444938453001,-0.003263168943005164,-0.005774343897807364,2.2100043296813965,2019-08-07 14:36:20:476,-174.7538140649499,176.41959096625,0,-37.78461456298828,5.6976799964904785,-30.58754539489746
0.13101914525032043,0.16665542125701904,9.801013946533203,0.005266355282550457,-0.004595074841025611,-0.005774343897807364,2.2200236320495605,2019-08-07 14:36:20:486,-174.84083508250058,176.46875323593014,0,-37.78461456298828,5.6976799964904785,-30.58754539489746
0.12144014984369278,0.1690501719713211,9.841724395751953,-0.0005940299795425521,-0.004595074841025611,-0.006307106152985815,2.230053424835205,2019-08-07 14:36:20:496,-174.92729146835725,176.52003138668317,0,-38.234432220458984,5.84761905670166,-31.63711929321289
0.11665065586566925,0.16665542125701904,9.777066230773926,0.00047149462834221814,-0.00246402556023749,-0.008704536821437486,2.2400195598602295,2019-08-07 14:36:20:506,-175.01369545103972,176.56983604770687,0,-38.234432220458984,5.84761905670166,-31.63711929321289
0.09988740086555481,0.16665542125701904,9.822566032409668,0.004733593027372009,-0.0021976444326482656,-0.00018034003963255039,2.2500011920928955,2019-08-07 14:36:20:516,-175.1005372187607,176.6163458913821,0,-38.234432220458984,5.84761905670166,-31.63711929321289
0.13101914525032043,0.1762344241142273,9.779460906982422,-6.126766340918298e-05,-0.003529550070594388,-0.005241581642628916,2.260035276412964,2019-08-07 14:36:20:526,-175.18118653470174,176.66340532805327,0,-38.234432220458984,5.84761905670166,-31.63711929321289
0.11904539912939072,0.19299766421318054,9.808197975158691,0.0012706381086377639,-0.003263168943005164,-0.006573487280575038,2.2699944972991943,2019-08-07 14:36:20:536,-175.26183033070848,176.70688119302383,0,-38.234432220458984,5.84761905670166,-31.63711929321289
0.13101914525032043,0.16426067054271698,9.81538200378418,0.002336162618994662,-0.003529550070594388,-0.0023113892391474454,2.280001640319824,2019-08-07 14:36:20:546,-175.33931529797746,176.75225574307467,0,-38.234432220458984,5.84761905670166,-31.63711929321289
0.09988740086555481,0.18102392554283142,9.81538200378418,0.0020697814914054373,-0.004062312325772837,-0.005241581642628916,2.2899999618530273,2019-08-07 14:36:20:556,-175.4185872484557,176.7949170542218,0,-38.234432220458984,5.84761905670166,-31.63711929321289
0.11186115443706512,0.16426067054271698,9.858488082885742,0.001803400363816213,0.0009989292934781736,-0.0012458645987533845,2.300034761428833,2019-08-07 14:36:20:566,-175.49777656806103,176.83891127291565,0,-38.234432220458984,5.84761905670166,-31.63711929321289
0.08551890403032303,0.19060291349887848,9.810592651367188,-0.0011267922997395827,-0.00033297644199582136,-0.0020450079815210586,2.3100080490112305,2019-08-07 14:36:20:576,-175.57764588085726,176.88050368449615,0,-38.234432220458984,5.84761905670166,-31.63711929321289
0.08791365474462509,0.1570764183998108,9.808197975158691,0.00020511348449834825,-0.005926980478971734,-0.006573487280575038,2.3200523853302,2019-08-07 14:36:20:586,-175.65247932593078,176.92442787845434,0,-38.234432220458984,5.84761905670166,-31.63711929321289
0.09030840545892715,0.1953924149274826,9.827356338500977,-0.0024586979376857053,-0.006992504989328633,-0.004975200515039691,2.3300154209136963,2019-08-07 14:36:20:596,-175.72498788571838,176.96453410779137,0,-38.234432220458984,5.84761905670166,-31.63711929321289
0.10946640372276306,0.1834186613559723,9.793828964233398,0.0012706381086377639,-0.0021976444326482656,-0.00604072502539659,2.340015411376953,2019-08-07 14:36:20:606,-175.7964466986275,177.00307178566274,0,-38.234432220458984,5.84761905670166,-31.63711929321289
0.10228215157985687,0.15947116911411285,9.836935043334961,0.0010042569160299579,-0.00566059935138251,-0.002844151494325895,2.3500232696533203,2019-08-07 14:36:20:616,-175.86542231499996,177.04387066984233,0,-39.13406753540039,5.547740936279297,-31.037363052368164
0.09030840545892715,0.16426067054271698,9.779460906982422,0.002336162618994662,-0.004595074841025611,0.0011515656795867992,2.3600239753723145,2019-08-07 14:36:20:626,-175.93495190468687,177.08243585548357,0,-39.13406753540039,5.547740936279297,-31.037363052368164
0.12144014984369278,0.19299766421318054,9.834540367126465,-0.0019259356825072562,-6.659528596096748e-05,-0.005241581642628916,2.370023012161255,2019-08-07 14:36:20:636,-176.00206605231745,177.11938334200127,0,-39.13406753540039,5.547740936279297,-31.037363052368164
0.11186115443706512,0.17383967339992523,9.793828964233398,0.0015370192362269886,-0.005394218223793286,-0.0009794834711641602,2.3800132274627686,2019-08-07 14:36:20:646,-176.06591123326155,177.15579571188525,0,-39.13406753540039,5.547740936279297,-31.037363052368164
0.107071653008461,0.15468166768550873,9.877645492553711,-0.0008604111071317767,-0.0037959311981836125,-0.004442438259861242,2.390024423599243,2019-08-07 14:36:20:656,-176.13003820833987,177.1952201489872,0,-39.13406753540039,5.547740936279297,-31.037363052368164
0.09988740086555481,0.16186591982841492,9.779460906982422,0.0010042569160299579,-0.00246402556023749,-0.0007131023435749355,2.4000301361083984,2019-08-07 14:36:20:666,-176.19434913348425,177.23178650743333,0,-39.13406753540039,5.547740936279297,-31.037363052368164
0.11186115443706512,0.19778716564178467,9.808197975158691,0.005266355282550457,-0.0048614559686148365,-0.0023113892391474454,2.4100253582000732,2019-08-07 14:36:20:676,-176.2546653103719,177.26109031538877,0,-39.13406753540039,5.547740936279297,-31.037363052368164
0.13101914525032043,0.1498921662569046,9.846513748168945,-0.00032764881944403687,-0.0037959311981836125,-0.0023113892391474454,2.420008420944214,2019-08-07 14:36:20:686,-176.3121973841276,177.29860939885177,0,-39.13406753540039,5.547740936279297,-31.037363052368164
0.11904539912939072,0.18820816278457642,9.839329719543457,0.0034016871293515603,-0.0013985010498805918,-0.0015122457263426093,2.4300246238708496,2019-08-07 14:36:20:696,-176.37130322721936,177.3288075021796,0,-39.13406753540039,5.547740936279297,-31.037363052368164
0.09988740086555481,0.16665542125701904,9.791434288024902,0.0015370192362269886,-0.005127837096204061,0.0008851845519975746,2.4400219917297363,2019-08-07 14:36:20:706,-176.42930898477283,177.36186633515015,0,-39.13406753540039,5.547740936279297,-31.037363052368164
0.09988740086555481,0.17862917482852936,9.767487525939941,0.002602543746583887,-0.006726123861739408,-0.006573487280575038,2.4500274658203125,2019-08-07 14:36:20:716,-176.48522570873553,177.39221255540915,0,-39.13406753540039,5.547740936279297,-31.037363052368164
0.12144014984369278,0.15228691697120667,9.880040168762207,-0.0011267922997395827,-0.0019312633050590406,-0.00018034003963255039,2.4600255489349365,2019-08-07 14:36:20:726,-176.54035273069337,177.4273395975211,0,-39.13406753540039,5.547740936279297,-31.037363052368164
0.13820339739322662,0.17862917482852936,9.789039611816406,-0.0024586979376857053,-0.0013985010498805918,-0.0015122457263426093,2.4700191020965576,2019-08-07 14:36:20:736,-176.59258376111535,177.45926426671926,0,-39.13406753540039,5.547740936279297,-31.037363052368164
0.07115040719509125,0.1953924149274826,9.824960708618164,-0.0032578413204533796,-0.0013985010498805918,-0.002844151494325895,2.4800262451171875,2019-08-07 14:36:20:746,-176.65164792130238,177.4891233428415,0,-39.28400421142578,5.6976799964904785,-31.487178802490234
0.11904539912939072,0.20497141778469086,9.75790786743164,0.0028689248741731116,-0.0075252672445070825,0.0008851845519975746,2.4900288581848145,2019-08-07 14:36:20:756,-176.7004090812067,177.51366236930537,0,-39.28400421142578,5.6976799964904785,-31.487178802490234
0.15017715096473694,0.16426067054271698,9.77467155456543,-0.0037906035756318283,-0.0037959311981836125,-0.005241581642628916,2.500044584274292,2019-08-07 14:36:20:766,-176.74666178129493,177.54626590349952,0,-39.28400421142578,5.6976799964904785,-31.487178802490234
0.1262296438217163,0.19778716564178467,9.848908424377441,-0.0019259356825072562,0.0007325481658889489,-0.00604072502539659,2.510030746459961,2019-08-07 14:36:20:776,-176.79745334918627,177.57341115386978,0,-39.28400421142578,5.6976799964904785,-31.487178802490234
0.11186115443706512,0.18581341207027435,9.824960708618164,-0.00032764881944403687,-0.004328693453362062,-0.004708819387450467,2.5200235843658447,2019-08-07 14:36:20:786,-176.84602931838097,177.60045736308902,0,-39.28400421142578,5.6976799964904785,-31.487178802490234
0.09509790688753128,0.21933990716934204,9.839329719543457,-0.0019259356825072562,-0.008324410627274756,-0.005241581642628916,2.5300204753875732,2019-08-07 14:36:20:796,-176.8933610191795,177.62398858698376,0,-39.28400421142578,5.6976799964904785,-31.487178802490234
0.11904539912939072,0.15228691697120667,9.839329719543457,0.0034016871293515603,-0.0019312633050590406,-0.0007131023435749355,2.540022611618042,2019-08-07 14:36:20:806,-176.94054548498096,177.65186402438465,0,-39.28400421142578,5.6976799964904785,-31.487178802490234
0.07593990862369537,0.15468166768550873,9.784250259399414,-0.00272507906527493,-0.0019312633050590406,-0.006307106152985815,2.550025701522827,2019-08-07 14:36:20:816,-176.99175605761175,177.6822427867855,0,-39.28400421142578,5.6976799964904785,-31.487178802490234
0.08551890403032303,0.14749743044376373,9.772276878356934,0.0010042569160299579,0.0004661670057904337,-0.0033769137495043436,2.5600180625915527,2019-08-07 14:36:20:826,-177.04215463689204,177.71073995966435,0,-39.28400421142578,5.6976799964904785,-31.487178802490234
0.13101914525032043,0.1690501719713211,9.824960708618164,-6.126766340918298e-05,-0.0019312633050590406,-0.003909676004682793,2.5700278282165527,2019-08-07 14:36:20:836,-177.08494582056744,177.73684469615696,0,-39.28400421142578,5.6976799964904785,-31.487178802490234
0.13580864667892456,0.18102392554283142,9.839329719543457,-6.126766340918298e-05,-0.006193361606560959,-0.002844151494325895,2.580022096633911,2019-08-07 14:36:20:846,-177.12395568641617,177.7610620147251,0,-39.28400421142578,5.6976799964904785,-31.487178802490234
0.10228215157985687,0.18820816278457642,9.85609245300293,0.0012706381086377639,-0.0008657387296835611,-0.0015122457263426093,2.5900185108184814,2019-08-07 14:36:20:856,-177.16909925950935,177.78324826303023,0,-39.28400421142578,5.6976799964904785,-31.487178802490234
0.09749265760183334,0.1690501719713211,9.834540367126465,0.0012706381086377639,-0.006726123861739408,-0.0041760571322720175,2.600020170211792,2019-08-07 14:36:20:866,-177.2105805159498,177.80717401835486,0,-38.53430938720703,6.4473748207092285,-31.33724021911621
0.12862439453601837,0.19060291349887848,9.791434288024902,0.0010042569160299579,-0.006193361606560959,-0.0033769137495043436,2.6100170612335205,2019-08-07 14:36:20:876,-177.24784005984998,177.82816291452892,0,-38.53430938720703,6.4473748207092285,-31.33724021911621
0.1717298924922943,0.18820816278457642,9.824960708618164,-0.00272507906527493,-0.0037959311981836125,-0.0007131023435749355,2.62001633644104,2019-08-07 14:36:20:886,-177.28072465318826,177.85118105718465,0,-38.53430938720703,6.4473748207092285,-31.33724021911621
0.14778240025043488,0.17144492268562317,9.801013946533203,-0.0013931734273288073,-0.0037959311981836125,-0.0017786268539318336,2.630021810531616,2019-08-07 14:36:20:896,-177.31570046008534,177.87489716469753,0,-38.53430938720703,6.4473748207092285,-31.33724021911621
0.12144014984369278,0.18102392554283142,9.810592651367188,0.00047149462834221814,-0.005926980478971734,-0.0007131023435749355,2.6400294303894043,2019-08-07 14:36:20:906,-177.35187196350526,177.89599237279572,0,-38.53430938720703,6.4473748207092285,-31.33724021911621
0.09509790688753128,0.12833942472934723,9.808197975158691,0.00393444938453001,-0.004595074841025611,-0.00257777036673667,2.650036573410034,2019-08-07 14:36:20:916,-177.39114238168975,177.9208684083085,0,-38.53430938720703,6.4473748207092285,-31.33724021911621
0.11904539912939072,0.1953924149274826,9.841724395751953,-0.003524222448042604,-0.0019312633050590406,-0.0015122457263426093,2.6600184440612793,2019-08-07 14:36:20:926,-177.42837679080844,177.9416788822724,0,-38.53430938720703,6.4473748207092285,-31.33724021911621
0.17651939392089844,0.16665542125701904,9.805803298950195,-0.0019259356825072562,-0.0027304066878267143,-0.004442438259861242,2.6700143814086914,2019-08-07 14:36:20:936,-177.4576507601087,177.9644526378243,0,-38.53430938720703,6.4473748207092285,-31.33724021911621
0.13820339739322662,0.17862917482852936,9.86567211151123,0.0015370192362269886,-0.0019312633050590406,-0.0017786268539318336,2.6800179481506348,2019-08-07 14:36:20:946,-177.49136143272932,177.98355440940387,0,-38.53430938720703,6.4473748207092285,-31.33724021911621
0.107071653008461,0.14031317830085754,9.805803298950195,0.0010042569160299579,-0.0013985010498805918,8.60411123386422e-05,2.6900224685668945,2019-08-07 14:36:20:956,-177.5282365937251,178.00692316364444,0,-38.53430938720703,6.4473748207092285,-31.33724021911621
0.14299289882183075,0.19299766421318054,9.772276878356934,0.0015370192362269886,-0.005394218223793286,-0.00257777036673667,2.7000198364257812,2019-08-07 14:36:20:966,-177.55787739284042,178.02329356546056,0,-38.53430938720703,6.4473748207092285,-31.33724021911621
0.12383490055799484,0.18820816278457642,9.86567211151123,-0.002192316810096481,-0.008324410627274756,-0.0015122457263426093,2.7100155353546143,2019-08-07 14:36:20:976,-177.58766481865467,178.04220008178885,0,-38.53430938720703,6.4473748207092285,-31.33724021911621
0.16454564034938812,0.16426067054271698,9.791434288024902,-0.0005940299795425521,-0.0016648821774698163,-0.0020450079815210586,2.720017194747925,2019-08-07 14:36:20:986,-177.61572117037076,178.06246765613443,0,-38.53430938720703,6.4473748207092285,-31.33724021911621
0.11186115443706512,0.19060291349887848,9.793828964233398,0.00020511348449834825,-0.00859079175486398,-0.007639012311080588,2.7300140857696533,2019-08-07 14:36:20:996,-177.64549691331462,178.07880471011967,0,-38.38437271118164,6.897191524505615,-28.788278579711914
0.08791365474462509,0.20976091921329498,9.796224594116211,0.003135306001762336,-0.0027304066878267143,-0.0009794834711641602,2.7400195598602295,2019-08-07 14:36:21:006,-177.68076957255295,178.09093410008927,0,-38.38437271118164,6.897191524505615,-28.788278579711914
0.11425590515136719,0.17862917482852936,9.796224594116211,0.0012706381086377639,-0.0037959311981836125,-0.0033769137495043436,2.7500152587890625,2019-08-07 14:36:21:016,-177.71165918323211,178.10750939060546,0,-38.38437271118164,6.897191524505615,-28.788278579711914
0.12383490055799484,0.17144492268562317,9.760302543640137,-0.00032764881944403687,-0.0019312633050590406,-0.004975200515039691,2.7600150108337402,2019-08-07 14:36:21:026,-177.74180347605883,178.125416623578,0,-38.38437271118164,6.897191524505615,-28.788278579711914
0.14299289882183075,0.2025766670703888,9.793828964233398,-0.0032578413204533796,-0.0027304066878267143,-0.0031105326219151193,2.770014762878418,2019-08-07 14:36:21:036,-177.76870479542873,178.14103865074725,0,-38.38437271118164,6.897191524505615,-28.788278579711914
0.12144014984369278,0.1834186613559723,9.839329719543457,0.0034016871293515603,-0.00805802949968553,-0.00257777036673667,2.780026435852051,2019-08-07 14:36:21:046,-177.7946583073019,178.15494663400878,0,-38.38437271118164,6.897191524505615,-28.788278579711914
0.1597561538219452,0.16665542125701904,9.805803298950195,-0.00272507906527493,-0.00805802949968553,-0.0023113892391474454,2.7900216579437256,2019-08-07 14:36:21:056,-177.81557512432917,178.1739034607061,0,-38.38437271118164,6.897191524505615,-28.788278579711914
0.12144014984369278,0.20018191635608673,9.834540367126465,0.0015370192362269886,0.0004661670057904337,-0.004975200515039691,2.800015687942505,2019-08-07 14:36:21:066,-177.84537579300095,178.18624099907257,0,-38.38437271118164,6.897191524505615,-28.788278579711914
0.12144014984369278,0.15947116911411285,9.8034086227417,0.0007378757884407334,-0.0013985010498805918,-0.007106249535753488,2.8100223541259766,2019-08-07 14:36:21:076,-177.87348814414113,178.2034627243912,0,-38.38437271118164,6.897191524505615,-28.788278579711914
0.152571901679039,0.15947116911411285,9.805803298950195,0.00393444938453001,-0.00566059935138251,-0.0017786268539318336,2.8200178146362305,2019-08-07 14:36:21:086,-177.89501314492452,178.21855097352437,0,-38.38437271118164,6.897191524505615,-28.788278579711914
0.12144014984369278,0.19299766421318054,9.75790786743164,0.004733593027372009,0.0009989292934781736,-0.00897091742887806,2.829990863800049,2019-08-07 14:36:21:096,-177.92341173378844,178.22886757075315,0,-38.38437271118164,6.897191524505615,-28.788278579711914
0.10228215157985687,0.16426067054271698,9.817776679992676,0.002336162618994662,-0.00033297644199582136,-0.002844151494325895,2.84002947807312,2019-08-07 14:36:21:106,-177.95281802992253,178.24380294117967,0,-38.38437271118164,6.897191524505615,-28.788278579711914
0.14299289882183075,0.17862917482852936,9.848908424377441,0.003135306001762336,-0.00246402556023749,-0.003643294877093568,2.8500139713287354,2019-08-07 14:36:21:116,-177.97574428403212,178.25638800513232,0,-37.484737396240234,5.6976799964904785,-29.987789154052734
0.13580864667892456,0.19778716564178467,9.805803298950195,-0.002192316810096481,0.002330834996442878,-0.004708819387450467,2.860013484954834,2019-08-07 14:36:21:126,-178.0016683811494,178.26938070373888,0,-37.484737396240234,5.6976799964904785,-29.987789154052734
0.107071653008461,0.1427079290151596,9.841724395751953,0.002602543746583887,-0.002996787815415939,-0.007639012311080588,2.8700108528137207,2019-08-07 14:36:21:136,-178.0274864288741,178.28591719728513,0,-37.484737396240234,5.6976799964904785,-29.987789154052734
0.06396616250276566,0.1570764183998108,9.863277435302734,-0.0008604111071317767,-0.003263168943005164,-0.00257777036673667,2.8800270557403564,2019-08-07 14:36:21:146,-178.0576699818805,178.30243515976008,0,-37.484737396240234,5.6976799964904785,-29.987789154052734
0.107071653008461,0.15228691697120667,9.853697776794434,-0.0019259356825072562,-0.001132119922291367,-0.0023113892391474454,2.890017509460449,2019-08-07 14:36:21:156,-178.08343031685283,178.31975834935568,0,-37.484737396240234,5.6976799964904785,-29.987789154052734
0.09988740086555481,0.20018191635608673,9.801013946533203,0.0007378757884407334,-0.0019312633050590406,-0.005241581642628916,2.9000253677368164,2019-08-07 14:36:21:166,-178.10899821928956,178.3295469118842,0,-37.484737396240234,5.6976799964904785,-29.987789154052734
0.13580864667892456,0.23610316216945648,9.796224594116211,0.0034016871293515603,-0.003263168943005164,-0.006573487280575038,2.910019874572754,2019-08-07 14:36:21:176,-178.12910176690065,178.33343410506706,0,-37.484737396240234,5.6976799964904785,-29.987789154052734
0.1405981481075287,0.20018191635608673,9.812987327575684,0.002336162618994662,-0.00246402556023749,-0.007905393438669812,2.9200665950775146,2019-08-07 14:36:21:186,-178.1487124379208,178.34207445933737,0,-37.484737396240234,5.6976799964904785,-29.987789154052734
0.0807294100522995,0.1953924149274826,9.834540367126465,0.003135306001762336,-0.0019312633050590406,-0.0041760571322720175,2.930030584335327,2019-08-07 14:36:21:196,-178.17525135435227,178.3507148108412,0,-37.484737396240234,5.6976799964904785,-29.987789154052734
0.09030840545892715,0.1834186613559723,9.829751014709473,-0.0008604111071317767,-0.004595074841025611,-0.00897091742887806,2.940014600753784,2019-08-07 14:36:21:206,-178.19864280317776,178.36280308200222,0,-37.484737396240234,5.6976799964904785,-29.987789154052734
0.12144014984369278,0.1570764183998108,9.827356338500977,-6.126766340918298e-05,-0.00566059935138251,-0.006573487280575038,2.9500157833099365,2019-08-07 14:36:21:216,-178.21733138519053,178.37726714255604,0,-37.484737396240234,5.6976799964904785,-29.987789154052734
0.107071653008461,0.23370841145515442,9.8034086227417,-0.0005940299795425521,-0.0005993576020943366,-0.00257777036673667,2.960015058517456,2019-08-07 14:36:21:226,-178.2401331883963,178.38274243519786,0,-37.484737396240234,5.6976799964904785,-29.987789154052734
0.09749265760183334,0.19299766421318054,9.880040168762207,0.002602543746583887,-0.0013985010498805918,-0.003909676004682793,2.9699997901916504,2019-08-07 14:36:21:236,-178.2632393541627,178.39124691299284,0,-37.484737396240234,5.6976799964904785,-29.987789154052734
0.07833465933799744,0.17383967339992523,9.875250816345215,-0.0013931734273288073,-0.0013985010498805918,-0.004975200515039691,2.9800100326538086,2019-08-07 14:36:21:246,-178.2880988106659,178.4040349184376,0,-37.63467788696289,6.4473748207092285,-30.437606811523438
0.09749265760183334,0.18102392554283142,9.829751014709473,0.0020697814914054373,-0.005394218223793286,-0.00897091742887806,2.990010976791382,2019-08-07 14:36:21:256,-178.30794274573464,178.41369122419812,0,-37.63467788696289,6.4473748207092285,-30.437606811523438
0.09030840545892715,0.18581341207027435,9.772276878356934,0.00020511348449834825,-0.007791648372096307,-0.0041760571322720175,3.000013828277588,2019-08-07 14:36:21:266,-178.32681821108406,178.42351599061382,0,-37.63467788696289,6.4473748207092285,-30.437606811523438
0.09030840545892715,0.1427079290151596,9.75790786743164,-0.0011267922997395827,-0.005926980478971734,-0.0009794834711641602,3.0100317001342773,2019-08-07 14:36:21:276,-178.3463428828149,178.43892184609598,0,-37.63467788696289,6.4473748207092285,-30.437606811523438
0.11425590515136719,0.19060291349887848,9.834540367126465,-0.0013931734273288073,-0.002996787815415939,-0.0033769137495043436,3.0200321674346924,2019-08-07 14:36:21:286,-178.36442081380775,178.44871953726704,0,-37.63467788696289,6.4473748207092285,-30.437606811523438
0.12383490055799484,0.20018191635608673,9.858488082885742,0.001803400363816213,-0.005926980478971734,-0.0004467211834764202,3.030012607574463,2019-08-07 14:36:21:296,-178.37941754416275,178.45546928354574,0,-37.63467788696289,6.4473748207092285,-30.437606811523438
0.09270315617322922,0.18581341207027435,9.817776679992676,-0.0008604111071317767,-0.0016648821774698163,-0.004708819387450467,3.0400140285491943,2019-08-07 14:36:21:306,-178.4000743850343,178.46515782336394,0,-37.63467788696289,6.4473748207092285,-30.437606811523438
0.0807294100522995,0.1690501719713211,9.832145690917969,0.00020511348449834825,-0.003529550070594388,-0.004975200515039691,3.0500171184539795,2019-08-07 14:36:21:316,-178.4206818184342,178.47603896485603,0,-37.63467788696289,6.4473748207092285,-30.437606811523438
0.09030840545892715,0.17144492268562317,9.796224594116211,0.0015370192362269886,-0.0019312633050590406,-0.005774343897807364,3.0600194931030273,2019-08-07 14:36:21:326,-178.44061997589992,178.485602184902,0,-37.63467788696289,6.4473748207092285,-30.437606811523438
0.12144014984369278,0.16665542125701904,9.793828964233398,-0.004589746958399502,-0.005394218223793286,-0.005507962770218141,3.070030450820923,2019-08-07 14:36:21:336,-178.45456717563815,178.4989726594294,0,-37.63467788696289,6.4473748207092285,-30.437606811523438
0.12144014984369278,0.19299766421318054,9.784250259399414,-0.0013931734273288073,-0.0021976444326482656,-0.004975200515039691,3.0800156593322754,2019-08-07 14:36:21:346,-178.4700215390471,178.50717367028508,0,-37.63467788696289,6.4473748207092285,-30.437606811523438
0.1405981481075287,0.20018191635608673,9.798619270324707,-0.004589746958399502,-0.0075252672445070825,-0.005774343897807364,3.0900139808654785,2019-08-07 14:36:21:356,-178.47995503759816,178.51619955482147,0,-37.63467788696289,6.4473748207092285,-30.437606811523438
0.09749265760183334,0.20497141778469086,9.760302543640137,0.001803400363816213,-0.002996787815415939,-0.00604072502539659,3.1000168323516846,2019-08-07 14:36:21:366,-178.49722694731835,178.5208013829177,0,-37.78461456298828,6.897191524505615,-29.987789154052734
0.107071653008461,0.23370841145515442,9.841724395751953,-0.0029914601928641544,-0.005394218223793286,-0.003909676004682793,3.1100363731384277,2019-08-07 14:36:21:376,-178.51178130829567,178.52486174541818,0,-37.78461456298828,6.897191524505615,-29.987789154052734
0.11665065586566925,0.20736616849899292,9.810592651367188,0.004467211899782784,-0.0016648821774698163,-0.0007131023435749355,3.1200218200683594,2019-08-07 14:36:21:386,-178.52698760275,178.52764225416908,0,-37.78461456298828,6.897191524505615,-29.987789154052734
0.09988740086555481,0.1834186613559723,9.796224594116211,-0.00032764881944403687,-0.00805802949968553,-0.00257777036673667,3.1300222873687744,2019-08-07 14:36:21:396,-178.54023912023837,178.53582045925566,0,-37.78461456298828,6.897191524505615,-29.987789154052734
0.10467690229415894,0.1498921662569046,9.812987327575684,0.00393444938453001,-0.003529550070594388,-0.00257777036673667,3.140017509460449,2019-08-07 14:36:21:406,-178.55523022290168,178.54539356002846,0,-37.78461456298828,6.897191524505615,-29.987789154052734
0.10467690229415894,0.17383967339992523,9.860882759094238,-6.126766340918298e-05,-0.00566059935138251,-0.004708819387450467,3.1500139236450195,2019-08-07 14:36:21:416,-178.56878448018193,178.55432057236914,0,-37.78461456298828,6.897191524505615,-29.987789154052734
0.13820339739322662,0.14749743044376373,9.832145690917969,-0.0029914601928641544,-0.006459742734150184,-0.0004467211834764202,3.1600341796875,2019-08-07 14:36:21:426,-178.57766805645153,178.56772804290378,0,-37.78461456298828,6.897191524505615,-29.987789154052734
0.0807294100522995,0.18820816278457642,9.743539810180664,0.00047149462834221814,-0.0008657387296835611,-0.005507962770218141,3.1700174808502197,2019-08-07 14:36:21:436,-178.59613521061618,178.57397719824732,0,-37.78461456298828,6.897191524505615,-29.987789154052734
0.09749265760183334,0.17862917482852936,9.889619827270508,0.001803400363816213,-0.004328693453362062,-0.0009794834711641602,3.180011749267578,2019-08-07 14:36:21:446,-178.61048718304338,178.58079001928638,0,-37.78461456298828,6.897191524505615,-29.987789154052734
0.152571901679039,0.18820816278457642,9.75790786743164,-0.00272507906527493,-0.0037959311981836125,-0.0020450079815210586,3.1900198459625244,2019-08-07 14:36:21:456,-178.61822854961093,178.5886061838988,0,-37.78461456298828,6.897191524505615,-29.987789154052734
0.10228215157985687,0.20976091921329498,9.789039611816406,-0.0037906035756318283,-0.0013985010498805918,-0.0004467211834764202,3.2000129222869873,2019-08-07 14:36:21:466,-178.63310644200448,178.59440992190372,0,-37.78461456298828,6.897191524505615,-29.987789154052734
0.09749265760183334,0.1953924149274826,9.824960708618164,0.004467211899782784,-0.005926980478971734,-0.0012458645987533845,3.209991931915283,2019-08-07 14:36:21:476,-178.6457528099173,178.5972324364824,0,-37.78461456298828,6.897191524505615,-29.987789154052734
0.10467690229415894,0.2025766670703888,9.841724395751953,0.003668068256940785,-0.0016648821774698163,8.60411123386422e-05,3.2200257778167725,2019-08-07 14:36:21:486,-178.65971222452134,178.59963763253123,0,-37.78461456298828,6.897191524505615,-29.987789154052734
0.11904539912939072,0.19778716564178467,9.784250259399414,-0.0005940299795425521,-0.003263168943005164,-0.004975200515039691,3.2300214767456055,2019-08-07 14:36:21:496,-178.67074478621066,178.60481692454582,0,-37.63467788696289,5.84761905670166,-31.936996459960938
0.05917666107416153,0.19778716564178467,9.834540367126465,0.001803400363816213,-0.004328693453362062,-0.0015122457263426093,3.2400200366973877,2019-08-07 14:36:21:506,-178.68800453408986,178.60866517251924,0,-37.63467788696289,5.84761905670166,-31.936996459960938
0.12383490055799484,0.18581341207027435,9.760302543640137,-0.0008604111071317767,-0.001132119922291367,-0.003909676004682793,3.2500507831573486,2019-08-07 14:36:21:516,-178.69906865643046,178.6151635470921,0,-37.63467788696289,5.84761905670166,-31.936996459960938
0.12144014984369278,0.2217346578836441,9.882434844970703,0.003668068256940785,-0.007258886116917857,-0.0033769137495043436,3.2600224018096924,2019-08-07 14:36:21:526,-178.70694213893898,178.61509962538534,0,-37.63467788696289,5.84761905670166,-31.936996459960938
0.11904539912939072,0.15947116911411285,9.78664493560791,-0.005122509213577951,-0.0037959311981836125,-0.005774343897807364,3.270017147064209,2019-08-07 14:36:21:536,-178.71673470002693,178.62700162002534,0,-37.63467788696289,5.84761905670166,-31.936996459960938
0.107071653008461,0.1762344241142273,9.822566032409668,0.003135306001762336,-0.003529550070594388,-0.0007131023435749355,3.2800114154815674,2019-08-07 14:36:21:546,-178.7279286561283,178.63214455458476,0,-37.63467788696289,5.84761905670166,-31.936996459960938
0.08551890403032303,0.22412940859794617,9.777066230773926,0.0015370192362269886,-0.004595074841025611,-0.0020450079815210586,3.2900147438049316,2019-08-07 14:36:21:556,-178.74076615617955,178.63237397988595,0,-37.63467788696289,5.84761905670166,-31.936996459960938
0.09509790688753128,0.1834186613559723,9.75790786743164,0.003668068256940785,-0.006193361606560959,-0.0020450079815210586,3.300018787384033,2019-08-07 14:36:21:566,-178.75130443571754,178.63612889913566,0,-37.63467788696289,5.84761905670166,-31.936996459960938
0.09509790688753128,0.17144492268562317,9.829751014709473,-0.00272507906527493,-0.0013985010498805918,-0.005241581642628916,3.3100147247314453,2019-08-07 14:36:21:576,-178.76440759731517,178.64495144643925,0,-37.63467788696289,5.84761905670166,-31.936996459960938
0.08791365474462509,0.2025766670703888,9.820171356201172,-0.002192316810096481,-0.0027304066878267143,-0.0020450079815210586,3.320014238357544,2019-08-07 14:36:21:586,-178.77732803180703,178.6496480257115,0,-37.63467788696289,5.84761905670166,-31.936996459960938
0.11904539912939072,0.19299766421318054,9.810592651367188,-0.0011267922997395827,-0.006193361606560959,-0.003909676004682793,3.3300182819366455,2019-08-07 14:36:21:596,-178.78439821508857,178.65474803876768,0,-37.63467788696289,5.84761905670166,-31.936996459960938
0.09988740086555481,0.17144492268562317,9.81538200378418,0.004467211899782784,-0.0016648821774698163,-0.00257777036673667,3.3400156497955322,2019-08-07 14:36:21:606,-178.79611452419533,178.65913177380813,0,-37.63467788696289,5.84761905670166,-31.936996459960938
0.09509790688753128,0.18581341207027435,9.889619827270508,-0.0016595545549180318,-0.004328693453362062,-0.005241581642628916,3.350025177001953,2019-08-07 14:36:21:616,-178.8067406563695,178.66535409631248,0,-37.33479690551758,5.84761905670166,-31.037363052368164
0.12144014984369278,0.16665542125701904,9.810592651367188,-6.126766340918298e-05,-0.008324410627274756,-0.0017786268539318336,3.3600282669067383,2019-08-07 14:36:21:626,-178.8117462937136,178.67261729384342,0,-37.33479690551758,5.84761905670166,-31.037363052368164
0.13101914525032043,0.19778716564178467,9.74593448638916,0.0012706381086377639,-0.0016648821774698163,-0.008438155693848261,3.3700287342071533,2019-08-07 14:36:21:636,-178.8191723449913,178.67519906109578,0,-37.33479690551758,5.84761905670166,-31.037363052368164
0.1597561538219452,0.14031317830085754,9.784250259399414,-0.0016595545549180318,-0.00246402556023749,-0.003643294877093568,3.380023717880249,2019-08-07 14:36:21:646,-178.82269732483496,178.68619432359495,0,-37.33479690551758,5.84761905670166,-31.037363052368164
0.11665065586566925,0.17862917482852936,9.781855583190918,0.0010042569160299579,-0.002996787815415939,-0.00897091742887806,3.3900351524353027,2019-08-07 14:36:21:656,-178.83089412870896,178.6909823469999,0,-37.33479690551758,5.84761905670166,-31.037363052368164
0.16454564034938812,0.18102392554283142,9.824960708618164,0.002602543746583887,-0.004062312325772837,-0.003643294877093568,3.4000189304351807,2019-08-07 14:36:21:666,-178.83280928996598,178.69459275355763,0,-37.33479690551758,5.84761905670166,-31.037363052368164
0.13820339739322662,0.18581341207027435,9.846513748168945,-6.126766340918298e-05,-0.004328693453362062,-0.0009794834711641602,3.4100136756896973,2019-08-07 14:36:21:676,-178.83764107484168,178.69911329272824,0,-37.33479690551758,5.84761905670166,-31.037363052368164
0.1262296438217163,0.1834186613559723,9.824960708618164,0.0015370192362269886,-0.004595074841025611,-0.0015122457263426093,3.420018434524536,2019-08-07 14:36:21:686,-178.84358515299786,178.7028773802607,0,-37.33479690551758,5.84761905670166,-31.037363052368164
0.15017715096473694,0.1570764183998108,9.829751014709473,0.005266355282550457,-0.007791648372096307,8.60411123386422e-05,3.4300196170806885,2019-08-07 14:36:21:696,-178.8448322042457,178.70755260893617,0,-37.33479690551758,5.84761905670166,-31.037363052368164
0.11665065586566925,0.16426067054271698,9.805803298950195,-0.0037906035756318283,-0.0019312633050590406,-0.003909676004682793,3.440028429031372,2019-08-07 14:36:21:706,-178.85321893820011,178.71633798654227,0,-37.33479690551758,5.84761905670166,-31.037363052368164
0.11186115443706512,0.16186591982841492,9.796224594116211,-0.002192316810096481,-0.004328693453362062,-0.0023113892391474454,3.450021266937256,2019-08-07 14:36:21:716,-178.86064132953618,178.7243087483101,0,-37.33479690551758,5.84761905670166,-31.037363052368164
0.11186115443706512,0.15228691697120667,9.820171356201172,-0.0016595545549180318,-0.008857173402601856,-0.0012458645987533845,3.4600138664245605,2019-08-07 14:36:21:726,-178.8654063813685,178.73298478849568,0,-37.33479690551758,5.84761905670166,-31.037363052368164
0.11425590515136719,0.19060291349887848,9.848908424377441,0.004999974154961233,-0.0048614559686148365,-0.003643294877093568,3.4700160026550293,2019-08-07 14:36:21:736,-178.87207494834433,178.73334322818627,0,-37.33479690551758,5.84761905670166,-31.037363052368164
0.12144014984369278,0.18581341207027435,9.808197975158691,-6.126766340918298e-05,-0.005394218223793286,-0.0015122457263426093,3.4807536602020264,2019-08-07 14:36:21:747,-178.8771937553705,178.7370068673676,0,-38.234432220458984,6.747252941131592,-31.33724021911621
0.10946640372276306,0.17144492268562317,9.810592651367188,0.00393444938453001,-0.00246402556023749,-0.003643294877093568,3.4899942874908447,2019-08-07 14:36:21:756,-178.88558582256283,178.74020190243937,0,-38.234432220458984,6.747252941131592,-31.33724021911621
0.09509790688753128,0.18102392554283142,9.78664493560791,0.002602543746583887,-0.004062312325772837,-0.005241581642628916,3.5000038146972656,2019-08-07 14:36:21:766,-178.89445631255376,178.74274152208574,0,-38.234432220458984,6.747252941131592,-31.33724021911621
0.12383490055799484,0.18820816278457642,9.753118515014648,-6.126766340918298e-05,-0.003529550070594388,-0.0033769137495043436,3.510004997253418,2019-08-07 14:36:21:776,-178.90003625822496,178.74581084592674,0,-38.234432220458984,6.747252941131592,-31.33724021911621
0.11425590515136719,0.19060291349887848,9.822566032409668,-0.00032764881944403687,-0.004062312325772837,-0.007372630663342713,3.5200002193450928,2019-08-07 14:36:21:786,-178.90642697236046,178.74884527807404,0,-38.234432220458984,6.747252941131592,-31.33724021911621
0.14778240025043488,0.16665542125701904,9.777066230773926,0.0015370192362269886,-0.005394218223793286,-0.0012458645987533845,3.529989719390869,2019-08-07 14:36:21:796,-178.9079533321701,178.753475380281,0,-38.234432220458984,6.747252941131592,-31.33724021911621
0.11665065586566925,0.1570764183998108,9.841724395751953,0.001803400363816213,-0.004595074841025611,-0.007639012311080588,3.5400004386901855,2019-08-07 14:36:21:806,-178.91362985465634,178.75910462950773,0,-38.234432220458984,6.747252941131592,-31.33724021911621
0.10228215157985687,0.2025766670703888,9.827356338500977,0.0007378757884407334,0.0004661670057904337,-0.005507962770218141,3.549994945526123,2019-08-07 14:36:21:816,-178.9236927205515,178.75989040879395,0,-38.234432220458984,6.747252941131592,-31.33724021911621
0.10228215157985687,0.16665542125701904,9.808197975158691,-0.0019259356825072562,-0.00246402556023749,0.0008851845519975746,3.560007095336914,2019-08-07 14:36:21:826,-178.93188419912644,178.76630644063079,0,-38.234432220458984,6.747252941131592,-31.33724021911621
0.10467690229415894,0.20976091921329498,9.877645492553711,0.0007378757884407334,-0.005394218223793286,-0.00604072502539659,3.569995403289795,2019-08-07 14:36:21:836,-178.93807799211856,178.76623556175505,0,-38.234432220458984,6.747252941131592,-31.33724021911621
0.11186115443706512,0.14510267972946167,9.810592651367188,0.0007378757884407334,-0.0048614559686148365,-0.004975200515039691,3.5799925327301025,2019-08-07 14:36:21:846,-178.94352226079587,178.77354932842675,0,-38.234432220458984,6.747252941131592,-31.33724021911621
0.1405981481075287,0.1762344241142273,9.810592651367188,0.0007378757884407334,-6.659528596096748e-05,-0.0017786268539318336,3.589996576309204,2019-08-07 14:36:21:856,-178.9481931178955,178.7770812018739,0,-38.234432220458984,6.747252941131592,-31.33724021911621
0.07354515790939331,0.21215566992759705,9.801013946533203,0.00020511348449834825,-0.006726123861739408,-0.0012458645987533845,3.59999418258667,2019-08-07 14:36:21:866,-178.95685485398005,178.7766234770699,0,-39.58388137817383,6.897191524505615,-30.58754539489746
0.07593990862369537,0.15468166768550873,9.798619270324707,-0.0016595545549180318,0.0007325481658889489,-0.003643294877093568,3.610006093978882,2019-08-07 14:36:21:876,-178.96924883236605,178.78393595636382,0,-39.58388137817383,6.897191524505615,-30.58754539489746
0.09030840545892715,0.16665542125701904,9.805803298950195,-0.0032578413204533796,-0.006193361606560959,-0.0041760571322720175,3.619992971420288,2019-08-07 14:36:21:886,-178.97583762643356,178.79061047250175,0,-39.58388137817383,6.897191524505615,-30.58754539489746
0.07354515790939331,0.18820816278457642,9.81538200378418,0.00047149462834221814,-0.004062312325772837,-0.0012458645987533845,3.6299901008605957,2019-08-07 14:36:21:896,-178.98545453604768,178.79256356499172,0,-39.58388137817383,6.897191524505615,-30.58754539489746
0.1334138959646225,0.18102392554283142,9.822566032409668,0.0028689248741731116,-0.0005993576020943366,-0.0041760571322720175,3.6399993896484375,2019-08-07 14:36:21:906,-178.9898452819041,178.79398376210497,0,-39.58388137817383,6.897191524505615,-30.58754539489746
0.11186115443706512,0.17383967339992523,9.769882202148438,-0.0019259356825072562,-0.0037959311981836125,-0.00257777036673667,3.6499931812286377,2019-08-07 14:36:21:916,-178.99479859788906,178.79879721322135,0,-39.58388137817383,6.897191524505615,-30.58754539489746
0.07833465933799744,0.16665542125701904,9.798619270324707,-0.0005940299795425521,-0.0016648821774698163,-0.003643294877093568,3.660003900527954,2019-08-07 14:36:21:926,-179.00480601481408,178.80366726110748,0,-39.58388137817383,6.897191524505615,-30.58754539489746
0.12144014984369278,0.19778716564178467,9.8034086227417,0.0020697814914054373,-0.00246402556023749,-0.0023113892391474454,3.6700069904327393,2019-08-07 14:36:21:936,-179.00913156691882,178.8033152693111,0,-39.58388137817383,6.897191524505615,-30.58754539489746
0.04001866281032562,0.09960243105888367,9.913566589355469,-0.00911822664756497,-0.005127837096204061,-0.0004467211834764202,3.679992437362671,2019-08-07 14:36:21:946,-179.0214480941985,178.82084866257276,0,-39.58388137817383,6.897191524505615,-30.58754539489746
0.11904539912939072,0.12594467401504517,9.789039611816406,0.0034016871293515603,-0.011787365285934675,-0.004975200515039691,3.6900007724761963,2019-08-07 14:36:21:956,-179.02046012951214,178.82777764790114,0,-39.58388137817383,6.897191524505615,-30.58754539489746
-0.043797578662633896,0.2480769157409668,9.714802742004395,0.0007378757884407334,-0.001132119922291367,-0.002844151494325895,3.6999945640563965,2019-08-07 14:36:21:966,-171.84458177337393,178.82155232723844,0,-39.58388137817383,6.897191524505615,-30.58754539489746
0.10228215157985687,0.20736616849899292,9.93511962890625,-0.005122509213577951,0.0033963595067997765,-0.00604072502539659,3.710000991821289,2019-08-07 14:36:21:976,-171.99780161975457,178.82408529295935,0,-39.58388137817383,6.897191524505615,-30.58754539489746
0.12383490055799484,0.1953924149274826,9.858488082885742,-0.0008604111071317767,-0.0027304066878267143,-0.004442438259861242,3.7199947834014893,2019-08-07 14:36:21:986,-172.14192004814475,178.82537766066196,0,-39.58388137817383,6.897191524505615,-30.58754539489746
0.10946640372276306,0.16426067054271698,9.678881645202637,0.00393444938453001,-0.00912355401004243,-0.0023113892391474454,3.7311489582061768,2019-08-07 14:36:21:997,-172.2804079701915,178.82696042998873,0,-37.78461456298828,5.6976799964904785,-29.987789154052734
0.07115040719509125,0.10918142646551132,9.820171356201172,-0.005122509213577951,-0.0019312633050590406,-0.005774343897807364,3.7399792671203613,2019-08-07 14:36:22:006,-172.42553985631957,178.8402212137481,0,-37.78461456298828,5.6976799964904785,-29.987789154052734
0.1334138959646225,0.19299766421318054,9.858488082885742,0.00047149462834221814,-0.00033297644199582136,-0.004975200515039691,3.750005006790161,2019-08-07 14:36:22:016,-172.5613350019644,178.84072086761395,0,-37.78461456298828,5.6976799964904785,-29.987789154052734
0.13820339739322662,0.18581341207027435,9.78664493560791,0.0028689248741731116,-0.005926980478971734,-0.007106249535753488,3.759993553161621,2019-08-07 14:36:22:026,-172.69060299960472,178.84054316986368,0,-37.78461456298828,5.6976799964904785,-29.987789154052734
0.09270315617322922,0.15947116911411285,9.817776679992676,-0.0005940299795425521,-0.005926980478971734,-0.0068398684081642635,3.769998073577881,2019-08-07 14:36:22:036,-172.82264159741703,178.84545441469376,0,-37.78461456298828,5.6976799964904785,-29.987789154052734
0.107071653008461,0.1953924149274826,9.853697776794434,0.0007378757884407334,-0.0019312633050590406,-0.007372630663342713,3.779996633529663,2019-08-07 14:36:22:046,-172.95265333147418,178.84541128684367,0,-37.78461456298828,5.6976799964904785,-29.987789154052734
0.14299289882183075,0.20976091921329498,9.769882202148438,-0.004056984703221053,-0.0027304066878267143,0.0011515656795867992,3.78999662399292,2019-08-07 14:36:22:056,-173.0752966176173,178.84618184034596,0,-37.78461456298828,5.6976799964904785,-29.987789154052734
0.09270315617322922,0.23849791288375854,9.805803298950195,0.002602543746583887,-0.005127837096204061,-0.005241581642628916,3.800004005432129,2019-08-07 14:36:22:066,-173.20007622927162,178.83993019887322,0,-37.78461456298828,5.6976799964904785,-29.987789154052734
0.18849314749240875,0.21933990716934204,9.810592651367188,0.0012706381086377639,-0.009389935657780304,-0.00897091742887806,3.8099942207336426,2019-08-07 14:36:22:076,-173.30879339924593,178.83680333989557,0,-37.78461456298828,5.6976799964904785,-29.987789154052734
0.09270315617322922,0.21215566992759705,9.868066787719727,0.002336162618994662,-0.006726123861739408,-0.004442438259861242,3.8200604915618896,2019-08-07 14:36:22:086,-173.42805108432748,178.83411433921285,0,-37.78461456298828,5.6976799964904785,-29.987789154052734
0.07115040719509125,0.14749743044376373,9.824960708618164,0.00020511348449834825,-0.0037959311981836125,-0.008438155693848261,3.8302035331726074,2019-08-07 14:36:22:096,-173.5490298171598,178.84011344423797,0,-37.78461456298828,5.6976799964904785,-29.987789154052734
0.13101914525032043,0.2145504206418991,9.858488082885742,0.0007378757884407334,-6.659528596096748e-05,-0.0031105326219151193,3.840028762817383,2019-08-07 14:36:22:106,-173.66278417825578,178.83796945842673,0,-37.78461456298828,5.6976799964904785,-29.987789154052734
0.18130889534950256,0.13552367687225342,9.868066787719727,0.0028689248741731116,-0.005394218223793286,-0.0015122457263426093,3.8500051498413086,2019-08-07 14:36:22:116,-173.76545492478243,178.8438664656601,0,-38.53430938720703,5.84761905670166,-29.83785057067871
0.10467690229415894,0.13791842758655548,9.789039611816406,0.0010042569160299579,-0.00566059935138251,-0.002844151494325895,3.8600306510925293,2019-08-07 14:36:22:126,-173.87470617743284,178.85027999693844,0,-38.53430938720703,5.84761905670166,-29.83785057067871
0.05199240893125534,0.20976091921329498,9.78664493560791,0.0007378757884407334,-0.002996787815415939,-0.005507962770218141,3.8701536655426025,2019-08-07 14:36:22:136,-173.98942094232683,178.84829789512065,0,-38.53430938720703,5.84761905670166,-29.83785057067871
0.11904539912939072,0.19299766421318054,9.767487525939941,0.00393444938453001,-0.0027304066878267143,-0.0023113892391474454,3.8800160884857178,2019-08-07 14:36:22:146,-174.09415485499878,178.8465137221352,0,-38.53430938720703,5.84761905670166,-29.83785057067871
0.09509790688753128,0.15947116911411285,9.81538200378418,-6.126766340918298e-05,-0.0008657387296835611,-0.003643294877093568,3.890153169631958,2019-08-07 14:36:22:156,-174.2006769430249,178.85100219150593,0,-38.53430938720703,5.84761905670166,-29.83785057067871
0.07354515790939331,0.17144492268562317,9.870461463928223,-0.00272507906527493,-0.0005993576020943366,8.60411123386422e-05,3.900012493133545,2019-08-07 14:36:22:166,-174.30779350035215,178.85558877771987,0,-38.53430938720703,5.84761905670166,-29.83785057067871
0.11904539912939072,0.2025766670703888,9.839329719543457,0.0012706381086377639,-0.003529550070594388,-0.0041760571322720175,3.91020131111145,2019-08-07 14:36:22:176,-174.4057546916833,178.85416076212638,0,-38.53430938720703,5.84761905670166,-29.83785057067871
0.07833465933799744,0.17144492268562317,9.812987327575684,0.0012706381086377639,-0.003263168943005164,-0.00950367968405651,3.9200339317321777,2019-08-07 14:36:22:186,-174.50669063382918,178.85635751322107,0,-38.53430938720703,5.84761905670166,-29.83785057067871
0.1334138959646225,0.1762344241142273,9.824960708618164,-0.0011267922997395827,-0.002996787815415939,-0.00018034003963255039,3.9300074577331543,2019-08-07 14:36:22:196,-174.59931906413127,178.85930881779856,0,-38.53430938720703,5.84761905670166,-29.83785057067871
0.05199240893125534,0.19299766421318054,9.808197975158691,-0.0008604111071317767,-0.003263168943005164,-0.003909676004682793,3.9400360584259033,2019-08-07 14:36:22:206,-174.69942083501067,178.8600616665317,0,-38.53430938720703,5.84761905670166,-29.83785057067871
0.12144014984369278,0.1834186613559723,9.858488082885742,-0.002192316810096481,-0.0013985010498805918,-0.0015122457263426093,3.9500091075897217,2019-08-07 14:36:22:216,-174.79053422104113,178.86277062515487,0,-38.53430938720703,5.84761905670166,-29.83785057067871
0.13820339739322662,0.14031317830085754,9.801013946533203,0.0028689248741731116,0.0017980727412644285,-0.003643294877093568,3.9600234031677246,2019-08-07 14:36:22:226,-174.87957719229226,178.86749798762628,0,-38.53430938720703,5.84761905670166,-29.83785057067871
0.12144014984369278,0.21215566992759705,9.8034086227417,-6.126766340918298e-05,-0.002996787815415939,-0.0017786268539318336,3.970013380050659,2019-08-07 14:36:22:236,-174.96611028965117,178.86538749394214,0,-38.53430938720703,5.84761905670166,-29.83785057067871
0.13101914525032043,0.2145504206418991,9.801013946533203,0.00020511348449834825,-0.0037959311981836125,0.0014179468071760237,3.9800236225128174,2019-08-07 14:36:22:246,-175.04933689794555,178.86288364076,0,-37.93455505371094,5.547740936279297,-30.737483978271484
0.0017026669811457396,0.1570764183998108,9.85609245300293,-0.004589746958399502,-0.0037959311981836125,-0.0012458645987533845,3.990020751953125,2019-08-07 14:36:22:256,-175.14602140156174,178.86994146874903,0,-37.93455505371094,5.547740936279297,-30.737483978271484
0.11425590515136719,0.12594467401504517,9.875250816345215,-0.007786321009618847,-0.005926980478971734,-0.005241581642628916,4.000019073486328,2019-08-07 14:36:22:266,-175.2265159754725,178.88230019510522,0,-37.93455505371094,5.547740936279297,-30.737483978271484
0.06636090576648712,0.20018191635608673,9.863277435302734,0.00393444938453001,0.0031299783792105513,-0.0015122457263426093,4.01000714302063,2019-08-07 14:36:22:276,-175.31603134398833,178.87919369601653,0,-37.93455505371094,5.547740936279297,-30.737483978271484
0.1334138959646225,0.20018191635608673,9.827356338500977,0.0007378757884407334,-0.003529550070594388,-0.004708819387450467,4.020022869110107,2019-08-07 14:36:22:286,-175.3921700358932,178.87785593672092,0,-37.93455505371094,5.547740936279297,-30.737483978271484
0.1262296438217163,0.17144492268562317,9.796224594116211,0.0010042569160299579,-0.009922697912958753,-0.003909676004682793,4.03001594543457,2019-08-07 14:36:22:296,-175.4639939873501,178.87968255800612,0,-37.93455505371094,5.547740936279297,-30.737483978271484
0.12383490055799484,0.14510267972946167,9.808197975158691,0.0028689248741731116,0.0028635972516213265,-0.0004467211834764202,4.040014266967773,2019-08-07 14:36:22:306,-175.54185458018608,178.88352681794896,0,-37.93455505371094,5.547740936279297,-30.737483978271484
0.1262296438217163,0.1834186613559723,9.875250816345215,-6.126766340918298e-05,-0.006992504989328633,-0.00604072502539659,4.050012826919556,2019-08-07 14:36:22:316,-175.6124449905956,178.8846093819903,0,-37.93455505371094,5.547740936279297,-30.737483978271484
0.13580864667892456,0.16186591982841492,9.877645492553711,-0.0005940299795425521,-0.0027304066878267143,-0.003909676004682793,4.0601584911346436,2019-08-07 14:36:22:326,-175.68288633402378,178.88847905238137,0,-37.93455505371094,5.547740936279297,-30.737483978271484
0.14299289882183075,0.16665542125701904,9.829751014709473,0.0012706381086377639,-0.007791648372096307,0.0032826149603749208,4.070001840591431,2019-08-07 14:36:22:336,-175.74825374062138,178.89058098197046,0,-37.93455505371094,5.547740936279297,-30.737483978271484
0.11904539912939072,0.18820816278457642,9.779460906982422,0.0007378757884407334,-0.003529550070594388,-0.004442438259861242,4.080038785934448,2019-08-07 14:36:22:346,-175.81735096222693,178.89030280631755,0,-37.93455505371094,5.547740936279297,-30.737483978271484
0.11665065586566925,0.17144492268562317,9.829751014709473,0.0015370192362269886,-0.0019312633050590406,0.001950709062354473,4.090022563934326,2019-08-07 14:36:22:356,-175.8863232417339,178.89165073473302,0,-37.93455505371094,5.547740936279297,-30.737483978271484
0.11904539912939072,0.16426067054271698,9.820171356201172,-0.0011267922997395827,0.001531691613675204,-0.0023113892391474454,4.1000282764434814,2019-08-07 14:36:22:366,-175.95556658623525,178.89528498691465,0,-37.63467788696289,6.147497177124023,-30.737483978271484
0.1597561538219452,0.14510267972946167,9.824960708618164,0.0007378757884407334,-0.006992504989328633,-0.0009794834711641602,4.110026836395264,2019-08-07 14:36:22:376,-176.01389832486075,178.90004248603654,0,-37.63467788696289,6.147497177124023,-30.737483978271484
0.1334138959646225,0.1427079290151596,9.841724395751953,-0.00032764881944403687,-0.0048614559686148365,-0.0004467211834764202,4.120208501815796,2019-08-07 14:36:22:386,-176.07530804844572,178.9056140006121,0,-37.63467788696289,6.147497177124023,-30.737483978271484
0.13101914525032043,0.16665542125701904,9.784250259399414,0.003668068256940785,-0.004595074841025611,0.0016843279347652483,4.130399703979492,2019-08-07 14:36:22:396,-176.1358285929585,178.90588619841927,0,-37.63467788696289,6.147497177124023,-30.737483978271484
0.11425590515136719,0.19299766421318054,9.834540367126465,-0.0019259356825072562,0.0028635972516213265,-0.0023113892391474454,4.140027284622192,2019-08-07 14:36:22:406,-176.20134760509083,178.90632450842932,0,-37.63467788696289,6.147497177124023,-30.737483978271484
0.11425590515136719,0.1762344241142273,9.810592651367188,0.00020511348449834825,-0.0021976444326482656,-0.006573487280575038,4.150005340576172,2019-08-07 14:36:22:416,-176.26274445321857,178.9075004438488,0,-37.63467788696289,6.147497177124023,-30.737483978271484
0.13101914525032043,0.18581341207027435,9.860882759094238,-0.0029914601928641544,-0.001132119922291367,-0.0017786268539318336,4.160025596618652,2019-08-07 14:36:22:426,-176.3216279874922,178.90944304833303,0,-37.63467788696289,6.147497177124023,-30.737483978271484
0.07354515790939331,0.16665542125701904,9.848908424377441,-0.0013931734273288073,-0.003263168943005164,-0.0004467211834764202,4.170022487640381,2019-08-07 14:36:22:436,-176.38480694901546,178.91264778421626,0,-37.63467788696289,6.147497177124023,-30.737483978271484
0.10467690229415894,0.18581341207027435,9.769882202148438,0.002602543746583887,0.0004661670057904337,-0.0031105326219151193,4.180017709732056,2019-08-07 14:36:22:446,-176.4450952875831,178.91114265796435,0,-37.63467788696289,6.147497177124023,-30.737483978271484
0.14299289882183075,0.18581341207027435,9.824960708618164,0.00047149462834221814,-0.0027304066878267143,-0.004975200515039691,4.190057039260864,2019-08-07 14:36:22:456,-176.4979777053482,178.91098460968328,0,-37.63467788696289,6.147497177124023,-30.737483978271484
0.10467690229415894,0.17383967339992523,9.808197975158691,-6.126766340918298e-05,-0.002996787815415939,-0.00604072502539659,4.200194597244263,2019-08-07 14:36:22:466,-176.55408311975214,178.9124918075003,0,-37.63467788696289,6.147497177124023,-30.737483978271484
0.09030840545892715,0.17862917482852936,9.834540367126465,0.00020511348449834825,-0.006726123861739408,-0.002844151494325895,4.210400819778442,2019-08-07 14:36:22:476,-176.60862447045736,178.91331293410266,0,-37.63467788696289,6.147497177124023,-30.737483978271484
0.1597561538219452,0.19060291349887848,9.827356338500977,-0.0029914601928641544,-0.0048614559686148365,-0.004442438259861242,4.220032215118408,2019-08-07 14:36:22:486,-176.65519622612734,178.91444205908007,0,-37.63467788696289,6.147497177124023,-30.737483978271484
0.107071653008461,0.17862917482852936,9.822566032409668,0.003668068256940785,0.00019978586194656375,-0.0020450079815210586,4.230025291442871,2019-08-07 14:36:22:496,-176.709713755182,178.91325817240656,0,-39.733821868896484,5.84761905670166,-30.737483978271484
0.1453876495361328,0.1690501719713211,9.810592651367188,0.0010042569160299579,-0.002996787815415939,-0.00604072502539659,4.240018367767334,2019-08-07 14:36:22:506,-176.7568573497717,178.91468574321223,0,-39.733821868896484,5.84761905670166,-30.737483978271484
0.09749265760183334,0.17383967339992523,9.8034086227417,0.0034016871293515603,-0.00246402556023749,-0.00018034003963255039,4.249990701675415,2019-08-07 14:36:22:516,-176.80894499058869,178.91416936589928,0,-39.733821868896484,5.84761905670166,-30.737483978271484
0.0807294100522995,0.1690501719713211,9.851303100585938,0.003668068256940785,0.0028635972516213265,-0.003909676004682793,4.2600016593933105,2019-08-07 14:36:22:526,-176.8649854254065,178.91416191405497,0,-39.733821868896484,5.84761905670166,-30.737483978271484
0.15017715096473694,0.1762344241142273,9.772276878356934,0.0010042569160299579,-0.005926980478971734,-0.004442438259861242,4.270026922225952,2019-08-07 14:36:22:536,-176.906740648533,178.91465002179154,0,-39.733821868896484,5.84761905670166,-30.737483978271484
0.12144014984369278,0.19299766421318054,9.827356338500977,0.0034016871293515603,-0.0021976444326482656,8.60411123386422e-05,4.280004262924194,2019-08-07 14:36:22:546,-176.95321489007884,178.91194977129456,0,-39.733821868896484,5.84761905670166,-30.737483978271484
0.12383490055799484,0.2025766670703888,9.777066230773926,0.0020697814914054373,-0.002996787815415939,-0.006307106152985815,4.290007591247559,2019-08-07 14:36:22:556,-176.99795411560018,178.90880872111467,0,-39.733821868896484,5.84761905670166,-30.737483978271484
0.13820339739322662,0.17383967339992523,9.820171356201172,0.0020697814914054373,-0.002996787815415939,8.60411123386422e-05,4.30000638961792,2019-08-07 14:36:22:566,-177.04018665623346,178.90918727754996,0,-39.733821868896484,5.84761905670166,-30.737483978271484
0.11665065586566925,0.1762344241142273,9.796224594116211,-0.0008604111071317767,-0.0021976444326482656,-0.005507962770218141,4.310027599334717,2019-08-07 14:36:22:576,-177.08450173952144,178.91087483820914,0,-39.733821868896484,5.84761905670166,-30.737483978271484
0.1405981481075287,0.18820816278457642,9.86567211151123,0.001803400363816213,-0.001132119922291367,-0.005507962770218141,4.320048809051514,2019-08-07 14:36:22:586,-177.12584504990144,178.90978452107063,0,-39.733821868896484,5.84761905670166,-30.737483978271484
0.10946640372276306,0.15228691697120667,9.793828964233398,0.0015370192362269886,-0.0037959311981836125,-0.004975200515039691,4.330032825469971,2019-08-07 14:36:22:596,-177.16839268926302,178.91291045773207,0,-39.733821868896484,5.84761905670166,-30.737483978271484
0.1597561538219452,0.1570764183998108,9.812987327575684,0.00393444938453001,-0.005394218223793286,-0.002844151494325895,4.340092182159424,2019-08-07 14:36:22:606,-177.20332406905635,178.91408885125375,0,-39.733821868896484,5.84761905670166,-30.737483978271484
0.13101914525032043,0.16665542125701904,9.77467155456543,-0.00032764881944403687,-0.0019312633050590406,-0.008704536821437486,4.35028862953186,2019-08-07 14:36:22:616,-177.2427930151193,178.91645901462073,0,-38.83418655395508,5.84761905670166,-29.83785057067871
0.11665065586566925,0.18102392554283142,9.75790786743164,0.0015370192362269886,-0.005394218223793286,-0.00604072502539659,4.360076665878296,2019-08-07 14:36:22:626,-177.28127434353618,178.91602906701343,0,-38.83418655395508,5.84761905670166,-29.83785057067871
0.09988740086555481,0.17144492268562317,9.805803298950195,0.002336162618994662,-0.00246402556023749,-0.005507962770218141,4.369994878768921,2019-08-07 14:36:22:636,-177.32260409143413,178.91637428483085,0,-38.83418655395508,5.84761905670166,-29.83785057067871
0.13820339739322662,0.20976091921329498,9.772276878356934,-0.00272507906527493,-0.0019312633050590406,0.00035242226430983473,4.380059719085693,2019-08-07 14:36:22:646,-177.35885566625396,178.91499366487662,0,-38.83418655395508,5.84761905670166,-29.83785057067871
0.09749265760183334,0.19778716564178467,9.829751014709473,0.00020511348449834825,-0.005394218223793286,-0.005507962770218141,4.390044689178467,2019-08-07 14:36:22:656,-177.3972893025034,178.91352461703602,0,-38.83418655395508,5.84761905670166,-29.83785057067871
0.11425590515136719,0.1834186613559723,9.810592651367188,0.00393444938453001,-6.659528596096748e-05,-0.00604072502539659,4.400067567825317,2019-08-07 14:36:22:666,-177.43596110448937,178.9116183610703,0,-38.83418655395508,5.84761905670166,-29.83785057067871
0.10467690229415894,0.17383967339992523,9.84411907196045,-6.126766340918298e-05,-0.003529550070594388,-0.0017786268539318336,4.410073280334473,2019-08-07 14:36:22:676,-177.47307434111548,178.9131865185022,0,-38.83418655395508,5.84761905670166,-29.83785057067871
0.10467690229415894,0.17144492268562317,9.781855583190918,-0.0016595545549180318,-0.0013985010498805918,-0.0041760571322720175,4.420166969299316,2019-08-07 14:36:22:686,-177.5105581179142,178.91578114415614,0,-38.83418655395508,5.84761905670166,-29.83785057067871
0.07115040719509125,0.19060291349887848,9.812987327575684,0.00047149462834221814,-0.003263168943005164,-0.004708819387450467,4.430053234100342,2019-08-07 14:36:22:696,-177.55022705776415,178.9149488543775,0,-38.83418655395508,5.84761905670166,-29.83785057067871
0.07833465933799744,0.20497141778469086,9.84411907196045,0.0020697814914054373,-0.001132119922291367,-0.00604072502539659,4.440048456192017,2019-08-07 14:36:22:706,-177.58946869616528,178.91163177524226,0,-38.83418655395508,5.84761905670166,-29.83785057067871
0.13580864667892456,0.18581341207027435,9.84411907196045,-0.0005940299795425521,-0.0037959311981836125,-0.007106249535753488,4.45004940032959,2019-08-07 14:36:22:716,-177.61973975762353,178.91210547035624,0,-38.83418655395508,5.84761905670166,-29.83785057067871
0.1262296438217163,0.18102392554283142,9.829751014709473,0.0010042569160299579,-0.0016648821774698163,-0.002844151494325895,4.460067510604858,2019-08-07 14:36:22:726,-177.6516938696757,178.91219774418497,0,-38.83418655395508,5.84761905670166,-29.83785057067871
0.11665065586566925,0.15468166768550873,9.824960708618164,0.0012706381086377639,-0.005127837096204061,-0.003643294877093568,4.470062017440796,2019-08-07 14:36:22:736,-177.68217761240209,178.91520120813615,0,-38.83418655395508,5.84761905670166,-29.83785057067871
0.13101914525032043,0.1690501719713211,9.779460906982422,0.00020511348449834825,-0.004595074841025611,-0.0041760571322720175,4.480048894882202,2019-08-07 14:36:22:746,-177.71060597050865,178.9169755574674,0,-38.08449172973633,5.6976799964904785,-31.187301635742188
0.07593990862369537,0.16426067054271698,9.736355781555176,0.0007378757884407334,-0.004595074841025611,-0.00950367968405651,4.490037202835083,2019-08-07 14:36:22:756,-177.74487921067848,178.91889146977678,0,-38.08449172973633,5.6976799964904785,-31.187301635742188
0.09030840545892715,0.15468166768550873,9.777066230773926,0.001803400363816213,-0.004595074841025611,-0.0041760571322720175,4.5000598430633545,2019-08-07 14:36:22:766,-177.77681141147235,178.92137087481075,0,-38.08449172973633,5.6976799964904785,-31.187301635742188
0.11665065586566925,0.18102392554283142,9.841724395751953,0.0007378757884407334,-0.004595074841025611,-0.007372630663342713,4.510051488876343,2019-08-07 14:36:22:776,-177.80511569357668,178.9214544457343,0,-38.08449172973633,5.6976799964904785,-31.187301635742188
0.1453876495361328,0.20497141778469086,9.824960708618164,0.002602543746583887,-0.0019312633050590406,-0.003643294877093568,4.520062446594238,2019-08-07 14:36:22:786,-177.8309720155296,178.9176594470342,0,-38.08449172973633,5.6976799964904785,-31.187301635742188
0.10467690229415894,0.2145504206418991,9.841724395751953,0.0028689248741731116,-0.005127837096204061,-0.0020450079815210586,4.530050992965698,2019-08-07 14:36:22:796,-177.8592890633731,178.91272010560738,0,-38.08449172973633,5.6976799964904785,-31.187301635742188
