ACCELEROMETER X (m/s²),ACCELEROMETER Y (m/s²),ACCELEROMETER Z (m/s²),GYROSCOPE X (rad/s),GYROSCOPE Y (rad/s),GYROSCOPE Z (rad/s),Time since start in ms ,YYYY-MO-DD HH-MI-SS_SSS,Pitch (Deg),Roll (Deg),Heading (Deg),MagX,MagY,MagZ
0.08756642043590546,-0.020084764808416367,9.809069633483887,0.0002773027863296734,-0.002277292454816025,-0.03639059410663042,0.0,2019-07-25 15:12:12:522,-3.5897705832788267,-3.597653659947754,0,-33.13650894165039,20.841514587402344,0.44981685280799866
0.07080317288637161,0.003862731158733368,9.70370101928711,-0.006648607148666687,-0.00041262439914499955,-0.04091907483609319,0.00998544692993164,2019-07-25 15:12:12:532,-7.109382782041606,0.07757101208680428,0,-33.736263275146484,20.241758346557617,2.249084234237671
0.08756642043590546,0.008652230724692345,9.789911270141602,-0.003718414485110892,0.0003865190486412555,-0.04464841166263963,0.020000696182250977,2019-07-25 15:12:12:542,-10.557163053167073,3.677097911320415,0,-33.736263275146484,20.241758346557617,2.249084234237671
0.07080317288637161,-0.00332151772454381,9.789911270141602,-0.0018537463319119952,-0.0014781489420111885,-0.04411564628656928,0.02999734878540039,2019-07-25 15:12:12:552,-13.936902677578495,0.004985266546273959,0,-33.736263275146484,20.241758346557617,2.249084234237671
0.0851716697216034,-0.0009267681161873043,9.823437690734863,-0.005050319862982691,-0.0025436735824052492,-0.04278374116877181,0.03999733924865723,2019-07-25 15:12:12:562,-17.24680122937474,-3.5921705851650403,0,-33.736263275146484,20.241758346557617,2.249084234237671
0.0851716697216034,-0.010505766607820988,9.861754417419434,0.0010764462016066379,-0.0020109111971896377,-0.044914790189485604,0.050014495849609375,2019-07-25 15:12:12:572,-20.49083761681789,-7.119711885502625,0,-33.736263275146484,20.241758346557617,2.249084234237671
0.09475066512823105,0.011046980507671833,9.873727798461914,-0.0018537463319119952,-0.00041262439914499955,-0.04358288507168813,0.05998396873474121,2019-07-25 15:12:12:582,-23.669793739820637,-3.377562028532108,0,-33.736263275146484,20.241758346557617,2.249084234237671
0.0851716697216034,-0.027269015088677406,9.76596450805664,-0.0002554595176127117,-0.0030764358375836983,-0.03825526043930904,0.06999349594116211,2019-07-25 15:12:12:592,-26.784675212230177,-6.9066675365591195,0,-33.736263275146484,20.241758346557617,2.249084234237671
0.08277691900730133,0.011046980507671833,9.823437690734863,-0.0002554595176127117,0.0017184247190966692,-0.04358288507168813,0.07999587059020996,2019-07-25 15:12:12:602,-29.84029103357748,-3.169679354353834,0,-33.736263275146484,20.241758346557617,2.249084234237671
0.09475066512823105,-0.010505766607820988,9.80667495727539,-0.0031856519698581177,-0.0001462432553011296,-0.03932078703026053,0.08998513221740723,2019-07-25 15:12:12:612,-32.832331860660695,-6.7032713444547705,0,-33.736263275146484,20.241758346557617,2.249084234237671
0.06122417002916336,-0.02247951552271843,9.758779525756836,-0.0018537463319119952,0.002517568101864343,-0.04038631362121203,0.10000276565551758,2019-07-25 15:12:12:622,-35.76991223041062,-10.165523574610797,0,-33.736263275146484,20.241758346557617,2.249084234237671
0.1306719183921814,-0.005716267507523298,9.732437133789062,-0.0029192708422688934,0.0033167117447063417,-0.04171821873900951,0.10998940467834473,2019-07-25 15:12:12:632,-38.64098919181027,-13.559903082509095,0,-33.736263275146484,20.241758346557617,2.249084234237671
0.08038216829299927,0.011046980507671833,9.787516593933105,-0.004517557607804241,-0.0006790055592435148,-0.04464841166263963,0.12000441551208496,2019-07-25 15:12:12:642,-41.45837669856722,-9.687457982952001,0,-33.736263275146484,20.241758346557617,2.249084234237671
0.08277691900730133,-0.0081110168248415,9.782727241516113,-0.0039847956127001165,0.0019848058466858938,-0.04305012385680698,0.13001513481140137,2019-07-25 15:12:12:652,-44.220628848010804,-13.090518870714387,0,-34.485958099365234,20.991453170776367,1.4993895292282104
0.04925042390823364,-0.020084764808416367,9.804280281066895,-0.0029192708422688934,0.0014520435915074442,-0.042517362641925835,0.14003539085388184,2019-07-25 15:12:12:663,-46.93127694558759,-16.424718520164845,0,-34.485958099365234,20.991453170776367,1.4993895292282104
0.07319791615009308,-0.017690015956759453,9.75638484954834,-0.0031856519698581177,-0.0001462432553011296,-0.04438202897460446,0.15001320838928223,2019-07-25 15:12:12:672,-49.583972327996754,-19.692361637169945,0,-34.485958099365234,20.991453170776367,1.4993895292282104
0.04685567319393158,-0.00332151772454381,9.75638484954834,-0.0029192708422688934,-0.0014781489420111885,-0.04038631362121203,0.15999126434326172,2019-07-25 15:12:12:682,-52.185961432237,-22.896488712977096,0,-34.485958099365234,20.991453170776367,1.4993895292282104
0.027697674930095673,0.04217872768640518,9.768359184265137,-0.0029192708422688934,0.0038494739998847904,-0.045980316780437104,0.17000341415405273,2019-07-25 15:12:12:692,-54.741157128745385,-18.84186569047038,0,-34.485958099365234,20.991453170776367,1.4993895292282104
0.08038216829299927,-0.010505766607820988,9.811464309692383,-0.004251176740289341,-0.0006790055592435148,-0.0438492677597233,0.18002843856811523,2019-07-25 15:12:12:703,-57.2365638639213,-22.06140836816321,0,-34.485958099365234,20.991453170776367,1.4993895292282104
0.0851716697216034,0.015836479142308235,9.761174201965332,-0.0015873652043227706,0.0014520435915074442,-0.048377744327996866,0.1899557113647461,2019-07-25 15:12:12:712,-59.68264348091478,-18.021154505564578,0,-34.485958099365234,20.991453170776367,1.4993895292282104
0.03488192334771156,0.008652230724692345,9.789911270141602,-0.0023865085870904443,-0.002277292454816025,-0.04438202897460446,0.20000362396240234,2019-07-25 15:12:12:722,-62.083622853189844,-14.060397722805023,0,-34.485958099365234,20.991453170776367,1.4993895292282104
0.07559266686439514,-0.0009267681161873043,9.854569435119629,-0.005050319862982691,-0.0014781489420111885,-0.04225097995389066,0.2099761962890625,2019-07-25 15:12:12:732,-64.43233274963589,-17.37625403134894,0,-34.485958099365234,20.991453170776367,1.4993895292282104
0.06122417002916336,-0.010505766607820988,9.78512191772461,-0.0031856519698581177,0.0014520435915074442,-0.042517362641925835,0.22000503540039062,2019-07-25 15:12:12:742,-66.73733402283591,-20.625704744569326,0,-34.485958099365234,20.991453170776367,1.4993895292282104
0.06840842217206955,-0.03684801235795021,9.828227996826172,-0.008779655649231834,0.0019848058466858938,-0.04970965360698355,0.22998785972595215,2019-07-25 15:12:12:752,-68.99572398911745,-23.803973103254055,0,-34.485958099365234,20.991453170776367,1.4993895292282104
0.07080317288637161,0.011046980507671833,9.780332565307617,-0.0015873652043227706,0.00118566246391822,-0.045980316780437104,0.23999881744384766,2019-07-25 15:12:12:762,-71.20818045669036,-19.72829568334651,0,-34.485958099365234,20.991453170776367,1.4993895292282104
0.0588294193148613,0.003862731158733368,9.797096252441406,-0.003452033357521668,0.005980523020598588,-0.04278374116877181,0.24999165534973145,2019-07-25 15:12:12:772,-73.38049160834078,-15.732244649511639,0,-34.485958099365234,20.991453170776367,1.4993895292282104
0.08277691900730133,-0.00332151772454381,9.749200820922852,-0.005050319862982691,0.00012013789667006295,-0.04864412701603205,0.25998425483703613,2019-07-25 15:12:12:782,-75.50321986473118,-19.014375698076197,0,-33.736263275146484,19.64200210571289,0.44981685280799866
0.07080317288637161,0.0014679816085845232,9.878517150878906,-0.0031856519698581177,-0.002277292454816025,-0.041185453362939155,0.270003080368042,2019-07-25 15:12:12:792,-77.58366128171278,-15.032466364466766,0,-33.736263275146484,19.64200210571289,0.44981685280799866
0.07080317288637161,0.006257480941712856,9.763568878173828,-0.004251176740289341,0.0017184247190966692,-0.04358288507168813,0.2799975872039795,2019-07-25 15:12:12:802,-79.62464264655601,-11.13016573679091,0,-33.736263275146484,19.64200210571289,0.44981685280799866
0.030092423781752586,-0.024874264374375343,9.804280281066895,-0.003452033357521668,-0.0025436735824052492,-0.04305012385680698,0.289994478225708,2019-07-25 15:12:12:812,-81.62720480363785,-14.502717436901706,0,-33.736263275146484,19.64200210571289,0.44981685280799866
0.11630341410636902,0.023020729422569275,9.797096252441406,-0.00212012745950122,-0.0009453866868327393,-0.04411564628656928,0.29999446868896484,2019-07-25 15:12:12:822,-83.58052710591791,-10.61416525111091,0,-33.736263275146484,19.64200210571289,0.44981685280799866
0.037276674062013626,0.020625978708267212,9.775543212890625,-0.003452033357521668,-0.0012117678144219638,-0.04518117287752078,0.3099956512451172,2019-07-25 15:12:12:832,-85.50386642607819,-6.802361234209978,0,-33.736263275146484,19.64200210571289,0.44981685280799866
0.05403992161154747,0.003862731158733368,9.813858985900879,-0.007714131659023586,0.002251186974275118,-0.04171821873900951,0.31998419761657715,2019-07-25 15:12:12:842,-87.38874177862037,-3.0624385281228745,0,-33.736263275146484,19.64200210571289,0.44981685280799866
0.07319791615009308,-0.0081110168248415,9.775543212890625,-0.001320984076733546,0.0019848058466858938,-0.04651307799531825,0.32999348640441895,2019-07-25 15:12:12:852,-89.23350214686965,-6.599496542729836,0,-33.736263275146484,19.64200210571289,0.44981685280799866
0.06122417002916336,0.006257480941712856,9.739622116088867,-0.0047839387353934655,-0.0006790055592435148,-0.0470458392101994,0.3399949073791504,2019-07-25 15:12:12:862,-91.04124755200995,-2.8655562791303595,0,-33.736263275146484,19.64200210571289,0.44981685280799866
0.09954016655683517,0.003862731158733368,9.75638484954834,-0.0029192708422688934,0.0014520435915074442,-0.03718973800954674,0.3499882221221924,2019-07-25 15:12:12:872,-92.8095465018709,0.7929392283210293,0,-33.736263275146484,19.64200210571289,0.44981685280799866
0.0588294193148613,-0.03684801235795021,9.811464309692383,-0.0026528897146796686,0.0014520435915074442,-0.03985354824514169,0.35999369621276855,2019-07-25 15:12:12:882,-94.5473005252029,-2.817125557513253,0,-33.736263275146484,19.64200210571289,0.44981685280799866
0.09235591441392899,0.003862731158733368,9.780332565307617,-0.0031856519698581177,-0.0001462432553011296,-0.04198459726585548,0.36998724937438965,2019-07-25 15:12:12:892,-96.24545186553176,0.8405519616838584,0,-33.736263275146484,19.64200210571289,0.44981685280799866
0.0779874175786972,-0.020084764808416367,9.787516593933105,-0.006914988276255913,0.0006529002087397708,-0.043316502383652956,0.37999749183654785,2019-07-25 15:12:12:902,-97.91177928727097,-2.7700208372427406,0,-34.03614044189453,19.94188117980957,-0.7496947646141052
0.10193491727113724,0.02541547827422619,9.792305946350098,-0.0010546029491443213,0.0017184247190966692,-0.0470458392101994,0.38999056816101074,2019-07-25 15:12:12:912,-99.54257972577132,0.8829971632674214,0,-34.03614044189453,19.94188117980957,-0.7496947646141052
0.0588294193148613,0.018231229856610298,9.758779525756836,-0.0007882218215550968,0.0027839492294535677,-0.04065269214805801,0.39999866485595703,2019-07-25 15:12:12:922,-101.14638467456976,4.463639381147063,0,-34.03614044189453,19.94188117980957,-0.7496947646141052
0.08756642043590546,-0.0009267681161873043,9.856964111328125,-0.0002554595176127117,-0.0014781489420111885,-0.043316502383652956,0.40998387336730957,2019-07-25 15:12:12:932,-102.71244851498406,0.7746175624105582,0,-34.03614044189453,19.94188117980957,-0.7496947646141052
0.07080317288637161,-0.005716267507523298,9.787516593933105,-0.008246893914202035,-0.0001462432553011296,-0.04624669530728308,0.4200623035430908,2019-07-25 15:12:12:943,-104.24982734394985,-2.8355385945736407,0,-34.03614044189453,19.94188117980957,-0.7496947646141052
0.07080317288637161,-0.017690015956759453,9.792305946350098,-0.00212012745950122,0.00118566246391822,-0.048377744327996866,0.4299938678741455,2019-07-25 15:12:12:952,-105.75720660169753,-6.37557540146131,0,-34.03614044189453,19.94188117980957,-0.7496947646141052
0.042066171765327454,0.037389226257801056,9.852174758911133,-0.00798051278661281,0.003583092872295566,-0.047844983113115726,0.44002819061279297,2019-07-25 15:12:12:963,-107.23918855108512,-2.6479162209121134,0,-34.03614044189453,19.94188117980957,-0.7496947646141052
0.05643467232584953,0.008652230724692345,9.777937889099121,-0.004251176740289341,0.002251186974275118,-0.04757860042508055,0.45000219345092773,2019-07-25 15:12:12:972,-108.68905180115605,1.0064089386531077,0,-34.03614044189453,19.94188117980957,-0.7496947646141052
0.0851716697216034,-0.005716267507523298,9.830622673034668,-0.0010546029491443213,0.00118566246391822,-0.04464841166263963,0.45998287200927734,2019-07-25 15:12:12:982,-110.10600736091155,-2.6124619042198014,0,-34.03614044189453,19.94188117980957,-0.7496947646141052
0.03967142477631569,0.011046980507671833,9.725253105163574,-0.0029192708422688934,-0.0006790055592435148,-0.041185453362939155,0.46999382972717285,2019-07-25 15:12:12:992,-111.49883112196953,1.04012664394501,0,-34.03614044189453,19.94188117980957,-0.7496947646141052
0.0851716697216034,-0.027269015088677406,9.833017349243164,-0.0029192708422688934,0.0006529002087397708,-0.041451836050974335,0.4799931049346924,2019-07-25 15:12:13:002,-112.85929562743131,-2.5758589855169816,0,-34.03614044189453,19.94188117980957,-0.7496947646141052
0.042066171765327454,-0.010505766607820988,9.780332565307617,-0.006115844893488239,0.0009192813363289952,-0.046779460683353424,0.4899873733520508,2019-07-25 15:12:13:012,-114.19769692904772,-6.119678824655416,0,-34.03614044189453,19.94188117980957,-0.7496947646141052
0.08038216829299927,-0.020084764808416367,9.801885604858398,-0.007181369403845137,-0.0020109111971896377,-0.04438202897460446,0.4999985694885254,2019-07-25 15:12:13:022,-115.50321552117278,-9.590900344629192,0,-34.03614044189453,19.94188117980957,-0.7496947646141052
0.06122417002916336,0.003862731158733368,9.74441146850586,-0.0029192708422688934,0.0014520435915074442,-0.03958716971829571,0.5099751949310303,2019-07-25 15:12:13:032,-116.78676492870463,-5.797901248989424,0,-32.086936950683594,20.39169692993164,0.8996337056159973
0.0851716697216034,-0.010505766607820988,9.758779525756836,-0.004251176740289341,0.0009192813363289952,-0.0470458392101994,0.5200026035308838,2019-07-25 15:12:13:042,-118.04154627010806,-9.278316022164379,0,-32.086936950683594,20.39169692993164,0.8996337056159973
0.08038216829299927,0.023020729422569275,9.849780082702637,1.0921627247073539e-05,0.0049149985102416895,-0.03479230838139237,0.5299932956695557,2019-07-25 15:12:13:052,-119.27412115091919,-5.495434036989005,0,-32.086936950683594,20.39169692993164,0.8996337056159973
0.09235591441392899,0.006257480941712856,9.780332565307617,-0.00212012745950122,-0.0014781489420111885,-0.04464841166263963,0.5400009155273438,2019-07-25 15:12:13:062,-120.47698753013269,-1.7850671599868315,0,-32.086936950683594,20.39169692993164,0.8996337056159973
0.05403992161154747,-0.03205851465463638,9.780332565307617,-0.0010546029491443213,0.0017184247190966692,-0.042517362641925835,0.5499906539916992,2019-07-25 15:12:13:072,-121.66208014339696,-5.345018134305688,0,-32.086936950683594,20.39169692993164,0.8996337056159973
0.06361892074346542,0.04696822538971901,9.753990173339844,-0.0002554595176127117,0.0003865190486412555,-0.03825526043930904,0.5599832534790039,2019-07-25 15:12:13:082,-122.82158145527215,-1.6434923030883715,0,-32.086936950683594,20.39169692993164,0.8996337056159973
0.04685567319393158,0.006257480941712856,9.844990730285645,-0.005050319862982691,0.0027839492294535677,-0.042517362641925835,0.5699949264526367,2019-07-25 15:12:13:092,-123.96126107209638,1.991488256451287,0,-32.086936950683594,20.39169692993164,0.8996337056159973
0.04685567319393158,-0.0081110168248415,9.770753860473633,-0.0039847956127001165,0.0049149985102416895,-0.04624669530728308,0.5800051689147949,2019-07-25 15:12:13:102,-125.0793032435153,-1.645150498512177,0,-32.086936950683594,20.39169692993164,0.8996337056159973
0.05643467232584953,-0.012900516390800476,9.782727241516113,-0.0007882218215550968,0.002517568101864343,-0.041185453362939155,0.5899906158447266,2019-07-25 15:12:13:112,-126.17251823910917,-5.210294425166532,0,-32.086936950683594,20.39169692993164,0.8996337056159973
0.06361892074346542,0.006257480941712856,9.742016792297363,-0.00957879955214816,0.0006529002087397708,-0.04225097995389066,0.6000325679779053,2019-07-25 15:12:13:123,-127.24195287474973,-1.5014235329394592,0,-32.086936950683594,20.39169692993164,0.8996337056159973
0.0779874175786972,0.011046980507671833,9.849780082702637,-0.0058494637658990135,0.0006529002087397708,-0.036923355321511565,0.6099820137023926,2019-07-25 15:12:13:132,-128.2884057618792,2.1305876028866804,0,-32.086936950683594,20.39169692993164,0.8996337056159973
0.04446092247962952,0.03259972855448723,9.821043014526367,-0.003718414485110892,0.002517568101864343,-0.045980316780437104,0.6199932098388672,2019-07-25 15:12:13:142,-129.31886519219745,5.686262363079381,0,-32.086936950683594,20.39169692993164,0.8996337056159973
0.08996116369962692,-0.03205851465463638,9.837806701660156,-0.0031856519698581177,-0.002277292454816025,-0.049443270918948366,0.6299989223480225,2019-07-25 15:12:13:152,-130.320730005073,1.9780610650837227,0,-31.787057876586914,21.291330337524414,1.4993895292282104
0.09235591441392899,0.02781022898852825,9.773148536682129,-0.0023865085870904443,0.00118566246391822,-0.04438202897460446,0.6400015354156494,2019-07-25 15:12:13:162,-131.304152786575,5.536579435092345,0,-31.787057876586914,21.291330337524414,1.4993895292282104
0.12588241696357727,0.023020729422569275,9.768359184265137,-0.006382226021077464,0.0014520435915074442,-0.048377744327996866,0.6499950885772705,2019-07-25 15:12:13:172,-132.26411821368586,9.026728615592294,0,-31.787057876586914,21.291330337524414,1.4993895292282104
0.07319791615009308,0.013441730290651321,9.811464309692383,0.000543683913918898,0.00118566246391822,-0.047844983113115726,0.6599826812744141,2019-07-25 15:12:13:182,-133.21095188655448,12.444319238068719,0,-31.787057876586914,21.291330337524414,1.4993895292282104
0.06601367145776749,-0.0081110168248415,9.828227996826172,-0.003452033357521668,0.00118566246391822,-0.04464841166263963,0.6700026988983154,2019-07-25 15:12:13:192,-134.13970322575878,8.598320743681684,0,-31.787057876586914,21.291330337524414,1.4993895292282104
0.09235591441392899,-0.034453265368938446,9.804280281066895,1.0921627247073539e-05,0.0003865190486412555,-0.041185453362939155,0.67999267578125,2019-07-25 15:12:13:202,-135.0463318154729,4.830375053022458,0,-31.787057876586914,21.291330337524414,1.4993895292282104
0.0851716697216034,-0.03684801235795021,9.84738540649414,-0.004251176740289341,0.0019848058466858938,-0.044914790189485604,0.6899914741516113,2019-07-25 15:12:13:212,-135.9366085441552,1.1404421860333933,0,-31.787057876586914,21.291330337524414,1.4993895292282104
0.09714541584253311,0.006257480941712856,9.842596054077148,-0.0026528897146796686,0.0019848058466858938,-0.04544755140436675,0.6999986171722412,2019-07-25 15:12:13:222,-136.80768193274204,4.718395478679772,0,-31.787057876586914,21.291330337524414,1.4993895292282104
0.03967142477631569,-0.012900516390800476,9.768359184265137,-0.006382226021077464,-0.0012117678144219638,-0.0438492677597233,0.7099835872650146,2019-07-25 15:12:13:232,-137.66619512465036,1.029119138863142,0,-31.787057876586914,21.291330337524414,1.4993895292282104
0.05643467232584953,-0.024874264374375343,9.813858985900879,-0.003718414485110892,0.0003865190486412555,-0.04278374116877181,0.7200028896331787,2019-07-25 15:12:13:242,-138.50649914712807,-2.58646689099229,0,-31.787057876586914,21.291330337524414,1.4993895292282104
0.07080317288637161,-0.012900516390800476,9.78512191772461,-0.0039847956127001165,0.00118566246391822,-0.04731222189823458,0.7299916744232178,2019-07-25 15:12:13:252,-139.32874269550902,-6.130991853031521,0,-31.787057876586914,21.291330337524414,1.4993895292282104
0.0588294193148613,0.006257480941712856,9.787516593933105,-0.001320984076733546,-0.0001462432553011296,-0.04305012385680698,0.7399983406066895,2019-07-25 15:12:13:262,-140.13519804718996,-2.408362412145797,0,-31.787057876586914,21.291330337524414,1.4993895292282104
0.07080317288637161,0.02541547827422619,9.78512191772461,-0.0018537463319119952,-0.001744530069600413,-0.043316502383652956,0.7499983310699463,2019-07-25 15:12:13:272,-140.92322306603378,1.237869363224339,0,-31.787057876586914,21.291330337524414,1.4993895292282104
0.022908175364136696,-0.020084764808416367,9.777937889099121,-0.0010546029491443213,0.0003865190486412555,-0.0438492677597233,0.7599713802337646,2019-07-25 15:12:13:282,-141.7022903540745,-2.3839436513472556,0,-32.68669128417969,20.991453170776367,0.8996337056159973
0.01811867579817772,0.018231229856610298,9.737227439880371,-0.006914988276255913,-0.00041262439914499955,-0.04544755140436675,0.7699971199035645,2019-07-25 15:12:13:292,-142.46587998734338,1.2654824512581047,0,-32.68669128417969,20.991453170776367,0.8996337056159973
0.042066171765327454,-0.017690015956759453,9.763568878173828,-0.005316700990571915,-0.0009453866868327393,-0.04544755140436675,0.7799983024597168,2019-07-25 15:12:13:302,-143.21109436404856,-2.3547653119522947,0,-32.68669128417969,20.991453170776367,0.8996337056159973
0.09235591441392899,-0.024874264374375343,9.856964111328125,-0.004517557607804241,0.005980523020598588,-0.04651307799531825,0.7899975776672363,2019-07-25 15:12:13:312,-143.93949382034816,-5.902241850215401,0,-32.68669128417969,20.991453170776367,0.8996337056159973
0.06361892074346542,0.020625978708267212,9.823437690734863,-0.0029192708422688934,0.00012013789667006295,-0.04358288507168813,0.8000020980834961,2019-07-25 15:12:13:322,-144.65335031332728,-2.184963146836452,0,-32.68669128417969,20.991453170776367,0.8996337056159973
0.06601367145776749,-0.0009267681161873043,9.823437690734863,-0.0029192708422688934,0.00012013789667006295,-0.04411564628656928,0.8099844455718994,2019-07-25 15:12:13:332,-145.35265018854207,-5.739519502241743,0,-32.68669128417969,20.991453170776367,0.8996337056159973
0.0779874175786972,0.008652230724692345,9.72764778137207,-0.004517557607804241,0.0006529002087397708,-0.043316502383652956,0.8199973106384277,2019-07-25 15:12:13:342,-146.03677754858344,-2.0232084777295194,0,-32.68669128417969,20.991453170776367,0.8996337056159973
0.022908175364136696,-0.0009267681161873043,9.758779525756836,-0.001320984076733546,-0.0006790055592435148,-0.04518117287752078,0.8299901485443115,2019-07-25 15:12:13:352,-146.7129710437769,-5.581894283766023,0,-32.68669128417969,20.991453170776367,0.8996337056159973
0.09475066512823105,0.015836479142308235,9.830622673034668,-0.007181369403845137,0.0003865190486412555,-0.044914790189485604,0.8399968147277832,2019-07-25 15:12:13:362,-147.36788444089711,-1.8680673731048758,0,-32.68669128417969,20.991453170776367,0.8996337056159973
0.08038216829299927,0.020625978708267212,9.852174758911133,-0.006115844893488239,0.0003865190486412555,-0.04438202897460446,0.8499996662139893,2019-07-25 15:12:13:372,-148.011394726728,1.77032996893188,0,-32.68669128417969,20.991453170776367,0.8996337056159973
0.05643467232584953,-0.012900516390800476,9.80667495727539,0.0024083519695899235,-0.0020109111971896377,-0.04198459726585548,0.8600361347198486,2019-07-25 15:12:13:383,-148.643439239529,-1.8649264165210246,0,-32.68669128417969,20.991453170776367,0.8996337056159973
0.06361892074346542,0.006257480941712856,9.856964111328125,-0.001320984076733546,0.0006529002087397708,-0.050242414821864693,0.869992733001709,2019-07-25 15:12:13:392,-149.26353958852002,1.7723831636473752,0,-32.68669128417969,20.991453170776367,0.8996337056159973
0.0779874175786972,-0.010505766607820988,9.794700622558594,-0.003452033357521668,0.00118566246391822,-0.044914790189485604,0.8799984455108643,2019-07-25 15:12:13:402,-149.8698111024929,-1.8598959751650253,0,-34.336021423339844,19.94188117980957,1.3494505882263184
0.06122417002916336,0.008652230724692345,9.689332008361816,0.000543683913918898,0.002517568101864343,-0.04358288507168813,0.8899986743927002,2019-07-25 15:12:13:412,-150.4665879011654,1.775973397759668,0,-34.336021423339844,19.94188117980957,1.3494505882263184
0.08038216829299927,0.018231229856610298,9.75638484954834,-0.0031856519698581177,0.00118566246391822,-0.04438202897460446,0.8999905586242676,2019-07-25 15:12:13:422,-151.04848044639002,5.340099909220425,0,-34.336021423339844,19.94188117980957,1.3494505882263184
0.0588294193148613,-0.024874264374375343,9.840201377868652,-0.0031856519698581177,0.00118566246391822,-0.04544755140436675,0.9099812507629395,2019-07-25 15:12:13:432,-151.62132521707437,1.637981648286197,0,-34.336021423339844,19.94188117980957,1.3494505882263184
0.06601367145776749,0.04217872768640518,9.823437690734863,-0.003718414485110892,0.004648617382652464,-0.04464841166263963,0.9199893474578857,2019-07-25 15:12:13:442,-152.18381056175548,5.202391422404849,0,-34.336021423339844,19.94188117980957,1.3494505882263184
0.10911916196346283,0.013441730290651321,9.828227996826172,-0.004517557607804241,-0.0001462432553011296,-0.04544755140436675,0.9299943447113037,2019-07-25 15:12:13:452,-152.72733004200242,8.69931423554375,0,-34.336021423339844,19.94188117980957,1.3494505882263184
0.09714541584253311,0.018231229856610298,9.749200820922852,-0.0058494637658990135,-0.0006790055592435148,-0.04864412701603205,0.9400019645690918,2019-07-25 15:12:13:462,-153.26098385020913,12.126472033471455,0,-34.336021423339844,19.94188117980957,1.3494505882263184
0.05403992161154747,-0.005716267507523298,9.828227996826172,-0.0015873652043227706,-0.0009453866868327393,-0.04544755140436675,0.9499912261962891,2019-07-25 15:12:13:472,-153.78893322531172,8.285499423354757,0,-34.336021423339844,19.94188117980957,1.3494505882263184
0.07559266686439514,-0.012900516390800476,9.775543212890625,-0.003718414485110892,0.0014520435915074442,-0.044914790189485604,0.9599835872650146,2019-07-25 15:12:13:482,-154.30510825843385,4.52338795715279,0,-34.336021423339844,19.94188117980957,1.3494505882263184
0.07559266686439514,-0.012900516390800476,9.761174201965332,-0.0026528897146796686,0.0003865190486412555,-0.04358288507168813,0.9699912071228027,2019-07-25 15:12:13:492,-154.81034924512247,0.8359253856271858,0,-34.336021423339844,19.94188117980957,1.3494505882263184
0.07319791615009308,0.0014679816085845232,9.801885604858398,-0.00558308263830979,0.0049149985102416895,-0.04225097995389066,0.9800000190734863,2019-07-25 15:12:13:502,-155.30834721845912,4.422172915365702,0,-34.336021423339844,19.94188117980957,1.3494505882263184
0.06122417002916336,0.011046980507671833,9.809069633483887,-0.001320984076733546,-0.00041262439914499955,-0.04278374116877181,0.9899849891662598,2019-07-25 15:12:13:512,-155.794796694306,7.933179542678923,0,-34.336021423339844,19.94188117980957,1.3494505882263184
0.0851716697216034,-0.024874264374375343,9.797096252441406,-0.0007882218215550968,0.0057141418930093625,-0.04171821873900951,0.9999926090240479,2019-07-25 15:12:13:522,-156.2721498501597,4.177868282129082,0,-34.336021423339844,19.94188117980957,1.3494505882263184
0.0851716697216034,-0.017690015956759453,9.742016792297363,-0.006914988276255913,-0.0009453866868327393,-0.04544755140436675,1.0099835395812988,2019-07-25 15:12:13:532,-156.7361583438543,0.5002709571193149,0,-32.38681411743164,20.091819763183594,2.0991454124450684
0.08277691900730133,-0.02247951552271843,9.773148536682129,-0.006115844893488239,0.00118566246391822,-0.04305012385680698,1.020005702972412,2019-07-25 15:12:13:542,-157.1923969207495,-3.103657061869025,0,-32.38681411743164,20.091819763183594,2.0991454124450684
0.08038216829299927,0.023020729422569275,9.763568878173828,-0.005050319862982691,0.0003865190486412555,-0.04038631362121203,1.029991626739502,2019-07-25 15:12:13:552,-157.6393317487496,0.5585459787477758,0,-32.38681411743164,20.091819763183594,2.0991454124450684
0.08277691900730133,-0.005716267507523298,9.842596054077148,-0.0026528897146796686,0.004648617382652464,-0.03958716971829571,1.039991855621338,2019-07-25 15:12:13:562,-158.07951836305017,-3.050469801425272,0,-32.38681411743164,20.091819763183594,2.0991454124450684
0.04925042390823364,-0.012900516390800476,9.768359184265137,-0.0005218406614565815,-0.0020109111971896377,-0.04544755140436675,1.049997329711914,2019-07-25 15:12:13:572,-158.51102078909392,-6.587653887512282,0,-32.38681411743164,20.091819763183594,2.0991454124450684
0.042066171765327454,0.018231229856610298,9.770753860473633,-0.00212012745950122,0.00438223625506324,-0.04198459726585548,1.059983730316162,2019-07-25 15:12:13:582,-158.9383241497775,-2.856850139116472,0,-32.38681411743164,20.091819763183594,2.0991454124450684
0.08277691900730133,0.013441730290651321,9.823437690734863,-0.0029192708422688934,-0.001744530069600413,-0.04198459726585548,1.0700063705444336,2019-07-25 15:12:13:592,-159.3489201011176,0.8003617486718744,0,-32.38681411743164,20.091819763183594,2.0991454124450684
0.08756642043590546,0.013441730290651321,9.811464309692383,-0.004251176740289341,-0.0014781489420111885,-0.045713934092401924,1.079991340637207,2019-07-25 15:12:13:602,-159.75088604775766,4.385168049768073,0,-32.38681411743164,20.091819763183594,2.0991454124450684
0.05164517089724541,0.008652230724692345,9.804280281066895,-0.003452033357521668,0.0009192813363289952,-0.04171821873900951,1.0899970531463623,2019-07-25 15:12:13:612,-160.15034861091306,7.898392843271472,0,-32.38681411743164,20.091819763183594,2.0991454124450684
0.08996116369962692,-0.0081110168248415,9.792305946350098,-0.0026528897146796686,0.002251186974275118,-0.043316502383652956,1.0999929904937744,2019-07-25 15:12:13:622,-160.53807802109728,4.142863142695725,0,-32.38681411743164,20.091819763183594,2.0991454124450684
0.05403992161154747,0.03978397697210312,9.770753860473633,-0.004517557607804241,0.0014520435915074442,-0.04464841166263963,1.1099956035614014,2019-07-25 15:12:13:632,-160.92179424811582,7.657877299665142,0,-32.38681411743164,20.091819763183594,2.0991454124450684
0.0588294193148613,-0.0009267681161873043,9.78512191772461,-0.003718414485110892,-0.001744530069600413,-0.04731222189823458,1.1199939250946045,2019-07-25 15:12:13:642,-161.29548966648548,3.906915819816771,0,-32.38681411743164,20.091819763183594,2.0991454124450684
0.08277691900730133,-0.0009267681161873043,9.794700622558594,-0.0005218406614565815,0.0009192813363289952,-0.044914790189485604,1.1299924850463867,2019-07-25 15:12:13:652,-161.6604118491803,0.2291788998239075,0,-33.736263275146484,20.541635513305664,1.6493284702301025
0.09954016655683517,0.030204977840185165,9.761174201965332,1.0921627247073539e-05,0.0009192813363289952,-0.04757860042508055,1.1399970054626465,2019-07-25 15:12:13:662,-162.01603488198046,3.8210432766459155,0,-33.736263275146484,20.541635513305664,1.6493284702301025
0.08277691900730133,0.02541547827422619,9.780332565307617,-0.00212012745950122,-0.0001462432553011296,-0.050242414821864693,1.149991750717163,2019-07-25 15:12:13:672,-162.36593376119646,7.342834428835291,0,-33.736263275146484,20.541635513305664,1.6493284702301025
0.04925042390823364,0.030204977840185165,9.751595497131348,-0.0007882218215550968,0.002251186974275118,-0.03745612069758192,1.1599931716918945,2019-07-25 15:12:13:682,-162.7140919076056,10.792870995677992,0,-33.736263275146484,20.541635513305664,1.6493284702301025
0.04685567319393158,-0.005716267507523298,9.768359184265137,-0.0047839387353934655,0.00118566246391822,-0.043316502383652956,1.169992446899414,2019-07-25 15:12:13:692,-163.05497922316087,6.980370125209382,0,-33.736263275146484,20.541635513305664,1.6493284702301025
0.05403992161154747,0.018231229856610298,9.768359184265137,-0.006382226021077464,-0.0014781489420111885,-0.046779460683353424,1.17999267578125,2019-07-25 15:12:13:702,-163.3867103413297,10.442207732693591,0,-33.736263275146484,20.541635513305664,1.6493284702301025
0.05164517089724541,0.044573474675416946,9.742016792297363,-0.0015873652043227706,0.00118566246391822,-0.0438492677597233,1.189993143081665,2019-07-25 15:12:13:712,-163.71356714955516,13.829011955007473,0,-33.736263275146484,20.541635513305664,1.6493284702301025
0.06840842217206955,-0.017690015956759453,9.811464309692383,-0.0058494637658990135,-0.0014781489420111885,-0.04091907483609319,1.200002670288086,2019-07-25 15:12:13:722,-164.03047550529027,9.957785388271578,0,-33.736263275146484,20.541635513305664,1.6493284702301025
0.04925042390823364,0.011046980507671833,9.792305946350098,-0.0039847956127001165,0.00438223625506324,-0.03905440434222536,1.2099831104278564,2019-07-25 15:12:13:732,-164.34655846560028,13.359570021770072,0,-33.736263275146484,20.541635513305664,1.6493284702301025
0.09475066512823105,-0.012900516390800476,9.792305946350098,-0.005316700990571915,0.004648617382652464,-0.04651307799531825,1.2199938297271729,2019-07-25 15:12:13:742,-164.65115271672948,9.496876785595319,0,-33.736263275146484,20.541635513305664,1.6493284702301025
0.05164517089724541,0.020625978708267212,9.797096252441406,-0.005316700990571915,0.0033167117447063417,-0.04464841166263963,1.229992151260376,2019-07-25 15:12:13:752,-164.95395106682506,12.907511558875967,0,-33.736263275146484,20.541635513305664,1.6493284702301025
0.08038216829299927,0.013441730290651321,9.78512191772461,-0.004517557607804241,0.00118566246391822,-0.04225097995389066,1.2401025295257568,2019-07-25 15:12:13:763,-165.2461319623679,16.250351796206864,0,-33.736263275146484,20.541635513305664,1.6493284702301025
0.0588294193148613,0.03259972855448723,9.770753860473633,-0.00558308263830979,-0.0001462432553011296,-0.0438492677597233,1.2500026226043701,2019-07-25 15:12:13:772,-165.53422858769812,19.524625046591655,0,-33.736263275146484,20.541635513305664,1.6493284702301025
0.07319791615009308,0.02541547827422619,9.775543212890625,0.0029411142247683726,-0.0001462432553011296,-0.0438492677597233,1.2599763870239258,2019-07-25 15:12:13:782,-165.81488181882582,22.72950618232494,0,-33.586326599121094,20.091819763183594,1.1995116472244263
0.07080317288637161,-0.02966376394033432,9.75638484954834,-0.004517557607804241,-0.0020109111971896377,-0.03985354824514169,1.2699928283691406,2019-07-25 15:12:13:792,-166.089137310871,18.680940915691554,0,-33.586326599121094,20.091819763183594,1.1995116472244263
0.10672441124916077,0.006257480941712856,9.787516593933105,-0.006914988276255913,0.0009192813363289952,-0.043316502383652956,1.2799882888793945,2019-07-25 15:12:13:802,-166.35537578140054,21.910470469924014,0,-33.586326599121094,20.091819763183594,1.1995116472244263
0.1043296679854393,0.003862731158733368,9.828227996826172,-0.007181369403845137,0.004648617382652464,-0.04438202897460446,1.2899880409240723,2019-07-25 15:12:13:812,-166.6187146032488,25.075842917188382,0,-33.586326599121094,20.091819763183594,1.1995116472244263
0.07319791615009308,0.003862731158733368,9.753990173339844,-0.005316700990571915,0.00118566246391822,-0.04731222189823458,1.2999842166900635,2019-07-25 15:12:13:822,-166.87840654842083,28.17685643726399,0,-33.586326599121094,20.091819763183594,1.1995116472244263
0.06361892074346542,0.037389226257801056,9.84738540649414,-0.0039847956127001165,-0.0006790055592435148,-0.04065269214805801,1.309983730316162,2019-07-25 15:12:13:832,-167.13305410373434,31.21120578724762,0,-33.586326599121094,20.091819763183594,1.1995116472244263
0.08038216829299927,0.023020729422569275,9.873727798461914,-0.006115844893488239,0.0003865190486412555,-0.048910509704067226,1.3199896812438965,2019-07-25 15:12:13:842,-167.381281470557,34.187746040859444,0,-33.586326599121094,20.091819763183594,1.1995116472244263
0.027697674930095673,0.020625978708267212,9.830622673034668,-0.0039847956127001165,-0.0014781489420111885,-0.042517362641925835,1.330003023147583,2019-07-25 15:12:13:852,-167.6295961587199,37.10382727986457,0,-33.586326599121094,20.091819763183594,1.1995116472244263
0.037276674062013626,0.008652230724692345,9.76596450805664,-0.007447750531434362,-0.0006790055592435148,-0.04411564628656928,1.3399879932403564,2019-07-25 15:12:13:862,-167.87224961077578,39.964911118306844,0,-33.586326599121094,20.091819763183594,1.1995116472244263
0.0851716697216034,0.003862731158733368,9.813858985900879,-0.0015873652043227706,0.003050330357042792,-0.037988881912463066,1.3499951362609863,2019-07-25 15:12:13:872,-168.10657377499098,42.7660538040862,0,-33.586326599121094,20.091819763183594,1.1995116472244263
0.0588294193148613,-0.005716267507523298,9.833017349243164,-0.0058494637658990135,-0.0006790055592435148,-0.04411564628656928,1.3599820137023926,2019-07-25 15:12:13:882,-168.33720578547042,38.314679043531555,0,-33.586326599121094,20.091819763183594,1.1995116472244263
0.08277691900730133,0.020625978708267212,9.770753860473633,-0.0026528897146796686,-0.00041262439914499955,-0.04278374116877181,1.370002269744873,2019-07-25 15:12:13:892,-168.5605216542387,41.147459059433864,0,-33.586326599121094,20.091819763183594,1.1995116472244263
0.05164517089724541,-0.005716267507523298,9.792305946350098,-0.0039847956127001165,0.0027839492294535677,-0.04278374116877181,1.379988431930542,2019-07-25 15:12:13:902,-168.78482867468074,36.72741316860009,0,-33.736263275146484,18.44249153137207,0.44981685280799866
0.0851716697216034,-0.015295266173779964,9.789911270141602,-0.0058494637658990135,-0.0049411037307082704,-0.04518117287752078,1.389991283416748,2019-07-25 15:12:13:912,-168.99638773827388,32.397940627300656,0,-33.736263275146484,18.44249153137207,0.44981685280799866
0.0324871726334095,-0.00332151772454381,9.763568878173828,-0.0031856519698581177,-0.0041419603479405966,-0.04411564628656928,1.3999900817871094,2019-07-25 15:12:13:922,-169.21032166725053,28.152160173847875,0,-33.736263275146484,18.44249153137207,0.44981685280799866
0.05164517089724541,-0.02247951552271843,9.775543212890625,-0.0015873652043227706,0.003583092872295566,-0.04411564628656928,1.4099853038787842,2019-07-25 15:12:13:932,-169.4220722442481,23.99264295282397,0,-33.736263275146484,18.44249153137207,0.44981685280799866
0.04685567319393158,-0.020084764808416367,9.82583236694336,-0.0047839387353934655,0.0033167117447063417,-0.04171821873900951,1.419969081878662,2019-07-25 15:12:13:942,-169.63002571138935,19.917814248584186,0,-33.736263275146484,18.44249153137207,0.44981685280799866
0.11390866339206696,0.006257480941712856,9.830622673034668,-0.005050319862982691,-0.002810054709994474,-0.04864412701603205,1.4299852848052979,2019-07-25 15:12:13:952,-169.8225675245788,23.121568897151096,0,-33.736263275146484,18.44249153137207,0.44981685280799866
0.06122417002916336,-0.046427011489868164,9.787516593933105,-0.001320984076733546,-0.00041262439914499955,-0.03958716971829571,1.4400057792663574,2019-07-25 15:12:13:962,-170.018716021746,19.065316371338934,0,-33.736263275146484,18.44249153137207,0.44981685280799866
0.03967142477631569,0.003862731158733368,9.75638484954834,-0.0058494637658990135,0.005181379637830914,-0.047844983113115726,1.4499847888946533,2019-07-25 15:12:13:972,-170.2165854343343,22.286833926729123,0,-33.736263275146484,18.44249153137207,0.44981685280799866
0.04446092247962952,0.02781022898852825,9.866543769836426,-0.0010546029491443213,-0.002277292454816025,-0.03958716971829571,1.4599764347076416,2019-07-25 15:12:13:982,-170.40581237221448,25.438458997339904,0,-33.736263275146484,18.44249153137207,0.44981685280799866
0.01811867579817772,-0.010505766607820988,9.823437690734863,-0.001320984076733546,-0.0009453866868327393,-0.04305012385680698,1.4699857234954834,2019-07-25 15:12:13:992,-170.5950512358518,21.331657746728403,0,-33.736263275146484,18.44249153137207,0.44981685280799866
0.04446092247962952,0.03499447554349899,9.833017349243164,0.0002773027863296734,0.00118566246391822,-0.04731222189823458,1.4799847602844238,2019-07-25 15:12:14:002,-170.77863456392973,24.500790749000327,0,-33.736263275146484,18.44249153137207,0.44981685280799866
0.10193491727113724,0.008652230724692345,9.861754417419434,-0.00558308263830979,0.0009192813363289952,-0.04171821873900951,1.4899976253509521,2019-07-25 15:12:14:012,-170.95173450589976,27.612908489219873,0,-33.736263275146484,18.44249153137207,0.44981685280799866
0.08756642043590546,0.0014679816085845232,9.821043014526367,-0.0005218406614565815,0.00012013789667006295,-0.04091907483609319,1.4999949932098389,2019-07-25 15:12:14:022,-171.12255030916126,30.660771971593206,0,-33.736263275146484,18.44249153137207,0.44981685280799866
0.09954016655683517,-0.010505766607820988,9.777937889099121,-0.0031856519698581177,0.0014520435915074442,-0.03932078703026053,1.5099916458129883,2019-07-25 15:12:14:032,-171.2892492438736,26.450575884916137,0,-32.38681411743164,19.791940689086914,0.29987791180610657
0.11869816482067108,0.037389226257801056,9.828227996826172,-0.0010546029491443213,0.00012013789667006295,-0.041185453362939155,1.5199882984161377,2019-07-25 15:12:14:042,-171.44969283432545,29.51779697662435,0,-32.38681411743164,19.791940689086914,0.29987791180610657
0.07559266686439514,0.03259972855448723,9.777937889099121,-0.0031856519698581177,0.004115855127474016,-0.045713934092401924,1.5299882888793945,2019-07-25 15:12:14:052,-171.6141511924597,32.525409296408604,0,-32.38681411743164,19.791940689086914,0.29987791180610657
0.10193491727113724,0.015836479142308235,9.799490928649902,0.0021419707119635363,0.00118566246391822,-0.04305012385680698,1.5399878025054932,2019-07-25 15:12:14:062,-171.77061442837584,35.47184659867671,0,-32.38681411743164,19.791940689086914,0.29987791180610657
0.08277691900730133,0.023020729422569275,9.780332565307617,-0.004517557607804241,-0.0001462432553011296,-0.04464841166263963,1.549988031387329,2019-07-25 15:12:14:072,-171.92542167163492,38.36224910154375,0,-32.38681411743164,19.791940689086914,0.29987791180610657
0.05164517089724541,-0.02247951552271843,9.811464309692383,-0.005050319862982691,-0.0009453866868327393,-0.045713934092401924,1.559983730316162,2019-07-25 15:12:14:082,-172.0803508668643,34.00046410503443,0,-32.38681411743164,19.791940689086914,0.29987791180610657
0.10911916196346283,-0.00332151772454381,9.813858985900879,-0.003718414485110892,0.0038494739998847904,-0.04438202897460446,1.5699880123138428,2019-07-25 15:12:14:092,-172.22816547171968,29.72293143875827,0,-32.38681411743164,19.791940689086914,0.29987791180610657
0.0588294193148613,-0.0081110168248415,9.801885604858398,-0.001320984076733546,0.002517568101864343,-0.04518117287752078,1.5799946784973145,2019-07-25 15:12:14:102,-172.378139188033,25.530163275043446,0,-32.38681411743164,19.791940689086914,0.29987791180610657
0.07319791615009308,-0.027269015088677406,9.809069633483887,-0.0058494637658990135,-0.002810054709994474,-0.045713934092401924,1.589989185333252,2019-07-25 15:12:14:112,-172.52044845745544,21.42602828522252,0,-32.38681411743164,19.791940689086914,0.29987791180610657
0.05164517089724541,0.006257480941712856,9.818648338317871,-0.005316700990571915,0.0014520435915074442,-0.04358288507168813,1.600013256072998,2019-07-25 15:12:14:122,-172.66482941822116,24.599769927292467,0,-32.38681411743164,19.791940689086914,0.29987791180610657
0.08756642043590546,0.02781022898852825,9.83541202545166,-0.004517557607804241,0.002251186974275118,-0.036923355321511565,1.6099786758422852,2019-07-25 15:12:14:132,-172.80259047669765,27.707062221791144,0,-32.38681411743164,19.791940689086914,0.29987791180610657
0.05403992161154747,-0.02247951552271843,9.770753860473633,-0.00212012745950122,-0.0001462432553011296,-0.04091907483609319,1.619994878768921,2019-07-25 15:12:14:142,-172.9401186726149,23.556749751472303,0,-32.38681411743164,19.791940689086914,0.29987791180610657
0.0588294193148613,0.006257480941712856,9.780332565307617,-0.004251176740289341,0.0006529002087397708,-0.04358288507168813,1.629990577697754,2019-07-25 15:12:14:152,-173.07479006068087,26.687267600193003,0,-32.38681411743164,19.791940689086914,1.4993895292282104
0.09954016655683517,0.0014679816085845232,9.773148536682129,-0.0018537463319119952,0.0009192813363289952,-0.03905440434222536,1.6400303840637207,2019-07-25 15:12:14:163,-173.20214166659224,29.754395144647432,0,-32.38681411743164,19.791940689086914,1.4993895292282104
0.030092423781752586,-0.012900516390800476,9.80667495727539,-0.006382226021077464,-0.0014781489420111885,-0.03932078703026053,1.6499879360198975,2019-07-25 15:12:14:172,-173.3337560718055,25.56438307311765,0,-32.38681411743164,19.791940689086914,1.4993895292282104
0.07319791615009308,0.003862731158733368,9.768359184265137,-0.0010546029491443213,0.0017184247190966692,-0.04038631362121203,1.659982681274414,2019-07-25 15:12:14:182,-173.45945872927422,28.653234125845266,0,-32.38681411743164,19.791940689086914,1.4993895292282104
0.030092423781752586,-0.02247951552271843,9.76596450805664,-0.003452033357521668,-0.001744530069600413,-0.03985354824514169,1.6699905395507812,2019-07-25 15:12:14:192,-173.5857582697397,24.484746968016182,0,-32.38681411743164,19.791940689086914,1.4993895292282104
0.08277691900730133,0.006257480941712856,9.801885604858398,-0.00212012745950122,0.004115855127474016,-0.04065269214805801,1.679988145828247,2019-07-25 15:12:14:202,-173.7066765716582,27.595510644972506,0,-32.38681411743164,19.791940689086914,1.4993895292282104
0.05643467232584953,0.006257480941712856,9.773148536682129,-0.006115844893488239,0.0014520435915074442,-0.0438492677597233,1.6899893283843994,2019-07-25 15:12:14:212,-173.82674148495192,30.6463011782973,0,-32.38681411743164,19.791940689086914,1.4993895292282104
0.07559266686439514,-0.02247951552271843,9.811464309692383,-0.0031856519698581177,-0.0009453866868327393,-0.04411564628656928,1.7000136375427246,2019-07-25 15:12:14:222,-173.94084597148148,26.43779369971814,0,-32.38681411743164,19.791940689086914,1.4993895292282104
0.03488192334771156,-0.012900516390800476,9.797096252441406,1.0921627247073539e-05,-0.001744530069600413,-0.043316502383652956,1.7099769115447998,2019-07-25 15:12:14:232,-174.05697315767935,22.310540621460135,0,-32.38681411743164,19.791940689086914,1.4993895292282104
0.08756642043590546,-0.00332151772454381,9.797096252441406,-0.004517557607804241,0.0019848058466858938,-0.04065269214805801,1.7199904918670654,2019-07-25 15:12:14:242,-174.16670775599712,18.267258356972913,0,-32.38681411743164,19.791940689086914,1.4993895292282104
0.06122417002916336,0.008652230724692345,9.722858428955078,1.0921627247073539e-05,0.0033167117447063417,-0.037988881912463066,1.7299840450286865,2019-07-25 15:12:14:252,-174.27801907319795,21.50088732791046,0,-32.38681411743164,19.791940689086914,1.4993895292282104
0.0851716697216034,-0.0009267681161873043,9.787516593933105,-0.00212012745950122,0.0014520435915074442,-0.04011993093317686,1.7400221824645996,2019-07-25 15:12:14:262,-174.3833055338964,17.472173075463644,0,-32.38681411743164,19.791940689086914,1.4993895292282104
0.03967142477631569,-0.0009267681161873043,9.799490928649902,-0.00851327504179126,0.0033167117447063417,-0.04651307799531825,1.749981164932251,2019-07-25 15:12:14:272,-174.49285511176203,13.527598571911698,0,-32.38681411743164,19.791940689086914,1.4993895292282104
0.06361892074346542,-0.015295266173779964,9.763568878173828,-0.0010546029491443213,0.0006529002087397708,-0.04731222189823458,1.7599773406982422,2019-07-25 15:12:14:282,-174.59589784957927,9.6594336820323,0,-33.88620376586914,20.991453170776367,1.1995116472244263
0.09714541584253311,0.011046980507671833,9.76596450805664,0.0010764462016066379,0.00118566246391822,-0.04305012385680698,1.7699928283691406,2019-07-25 15:12:14:292,-174.69324823004524,13.064343422724527,0,-33.88620376586914,20.991453170776367,1.1995116472244263
0.05643467232584953,-0.010505766607820988,9.866543769836426,-0.0010546029491443213,-0.0001462432553011296,-0.03985354824514169,1.7799756526947021,2019-07-25 15:12:14:302,-174.79274695280435,9.20486785077349,0,-33.88620376586914,20.991453170776367,1.1995116472244263
0.08038216829299927,0.020625978708267212,9.80667495727539,-0.0039847956127001165,0.0006529002087397708,-0.04518117287752078,1.7899880409240723,2019-07-25 15:12:14:312,-174.8878665783828,12.620600569003983,0,-33.88620376586914,20.991453170776367,1.1995116472244263
0.08756642043590546,0.04696822538971901,9.74441146850586,-0.004251176740289341,0.003583092872295566,-0.04038631362121203,1.7999892234802246,2019-07-25 15:12:14:322,-174.9818240970529,15.96505258042259,0,-33.88620376586914,20.991453170776367,1.1995116472244263
0.08038216829299927,-0.027269015088677406,9.809069633483887,-0.0015873652043227706,-0.00041262439914499955,-0.035325071676868124,1.8099634647369385,2019-07-25 15:12:14:332,-175.0725663246476,12.049826150276976,0,-33.88620376586914,20.991453170776367,1.1995116472244263
0.09235591441392899,-0.0081110168248415,9.809069633483887,-0.004517557607804241,0.003583092872295566,-0.03745612069758192,1.8199827671051025,2019-07-25 15:12:14:342,-175.16234189523246,8.21231867133417,0,-33.88620376586914,20.991453170776367,1.1995116472244263
0.08038216829299927,0.008652230724692345,9.801885604858398,-0.005050319862982691,-0.0009453866868327393,-0.03852164312734421,1.8299899101257324,2019-07-25 15:12:14:352,-175.2491667636036,11.649898559362434,0,-33.88620376586914,20.991453170776367,1.1995116472244263
0.09475066512823105,0.003862731158733368,9.801885604858398,-0.006115844893488239,-0.002810054709994474,-0.04464841166263963,1.8400177955627441,2019-07-25 15:12:14:362,-175.33152445223647,15.019892619857913,0,-33.88620376586914,20.991453170776367,1.1995116472244263
0.10672441124916077,-0.012900516390800476,9.804280281066895,-0.003718414485110892,0.0038494739998847904,-0.03985354824514169,1.8500277996063232,2019-07-25 15:12:14:373,-175.41458423800694,11.123092540915728,0,-33.88620376586914,20.991453170776367,1.1995116472244263
0.12109291553497314,0.020625978708267212,9.775543212890625,-0.0002554595176127117,0.002517568101864343,-0.04358288507168813,1.8600034713745117,2019-07-25 15:12:14:382,-175.49350861245625,14.49835595193397,0,-33.88620376586914,20.991453170776367,1.1995116472244263
0.11151391267776489,0.02781022898852825,9.804280281066895,-0.0010546029491443213,0.0033167117447063417,-0.03985354824514169,1.8700182437896729,2019-07-25 15:12:14:392,-175.57247043516497,17.805731439576785,0,-33.88620376586914,20.991453170776367,1.1995116472244263
0.09714541584253311,0.006257480941712856,9.813858985900879,-0.005316700990571915,0.00012013789667006295,-0.04011993093317686,1.8799986839294434,2019-07-25 15:12:14:402,-175.64974553434837,21.051865637028108,0,-33.28644561767578,20.091819763183594,0.5997558236122131
0.08756642043590546,-0.0081110168248415,9.797096252441406,-0.0031856519698581177,-0.0009453866868327393,-0.04464841166263963,1.8899989128112793,2019-07-25 15:12:14:412,-175.72597786038227,17.033565807873043,0,-33.28644561767578,20.091819763183594,0.5997558236122131
0.1043296679854393,-0.00332151772454381,9.749200820922852,-0.00212012745950122,0.0006529002087397708,-0.03985354824514169,1.9001619815826416,2019-07-25 15:12:14:423,-175.79956850138097,13.094494762212683,0,-33.28644561767578,20.091819763183594,0.5997558236122131
0.09235591441392899,-0.015295266173779964,9.821043014526367,-0.003718414485110892,-0.0020109111971896377,-0.03665697679466559,1.9099736213684082,2019-07-25 15:12:14:432,-175.87169354007256,9.236438068639867,0,-33.28644561767578,20.091819763183594,0.5997558236122131
0.08277691900730133,0.006257480941712856,9.854569435119629,-0.0005218406614565815,-0.0012117678144219638,-0.04065269214805801,1.9200029373168945,2019-07-25 15:12:14:442,-175.94395197430066,12.65127554262482,0,-33.28644561767578,20.091819763183594,0.5997558236122131
0.09475066512823105,-0.017690015956759453,9.797096252441406,-0.007181369403845137,0.0003865190486412555,-0.04358288507168813,1.9300062656402588,2019-07-25 15:12:14:452,-176.01420788807945,8.804352810276406,0,-33.28644561767578,20.091819763183594,0.5997558236122131
0.07559266686439514,-0.00332151772454381,9.821043014526367,-0.0031856519698581177,-0.00041262439914499955,-0.04464841166263963,1.939993143081665,2019-07-25 15:12:14:462,-176.08487239666266,5.030439699452483,0,-33.28644561767578,20.091819763183594,0.5997558236122131
0.07319791615009308,0.0014679816085845232,9.758779525756836,0.000543683913918898,0.0049149985102416895,-0.041451836050974335,1.9500083923339844,2019-07-25 15:12:14:472,-176.1573438862449,8.529352785788943,0,-33.28644561767578,20.091819763183594,0.5997558236122131
0.07080317288637161,0.0014679816085845232,9.842596054077148,-0.0023865085870904443,-0.0009453866868327393,-0.042517362641925835,1.9599831104278564,2019-07-25 15:12:14:482,-176.22542446227172,11.959931455101387,0,-33.28644561767578,20.091819763183594,0.5997558236122131
0.0588294193148613,-0.012900516390800476,9.813858985900879,-0.007181369403845137,0.0003865190486412555,-0.046779460683353424,1.9699890613555908,2019-07-25 15:12:14:492,-176.29426399515847,8.126273883140616,0,-33.28644561767578,20.091819763183594,0.5997558236122131
0.10193491727113724,-0.027269015088677406,9.849780082702637,-0.0023865085870904443,0.0017184247190966692,-0.045713934092401924,1.9799935817718506,2019-07-25 15:12:14:502,-176.35748544061263,4.368261479995484,0,-33.28644561767578,20.091819763183594,0.5997558236122131
0.06601367145776749,-0.024874264374375343,9.75638484954834,-0.00212012745950122,0.003583092872295566,-0.04464841166263963,1.990004539489746,2019-07-25 15:12:14:512,-176.42459646002678,0.6850095514304182,0,-33.28644561767578,20.091819763183594,0.5997558236122131
0.0779874175786972,-0.005716267507523298,9.761174201965332,-0.007181369403845137,0.0019848058466858938,-0.0470458392101994,1.999999761581421,2019-07-25 15:12:14:522,-176.48806330570508,-2.923989174422426,0,-33.28644561767578,20.091819763183594,0.5997558236122131
0.0779874175786972,-0.02247951552271843,9.856964111328125,-0.006648607148666687,-0.004408341475529821,-0.04917688823091319,2.0099985599517822,2019-07-25 15:12:14:532,-176.54676086690182,-6.459163317275848,0,-33.13650894165039,20.841514587402344,0.44981685280799866
0.08277691900730133,0.015836479142308235,9.804280281066895,-0.0002554595176127117,0.0014520435915074442,-0.0438492677597233,2.0199949741363525,2019-07-25 15:12:14:542,-176.60696601464852,-2.7316876142312143,0,-33.13650894165039,20.841514587402344,0.44981685280799866
0.10193491727113724,-0.020084764808416367,9.856964111328125,-0.00558308263830979,0.0003865190486412555,-0.046779460683353424,2.0299999713897705,2019-07-25 15:12:14:552,-176.6631938710377,-6.271582462717704,0,-33.13650894165039,20.841514587402344,0.44981685280799866
0.0588294193148613,0.011046980507671833,9.782727241516113,-0.004251176740289341,0.00438223625506324,-0.04225097995389066,2.039998769760132,2019-07-25 15:12:14:562,-176.72549932144628,-2.5450580757341026,0,-33.13650894165039,20.841514587402344,0.44981685280799866
0.10193491727113724,0.02781022898852825,9.821043014526367,-0.005316700990571915,0.0006529002087397708,-0.043316502383652956,2.0500071048736572,2019-07-25 15:12:14:572,-176.77946294257984,1.1055860161068702,0,-33.13650894165039,20.841514587402344,0.44981685280799866
0.09235591441392899,0.013441730290651321,9.818648338317871,-0.00798051278661281,-0.0014781489420111885,-0.043316502383652956,2.059986114501953,2019-07-25 15:12:14:582,-176.8322670837369,4.686377179423863,0,-33.13650894165039,20.841514587402344,0.44981685280799866
0.08277691900730133,-0.020084764808416367,9.76596450805664,-0.0018537463319119952,-0.0001462432553011296,-0.045980316780437104,2.0699901580810547,2019-07-25 15:12:14:592,-176.88582697466555,0.9960476290902567,0,-33.13650894165039,20.841514587402344,0.44981685280799866
0.07559266686439514,0.011046980507671833,9.708490371704102,-0.0010546029491443213,0.00118566246391822,-0.041451836050974335,2.0799951553344727,2019-07-25 15:12:14:602,-176.93985431858488,4.575415230429346,0,-33.13650894165039,20.841514587402344,0.44981685280799866
0.08038216829299927,0.04217872768640518,9.799490928649902,-0.0023865085870904443,0.0033167117447063417,-0.045980316780437104,2.0900027751922607,2019-07-25 15:12:14:612,-176.99352160296482,8.08031577699752,0,-33.13650894165039,20.841514587402344,0.44981685280799866
0.08756642043590546,0.030204977840185165,9.828227996826172,-0.0005218406614565815,-0.00041262439914499955,-0.048377744327996866,2.0999977588653564,2019-07-25 15:12:14:622,-177.0432101217204,11.515480609437095,0,-33.13650894165039,20.841514587402344,0.44981685280799866
0.04685567319393158,0.015836479142308235,9.813858985900879,-0.0026528897146796686,-0.00041262439914499955,-0.045713934092401924,2.1099846363067627,2019-07-25 15:12:14:632,-177.09664347252115,14.884809491044788,0,-33.13650894165039,20.841514587402344,0.44981685280799866
0.07559266686439514,-0.02966376394033432,9.742016792297363,-0.006382226021077464,0.005181379637830914,-0.04464841166263963,2.1200063228607178,2019-07-25 15:12:14:642,-177.14873475673707,10.994193906601115,0,-33.13650894165039,20.841514587402344,0.44981685280799866
0.0779874175786972,-0.02966376394033432,9.734832763671875,-0.007181369403845137,0.00118566246391822,-0.045980316780437104,2.1299984455108643,2019-07-25 15:12:14:652,-177.19724535476607,7.181830978674395,0,-33.13650894165039,20.541635513305664,1.0495727062225342
0.0779874175786972,-0.015295266173779964,9.833017349243164,-0.0023865085870904443,0.003050330357042792,-0.05157431993966217,2.1400134563446045,2019-07-25 15:12:14:662,-177.24592750426325,3.4413188630676603,0,-33.13650894165039,20.541635513305664,1.0495727062225342
0.0779874175786972,0.06852097064256668,9.777937889099121,-0.0039847956127001165,0.0003865190486412555,-0.045980316780437104,2.149994134902954,2019-07-25 15:12:14:672,-177.29208610164602,6.966695505282312,0,-33.13650894165039,20.541635513305664,1.0495727062225342
0.10672441124916077,-0.017690015956759453,9.818648338317871,-0.006914988276255913,-0.0009453866868327393,-0.044914790189485604,2.1599884033203125,2019-07-25 15:12:14:682,-177.33325873995764,3.233306691803773,0,-33.13650894165039,20.541635513305664,1.0495727062225342
0.10193491727113724,0.0014679816085845232,9.828227996826172,-0.0031856519698581177,0.003583092872295566,-0.04198459726585548,2.169994354248047,2019-07-25 15:12:14:692,-177.37672205765676,6.770259203358972,0,-33.13650894165039,20.541635513305664,1.0495727062225342
0.07319791615009308,-0.017690015956759453,9.794700622558594,-0.0007882218215550968,0.004648617382652464,-0.04411564628656928,2.1800122261047363,2019-07-25 15:12:14:702,-177.42323895811077,3.0373670090909584,0,-33.13650894165039,20.541635513305664,1.0495727062225342
0.08038216829299927,0.011046980507671833,9.761174201965332,-0.004251176740289341,0.0019848058466858938,-0.045980316780437104,2.190016984939575,2019-07-25 15:12:14:712,-177.46645290278133,6.577710972208999,0,-33.13650894165039,20.541635513305664,1.0495727062225342
0.09714541584253311,0.011046980507671833,9.789911270141602,-0.005050319862982691,0.005447760765420138,-0.04198459726585548,2.19999098777771,2019-07-25 15:12:14:722,-177.50880424069257,10.047692072529019,0,-33.13650894165039,20.541635513305664,1.0495727062225342
0.07319791615009308,-0.015295266173779964,9.761174201965332,0.0016092084567850867,0.0017184247190966692,-0.03905440434222536,2.209977149963379,2019-07-25 15:12:14:732,-177.55099878643617,6.2476315033513234,0,-33.13650894165039,20.541635513305664,1.0495727062225342
0.08996116369962692,-0.017690015956759453,9.792305946350098,-0.003452033357521668,-0.0001462432553011296,-0.04518117287752078,2.220008611679077,2019-07-25 15:12:14:742,-177.58936929448416,2.5266934030318846,0,-33.13650894165039,20.541635513305664,1.0495727062225342
0.06122417002916336,-0.0081110168248415,9.761174201965332,-0.006648607148666687,0.0014520435915074442,-0.0438492677597233,2.230013847351074,2019-07-25 15:12:14:752,-177.63121032281853,-1.119153131873785,0,-33.13650894165039,20.541635513305664,1.0495727062225342
0.06361892074346542,-0.010505766607820988,9.775543212890625,-0.0029192708422688934,-0.0020109111971896377,-0.048377744327996866,2.2399961948394775,2019-07-25 15:12:14:762,-177.67000150913466,-4.693902282295936,0,-33.13650894165039,20.541635513305664,1.0495727062225342
0.07080317288637161,-0.015295266173779964,9.816253662109375,-0.0023865085870904443,0.0017184247190966692,-0.04464841166263963,2.2500007152557373,2019-07-25 15:12:14:772,-177.70930163343635,-8.19689809441502,0,-33.13650894165039,20.541635513305664,1.0495727062225342
0.06122417002916336,0.018231229856610298,9.751595497131348,-0.001320984076733546,-0.0006790055592435148,-0.04438202897460446,2.2599847316741943,2019-07-25 15:12:14:782,-177.7475405565894,-4.434361947116914,0,-32.68669128417969,20.39169692993164,1.1995116472244263
0.06122417002916336,0.0014679816085845232,9.811464309692383,-0.00558308263830979,0.0003865190486412555,-0.04757860042508055,2.270005464553833,2019-07-25 15:12:14:792,-177.78565673096887,-0.7427047660925141,0,-32.68669128417969,20.39169692993164,1.1995116472244263
0.04446092247962952,0.02781022898852825,9.804280281066895,-0.0015873652043227706,0.002517568101864343,-0.04411564628656928,2.279999256134033,2019-07-25 15:12:14:802,-177.82615981218925,2.8697896530730174,0,-32.68669128417969,20.39169692993164,1.1995116472244263
0.05403992161154747,-0.0009267681161873043,9.787516593933105,-0.0047839387353934655,0.0006529002087397708,-0.04518117287752078,2.289998769760132,2019-07-25 15:12:14:812,-177.8636763087974,-0.784811590185059,0,-32.68669128417969,20.39169692993164,1.1995116472244263
0.07559266686439514,0.003862731158733368,9.804280281066895,-0.0058494637658990135,-0.001744530069600413,-0.04305012385680698,2.2999935150146484,2019-07-25 15:12:14:822,-177.8965887172494,2.8337159090890047,0,-32.68669128417969,20.39169692993164,1.1995116472244263
0.08996116369962692,0.015836479142308235,9.792305946350098,-0.0026528897146796686,-0.0025436735824052492,-0.04278374116877181,2.3099844455718994,2019-07-25 15:12:14:832,-177.92670282652452,6.376676618458436,0,-32.68669128417969,20.39169692993164,1.1995116472244263
0.10672441124916077,-0.02247951552271843,9.830622673034668,-0.00212012745950122,0.0027839492294535677,-0.03825526043930904,2.3199994564056396,2019-07-25 15:12:14:842,-177.95729435953655,2.6529556626088606,0,-32.68669128417969,20.39169692993164,1.1995116472244263
0.07559266686439514,-0.0009267681161873043,9.833017349243164,-0.0015873652043227706,0.0009192813363289952,-0.04011993093317686,2.3299994468688965,2019-07-25 15:12:14:852,-177.9898554376522,-0.9991041448209379,0,-32.68669128417969,20.39169692993164,1.1995116472244263
0.11630341410636902,-0.02247951552271843,9.789911270141602,-0.006115844893488239,0.00118566246391822,-0.04305012385680698,2.3399994373321533,2019-07-25 15:12:14:862,-178.0171113249447,-4.57305678907616,0,-32.68669128417969,20.39169692993164,1.1995116472244263
0.12348766624927521,0.020625978708267212,9.804280281066895,0.0010764462016066379,0.003583092872295566,-0.04358288507168813,2.349998950958252,2019-07-25 15:12:14:872,-178.04434853652975,-0.8846107895297068,0,-32.68669128417969,20.39169692993164,1.1995116472244263
0.07080317288637161,-0.0081110168248415,9.739622116088867,-0.0015873652043227706,-0.0014781489420111885,-0.044914790189485604,2.3599870204925537,2019-07-25 15:12:14:882,-178.07430237427138,-4.4650740319478475,0,-32.68669128417969,20.39169692993164,1.1995116472244263
0.07080317288637161,-0.02247951552271843,9.859359741210938,-0.0031856519698581177,0.002251186974275118,-0.04358288507168813,2.369999408721924,2019-07-25 15:12:14:892,-178.10585289120223,-7.971368892737187,0,-32.68669128417969,20.39169692993164,1.1995116472244263
0.09954016655683517,-0.020084764808416367,9.746806144714355,-0.0007882218215550968,-0.0020109111971896377,-0.04065269214805801,2.379978895187378,2019-07-25 15:12:14:902,-178.13090666272686,-11.409138508656762,0,-33.88620376586914,19.19218635559082,-0.29987791180610657
0.04685567319393158,-0.010505766607820988,9.78512191772461,-0.003718414485110892,0.0019848058466858938,-0.04171821873900951,2.3900065422058105,2019-07-25 15:12:14:912,-178.16391894641964,-14.777631773090064,0,-33.88620376586914,19.19218635559082,-0.29987791180610657
0.0851716697216034,0.018231229856610298,9.866543769836426,-0.00212012745950122,0.002251186974275118,-0.03825526043930904,2.3999948501586914,2019-07-25 15:12:14:922,-178.1920114047865,-10.883007481529148,0,-33.88620376586914,19.19218635559082,-0.29987791180610657
0.05164517089724541,-0.017690015956759453,9.770753860473633,-0.006914988276255913,0.0006529002087397708,-0.044914790189485604,2.409996271133423,2019-07-25 15:12:14:932,-178.2224809337883,-14.259389338000684,0,-33.88620376586914,19.19218635559082,-0.29987791180610657
0.11390866339206696,0.006257480941712856,9.797096252441406,-0.001320984076733546,0.003050330357042792,-0.04091907483609319,2.420055389404297,2019-07-25 15:12:14:943,-178.24643149108428,-10.374187340521583,0,-33.88620376586914,19.19218635559082,-0.29987791180610657
0.08996116369962692,0.008652230724692345,9.799490928649902,-0.0029192708422688934,-0.0009453866868327393,-0.03612421141859524,2.4300215244293213,2019-07-25 15:12:14:952,-178.27045440116714,-6.566081737175928,0,-33.88620376586914,19.19218635559082,-0.29987791180610657
0.09714541584253311,-0.0009267681161873043,9.840201377868652,-0.0018537463319119952,0.003050330357042792,-0.045713934092401924,2.440014362335205,2019-07-25 15:12:14:962,-178.29544438830905,-10.033612047454445,0,-33.88620376586914,19.19218635559082,-0.29987791180610657
0.06601367145776749,0.023020729422569275,9.801885604858398,-0.003718414485110892,0.005447760765420138,-0.043316502383652956,2.450018882751465,2019-07-25 15:12:14:972,-178.32487840583215,-6.233542272870374,0,-33.88620376586914,19.19218635559082,-0.29987791180610657
0.05403992161154747,-0.027269015088677406,9.749200820922852,-0.004251176740289341,-0.0020109111971896377,-0.03905440434222536,2.4600086212158203,2019-07-25 15:12:14:982,-178.35090111547865,-9.703281670554198,0,-33.88620376586914,19.19218635559082,-0.29987791180610657
0.05403992161154747,0.02781022898852825,9.770753860473633,-0.005050319862982691,-0.0012117678144219638,-0.03772249922442789,2.4700136184692383,2019-07-25 15:12:14:992,-178.3768646010651,-5.909640451655536,0,-33.88620376586914,19.19218635559082,-0.29987791180610657
0.06122417002916336,-0.020084764808416367,9.792305946350098,-0.0018537463319119952,0.0017184247190966692,-0.04518117287752078,2.480013608932495,2019-07-25 15:12:15:002,-178.40312771751965,-9.388056410774546,0,-33.88620376586914,19.19218635559082,-0.29987791180610657
0.05643467232584953,0.0014679816085845232,9.801885604858398,-0.0026528897146796686,0.0006529002087397708,-0.04225097995389066,2.4900143146514893,2019-07-25 15:12:15:012,-178.42883421857198,-5.598977201776332,0,-33.88620376586914,19.19218635559082,-0.29987791180610657
0.0779874175786972,0.011046980507671833,9.840201377868652,-0.006382226021077464,0.0019848058466858938,-0.04464841166263963,2.50001859664917,2019-07-25 15:12:15:022,-178.45229084124355,-1.884698959453158,0,-33.88620376586914,19.19218635559082,-0.29987791180610657
0.12109291553497314,-0.017690015956759453,9.732437133789062,-0.004517557607804241,0.0003865190486412555,-0.03985354824514169,2.51000714302063,2019-07-25 15:12:15:032,-178.46920483209374,-5.4423884294388705,0,-33.586326599121094,20.69157600402832,0.8996337056159973
0.08996116369962692,-0.03205851465463638,9.818648338317871,-0.006382226021077464,0.002517568101864343,-0.04065269214805801,2.5200538635253906,2019-07-25 15:12:15:043,-178.4907420501161,-8.926198832431908,0,-33.586326599121094,20.69157600402832,0.8996337056159973
0.05403992161154747,0.011046980507671833,9.830622673034668,-0.005316700990571915,-0.001744530069600413,-0.03932078703026053,2.5300302505493164,2019-07-25 15:12:15:053,-178.51365082105715,-5.145984285561765,0,-33.586326599121094,20.69157600402832,0.8996337056159973
0.08756642043590546,0.02781022898852825,9.813858985900879,-0.00212012745950122,0.0017184247190966692,-0.04305012385680698,2.540008068084717,2019-07-25 15:12:15:062,-178.53411613257302,-1.4451240455512147,0,-33.586326599121094,20.69157600402832,0.8996337056159973
0.030092423781752586,0.0014679816085845232,9.828227996826172,-0.003452033357521668,0.004115855127474016,-0.0438492677597233,2.550243616104126,2019-07-25 15:12:15:073,-178.5622906984143,2.1855912456280064,0,-33.586326599121094,20.69157600402832,0.8996337056159973
0.1043296679854393,0.020625978708267212,9.799490928649902,-0.006648607148666687,0.0017184247190966692,-0.04225097995389066,2.559983015060425,2019-07-25 15:12:15:082,-178.57978517453503,5.743103396655414,0,-33.586326599121094,20.69157600402832,0.8996337056159973
0.07319791615009308,0.003862731158733368,9.801885604858398,-0.004251176740289341,0.002517568101864343,-0.04011993093317686,2.569998025894165,2019-07-25 15:12:15:092,-178.60104796542828,9.230180358938712,0,-33.586326599121094,20.69157600402832,0.8996337056159973
0.05403992161154747,0.0014679816085845232,9.809069633483887,-0.0039847956127001165,-0.001744530069600413,-0.04358288507168813,2.5800139904022217,2019-07-25 15:12:15:102,-178.6217329006791,12.647646288449936,0,-33.586326599121094,20.69157600402832,0.8996337056159973
0.04925042390823364,0.04936297610402107,9.818648338317871,-0.005316700990571915,0.002251186974275118,-0.04518117287752078,2.5900137424468994,2019-07-25 15:12:15:112,-178.64481437556563,15.991917599430263,0,-33.586326599121094,20.69157600402832,0.8996337056159973
0.04685567319393158,-0.010505766607820988,9.739622116088867,-0.004517557607804241,0.00438223625506324,-0.044914790189485604,2.6000232696533203,2019-07-25 15:12:15:122,-178.6688682886462,12.075854322433178,0,-33.586326599121094,20.69157600402832,0.8996337056159973
0.0779874175786972,0.011046980507671833,9.804280281066895,-0.0047839387353934655,-0.0001462432553011296,-0.045980316780437104,2.609971284866333,2019-07-25 15:12:15:132,-178.68629432634776,15.435718286305601,0,-33.586326599121094,20.69157600402832,0.8996337056159973
0.08996116369962692,-0.005716267507523298,9.842596054077148,-0.006648607148666687,0.004648617382652464,-0.04438202897460446,2.6199951171875,2019-07-25 15:12:15:142,-178.70471149511468,11.531411512832909,0,-33.586326599121094,20.69157600402832,0.8996337056159973
0.06840842217206955,-0.03205851465463638,9.787516593933105,-0.00558308263830979,0.0003865190486412555,-0.043316502383652956,2.629997730255127,2019-07-25 15:12:15:152,-178.72282527208634,7.707672370077001,0,-33.43638610839844,20.241758346557617,1.3494505882263184
0.07559266686439514,-0.012900516390800476,9.74441146850586,-0.003452033357521668,0.002517568101864343,-0.04651307799531825,2.6399929523468018,2019-07-25 15:12:15:162,-178.74089239398225,3.956973372434104,0,-33.43638610839844,20.241758346557617,1.3494505882263184
0.06361892074346542,0.015836479142308235,9.801885604858398,-0.0047839387353934655,-0.0012117678144219638,-0.04198459726585548,2.6499996185302734,2019-07-25 15:12:15:172,-178.75795625130962,7.4786704664906285,0,-33.43638610839844,20.241758346557617,1.3494505882263184
0.07080317288637161,0.011046980507671833,9.801885604858398,-0.0018537463319119952,0.003583092872295566,-0.04411564628656928,2.6599836349487305,2019-07-25 15:12:15:182,-178.77652852243259,10.928844793325691,0,-33.43638610839844,20.241758346557617,1.3494505882263184
0.05643467232584953,0.018231229856610298,9.799490928649902,0.0008100650740174133,0.00012013789667006295,-0.04091907483609319,2.6699867248535156,2019-07-25 15:12:15:192,-178.79446624484902,14.307681017528704,0,-33.43638610839844,20.241758346557617,1.3494505882263184
0.06361892074346542,-0.024874264374375343,9.818648338317871,-0.0047839387353934655,0.00118566246391822,-0.04464841166263963,2.6800289154052734,2019-07-25 15:12:15:203,-178.81182073848512,10.427127926801251,0,-33.43638610839844,20.241758346557617,1.3494505882263184
0.08996116369962692,0.037389226257801056,9.804280281066895,-0.0031856519698581177,-0.004674722603119046,-0.048377744327996866,2.6899895668029785,2019-07-25 15:12:15:212,-178.8224555157404,13.815997070628004,0,-33.43638610839844,20.241758346557617,1.3494505882263184
0.07319791615009308,-0.00332151772454381,9.844990730285645,-0.005316700990571915,-0.001744530069600413,-0.046779460683353424,2.6999948024749756,2019-07-25 15:12:15:222,-178.83650656814868,9.943050623306895,0,-33.43638610839844,20.241758346557617,1.3494505882263184
0.08277691900730133,0.011046980507671833,9.746806144714355,-0.0026528897146796686,0.002251186974275118,-0.041185453362939155,2.7099802494049072,2019-07-25 15:12:15:232,-178.8513069265931,13.344378262643822,0,-33.43638610839844,20.241758346557617,1.3494505882263184
0.08038216829299927,-0.015295266173779964,9.799490928649902,-0.00212012745950122,0.005181379637830914,-0.041451836050974335,2.7200002670288086,2019-07-25 15:12:15:242,-178.86779657203178,9.480472098482316,0,-33.43638610839844,20.241758346557617,1.3494505882263184
0.09714541584253311,0.018231229856610298,9.792305946350098,-0.003718414485110892,0.00012013789667006295,-0.04544755140436675,2.729994297027588,2019-07-25 15:12:15:252,-178.87914027604452,12.890815841526168,0,-33.43638610839844,20.241758346557617,1.3494505882263184
0.08038216829299927,-0.017690015956759453,9.816253662109375,-0.003718414485110892,-0.0012117678144219638,-0.04198459726585548,2.739988088607788,2019-07-25 15:12:15:262,-178.8914941596577,9.037151182326271,0,-33.43638610839844,20.241758346557617,1.3494505882263184
0.09954016655683517,0.04217872768640518,9.797096252441406,0.0013428273291958624,-0.0006790055592435148,-0.046779460683353424,2.7499945163726807,2019-07-25 15:12:15:272,-178.90164047373005,12.450720281539878,0,-33.43638610839844,20.241758346557617,1.3494505882263184
0.09235591441392899,-0.03684801235795021,9.751595497131348,-0.005316700990571915,0.0003865190486412555,-0.04171821873900951,2.7599799633026123,2019-07-25 15:12:15:282,-178.91297190622885,8.609016862220011,0,-33.586326599121094,20.39169692993164,1.1995116472244263
0.1043296679854393,0.003862731158733368,9.758779525756836,-0.0039847956127001165,-0.0006790055592435148,-0.03878802581537939,2.7700018882751465,2019-07-25 15:12:15:292,-178.9220800241705,12.038625310326347,0,-33.586326599121094,20.39169692993164,1.1995116472244263
0.08277691900730133,0.003862731158733368,9.763568878173828,-0.006115844893488239,0.0017184247190966692,-0.03612421141859524,2.77998685836792,2019-07-25 15:12:15:302,-178.9348868647849,15.400828326289432,0,-33.586326599121094,20.39169692993164,1.1995116472244263
0.04925042390823364,-0.012900516390800476,9.82583236694336,-0.0031856519698581177,0.0014520435915074442,-0.04225097995389066,2.7899861335754395,2019-07-25 15:12:15:312,-178.9512607171285,11.4961048621949,0,-33.586326599121094,20.39169692993164,1.1995116472244263
0.06840842217206955,0.018231229856610298,9.828227996826172,-0.007181369403845137,-0.0049411037307082704,-0.04544755140436675,2.799994707107544,2019-07-25 15:12:15:322,-178.9614827962307,14.868092895763652,0,-33.586326599121094,20.39169692993164,1.1995116472244263
0.09714541584253311,0.011046980507671833,9.787516593933105,0.0008100650740174133,-0.0014781489420111885,-0.045980316780437104,2.8099751472473145,2019-07-25 15:12:15:332,-178.97005144131043,18.16898370489846,0,-33.586326599121094,20.39169692993164,1.1995116472244263
0.07080317288637161,-0.010505766607820988,9.809069633483887,-0.004517557607804241,-0.0009453866868327393,-0.047844983113115726,2.8199920654296875,2019-07-25 15:12:15:342,-178.98184745315265,14.209372229407606,0,-33.586326599121094,20.39169692993164,1.1995116472244263
0.0851716697216034,-0.03205851465463638,9.82583236694336,-0.00212012745950122,-0.002810054709994474,-0.042517362641925835,2.829990863800049,2019-07-25 15:12:15:352,-178.99070014622413,10.330113829324118,0,-33.586326599121094,20.39169692993164,1.1995116472244263
0.10193491727113724,-0.00332151772454381,9.799490928649902,-0.0026528897146796686,0.00118566246391822,-0.04358288507168813,2.8399922847747803,2019-07-25 15:12:15:362,-178.99963253004628,6.5253897641377785,0,-33.586326599121094,20.39169692993164,1.1995116472244263
0.07080317288637161,0.011046980507671833,9.82583236694336,0.0002773027863296734,0.00118566246391822,-0.046779460683353424,2.850008726119995,2019-07-25 15:12:15:372,-179.01204960407566,9.993437679016058,0,-33.586326599121094,20.39169692993164,1.1995116472244263
0.06840842217206955,-0.012900516390800476,9.799490928649902,-0.003718414485110892,0.0017184247190966692,-0.04011993093317686,2.8599743843078613,2019-07-25 15:12:15:382,-179.024770898012,6.197158176900995,0,-33.586326599121094,20.39169692993164,1.1995116472244263
0.0851716697216034,-0.0009267681161873043,9.833017349243164,-0.0029192708422688934,-0.00041262439914499955,-0.04411564628656928,2.869985580444336,2019-07-25 15:12:15:392,-179.0341180845055,2.4749640184719564,0,-33.586326599121094,20.39169692993164,1.1995116472244263
0.09235591441392899,-0.0081110168248415,9.861754417419434,-0.0029192708422688934,0.005181379637830914,-0.04091907483609319,2.879990577697754,2019-07-25 15:12:15:402,-179.04561526062292,-1.1719527928904019,0,-32.836631774902344,19.94188117980957,1.0495727062225342
0.0588294193148613,0.008652230724692345,9.804280281066895,-0.0026528897146796686,-0.0030764358375836983,-0.04305012385680698,2.8899898529052734,2019-07-25 15:12:15:412,-179.05609981820328,2.451964484170988,0,-32.836631774902344,19.94188117980957,1.0495727062225342
0.0588294193148613,0.008652230724692345,9.823437690734863,-0.0039847956127001165,-0.0001462432553011296,-0.04518117287752078,2.899991035461426,2019-07-25 15:12:15:422,-179.06803325764403,6.004153623737983,0,-32.836631774902344,19.94188117980957,1.0495727062225342
0.07559266686439514,0.015836479142308235,9.799490928649902,-0.0058494637658990135,0.0027839492294535677,-0.045980316780437104,2.909970760345459,2019-07-25 15:12:15:432,-179.07939326016597,9.485496501254662,0,-32.836631774902344,19.94188117980957,1.0495727062225342
0.08277691900730133,0.003862731158733368,9.78512191772461,-0.001320984076733546,0.0017184247190966692,-0.04171821873900951,2.919996976852417,2019-07-25 15:12:15:442,-179.08907921346736,12.896077890037489,0,-32.836631774902344,19.94188117980957,1.0495727062225342
0.06601367145776749,0.020625978708267212,9.76596450805664,-0.0026528897146796686,0.0003865190486412555,-0.04278374116877181,2.929989814758301,2019-07-25 15:12:15:452,-179.09976873078276,16.237224658508836,0,-32.836631774902344,19.94188117980957,1.0495727062225342
0.08277691900730133,-0.02966376394033432,9.828227996826172,-0.009845181199886033,0.0009192813363289952,-0.0438492677597233,2.940000295639038,2019-07-25 15:12:15:462,-179.10863898174586,12.32147263104882,0,-32.836631774902344,19.94188117980957,1.0495727062225342
0.09235591441392899,-0.00332151772454381,9.809069633483887,-0.006115844893488239,0.00118566246391822,-0.04411564628656928,2.949986696243286,2019-07-25 15:12:15:472,-179.11634215645307,8.478860573412007,0,-32.836631774902344,19.94188117980957,1.0495727062225342
0.07080317288637161,-0.010505766607820988,9.782727241516113,-0.005316700990571915,-0.0001462432553011296,-0.04305012385680698,2.9599876403808594,2019-07-25 15:12:15:482,-179.12563969072977,4.713499573674168,0,-32.836631774902344,19.94188117980957,1.0495727062225342
0.11151391267776489,-0.015295266173779964,9.76596450805664,-0.0018537463319119952,0.002251186974275118,-0.04464841166263963,2.9699888229370117,2019-07-25 15:12:15:492,-179.13130686997906,1.0220652908693757,0,-32.836631774902344,19.94188117980957,1.0495727062225342
0.09714541584253311,0.018231229856610298,9.78512191772461,-0.006115844893488239,0.0017184247190966692,-0.04358288507168813,2.979994773864746,2019-07-25 15:12:15:502,-179.1382700729461,4.602925047683999,0,-32.836631774902344,19.94188117980957,1.0495727062225342
0.0851716697216034,0.003862731158733368,9.82583236694336,-0.0039847956127001165,0.0003865190486412555,-0.04198459726585548,2.9899938106536865,2019-07-25 15:12:15:512,-179.14578897493465,8.112653306223612,0,-32.836631774902344,19.94188117980957,1.0495727062225342
0.07080317288637161,0.0014679816085845232,9.868938446044922,0.0013428273291958624,-0.0012117678144219638,-0.04065269214805801,2.999997854232788,2019-07-25 15:12:15:522,-179.15397146116288,11.54947548722305,0,-32.836631774902344,19.94188117980957,1.0495727062225342
0.10911916196346283,0.044573474675416946,9.708490371704102,0.0013428273291958624,0.00118566246391822,-0.048910509704067226,3.009990930557251,2019-07-25 15:12:15:532,-179.1586782739075,14.912471430380892,0,-33.28644561767578,20.39169692993164,-0.29987791180610657
0.05643467232584953,0.04936297610402107,9.787516593933105,-0.004251176740289341,0.004648617382652464,-0.0470458392101994,3.019998550415039,2019-07-25 15:12:15:542,-179.17150963099155,18.21083151693101,0,-33.28644561767578,20.39169692993164,-0.29987791180610657
0.07080317288637161,0.011046980507671833,9.828227996826172,-0.001320984076733546,0.0019848058466858938,-0.0438492677597233,3.0299837589263916,2019-07-25 15:12:15:552,-179.18093715048641,21.446067505551873,0,-33.28644561767578,20.39169692993164,-0.29987791180610657
0.07559266686439514,0.013441730290651321,9.821043014526367,-0.00558308263830979,0.0003865190486412555,-0.041451836050974335,3.039997100830078,2019-07-25 15:12:15:562,-179.18871577730522,24.618716856254345,0,-33.28644561767578,20.39169692993164,-0.29987791180610657
0.10672441124916077,-0.012900516390800476,9.76596450805664,-0.001320984076733546,0.002517568101864343,-0.04464841166263963,3.0499930381774902,2019-07-25 15:12:15:572,-179.19383220249105,20.528597664297898,0,-33.28644561767578,20.39169692993164,-0.29987791180610657
0.09714541584253311,0.013441730290651321,9.813858985900879,-0.006914988276255913,0.004648617382652464,-0.03985354824514169,3.0599915981292725,2019-07-25 15:12:15:582,-179.20122255746224,23.720338385254166,0,-33.28644561767578,20.39169692993164,-0.29987791180610657
0.08996116369962692,0.008652230724692345,9.773148536682129,-0.006115844893488239,0.0027839492294535677,-0.04917688823091319,3.06998610496521,2019-07-25 15:12:15:592,-179.20821265461853,26.848349283646044,0,-33.28644561767578,20.39169692993164,-0.29987791180610657
0.0779874175786972,-0.015295266173779964,9.811464309692383,-0.0031856519698581177,-0.0012117678144219638,-0.048910509704067226,3.0799877643585205,2019-07-25 15:12:15:602,-179.21425964835308,22.714957720783957,0,-33.28644561767578,20.39169692993164,-0.29987791180610657
0.0324871726334095,-0.024874264374375343,9.821043014526367,-0.004251176740289341,0.0003865190486412555,-0.048910509704067226,3.0899906158447266,2019-07-25 15:12:15:612,-179.22640096998262,18.665948590549476,0,-33.28644561767578,20.39169692993164,-0.29987791180610657
0.08277691900730133,0.02541547827422619,9.83541202545166,-0.006115844893488239,0.0006529002087397708,-0.043316502383652956,3.099987745285034,2019-07-25 15:12:15:622,-179.23259540635124,21.893101542136797,0,-33.28644561767578,20.39169692993164,-0.29987791180610657
0.07080317288637161,-0.015295266173779964,9.830622673034668,-0.0015873652043227706,-0.002277292454816025,-0.04464841166263963,3.1099839210510254,2019-07-25 15:12:15:632,-179.23841219622742,17.857913379197598,0,-33.28644561767578,20.39169692993164,-0.29987791180610657
0.08277691900730133,-0.005716267507523298,9.799490928649902,-0.004517557607804241,0.0014520435915074442,-0.04305012385680698,3.1199944019317627,2019-07-25 15:12:15:642,-179.24478073615435,13.903962811380019,0,-33.28644561767578,20.39169692993164,-0.29987791180610657
0.13306665420532227,-0.015295266173779964,9.799490928649902,-0.0039847956127001165,-0.0025436735824052492,-0.04438202897460446,3.129991054534912,2019-07-25 15:12:15:652,-179.24289797277834,10.029908832913264,0,-33.13650894165039,19.64200210571289,-0.44981685280799866
0.04685567319393158,0.02541547827422619,9.739622116088867,-0.003718414485110892,-0.001744530069600413,-0.04358288507168813,3.140000820159912,2019-07-25 15:12:15:662,-179.25154674208426,13.428410327655492,0,-33.13650894165039,19.64200210571289,-0.44981685280799866
0.06601367145776749,-0.00332151772454381,9.751595497131348,-0.004251176740289341,0.0009192813363289952,-0.043316502383652956,3.1499931812286377,2019-07-25 15:12:15:672,-179.25927440218734,9.562617641062694,0,-33.13650894165039,19.64200210571289,-0.44981685280799866
0.04925042390823364,0.02781022898852825,9.792305946350098,-0.004517557607804241,0.002251186974275118,-0.041451836050974335,3.1599764823913574,2019-07-25 15:12:15:682,-179.26958750542866,12.97064325395939,0,-33.13650894165039,19.64200210571289,-0.44981685280799866
0.030092423781752586,0.013441730290651321,9.84738540649414,-0.006115844893488239,-0.0012117678144219638,-0.04358288507168813,3.169987440109253,2019-07-25 15:12:15:692,-179.28001283464224,16.313104010852474,0,-33.13650894165039,19.64200210571289,-0.44981685280799866
0.08277691900730133,-0.02247951552271843,9.830622673034668,-0.006115844893488239,0.002517568101864343,-0.04518117287752078,3.179994821548462,2019-07-25 15:12:15:702,-179.2861784926556,12.39289884490892,0,-33.13650894165039,19.64200210571289,-0.44981685280799866
0.07080317288637161,0.020625978708267212,9.821043014526367,-0.0029192708422688934,0.0003865190486412555,-0.04544755140436675,3.1899948120117188,2019-07-25 15:12:15:712,-179.29241080816098,15.744273405184547,0,-33.13650894165039,19.64200210571289,-0.44981685280799866
0.10193491727113724,0.013441730290651321,9.799490928649902,-0.0029192708422688934,-0.0033428169651729235,-0.04225097995389066,3.200021982192993,2019-07-25 15:12:15:722,-179.29276104929792,19.02945973296328,0,-33.13650894165039,19.64200210571289,-0.44981685280799866
0.07080317288637161,-0.0081110168248415,9.811464309692383,-0.00558308263830979,0.0027839492294535677,-0.04038631362121203,3.209973096847534,2019-07-25 15:12:15:732,-179.30019216110043,15.05293742067726,0,-33.13650894165039,19.64200210571289,-0.44981685280799866
0.06601367145776749,-0.0081110168248415,9.72764778137207,-0.007714131659023586,-0.001744530069600413,-0.04225097995389066,3.2199971675872803,2019-07-25 15:12:15:742,-179.30543012658563,11.157176049333707,0,-33.13650894165039,19.64200210571289,-0.44981685280799866
0.08277691900730133,-0.05840076133608818,9.76596450805664,-0.0007882218215550968,0.0006529002087397708,-0.03852164312734421,3.229987621307373,2019-07-25 15:12:15:752,-179.30997515785984,7.3413272193171775,0,-33.13650894165039,19.64200210571289,-0.44981685280799866
0.08277691900730133,-0.03684801235795021,9.780332565307617,-0.006914988276255913,0.0057141418930093625,-0.0470458392101994,3.239997148513794,2019-07-25 15:12:15:762,-179.31728884348271,3.602704418582263,0,-33.13650894165039,19.64200210571289,-0.44981685280799866
0.09714541584253311,-0.020084764808416367,9.821043014526367,-0.006115844893488239,0.0038494739998847904,-0.04091907483609319,3.249993324279785,2019-07-25 15:12:15:772,-179.32176919364926,-0.06357346495440686,0,-33.13650894165039,19.64200210571289,-0.44981685280799866
0.06601367145776749,-0.02966376394033432,9.773148536682129,-0.006382226021077464,-0.0014781489420111885,-0.04171821873900951,3.259983777999878,2019-07-25 15:12:15:782,-179.32676454415704,-3.655243697540056,0,-33.13650894165039,19.94188117980957,1.0495727062225342
0.09235591441392899,-0.00332151772454381,9.780332565307617,-0.0031856519698581177,-0.0030764358375836983,-0.03905440434222536,3.2699930667877197,2019-07-25 15:12:15:792,-179.327679647462,-7.179959256218508,0,-33.13650894165039,19.94188117980957,1.0495727062225342
0.05403992161154747,-0.0009267681161873043,9.787516593933105,-0.0015873652043227706,0.004648617382652464,-0.041451836050974335,3.2800018787384033,2019-07-25 15:12:15:802,-179.3374116550398,-10.635359476917934,0,-33.13650894165039,19.94188117980957,1.0495727062225342
0.04925042390823364,-0.02966376394033432,9.823437690734863,-0.00558308263830979,-0.0001462432553011296,-0.04225097995389066,3.289992332458496,2019-07-25 15:12:15:812,-179.344836313051,-14.016060084207314,0,-33.13650894165039,19.94188117980957,1.0495727062225342
0.010934427380561829,0.0014679816085845232,9.866543769836426,-0.0031856519698581177,-0.0014781489420111885,-0.044914790189485604,3.299988269805908,2019-07-25 15:12:15:822,-179.35584000464422,-10.134121363623454,0,-33.13650894165039,19.94188117980957,1.0495727062225342
0.08756642043590546,0.003862731158733368,9.773148536682129,-0.0039847956127001165,-0.0033428169651729235,-0.04464841166263963,3.309983730316162,2019-07-25 15:12:15:832,-179.3565800566125,-6.329655405436522,0,-33.13650894165039,19.94188117980957,1.0495727062225342
0.09714541584253311,-0.0009267681161873043,9.794700622558594,-0.005050319862982691,0.002251186974275118,-0.04651307799531825,3.3199968338012695,2019-07-25 15:12:15:842,-179.35934914778534,-9.800114408001814,0,-33.13650894165039,19.94188117980957,1.0495727062225342
0.09475066512823105,-0.012900516390800476,9.761174201965332,-0.00558308263830979,0.00012013789667006295,-0.045980316780437104,3.329983711242676,2019-07-25 15:12:15:852,-179.3611066038782,-13.199466881716557,0,-33.13650894165039,19.94188117980957,1.0495727062225342
0.05643467232584953,-0.0081110168248415,9.804280281066895,-0.005050319862982691,0.00012013789667006295,-0.05077517603674584,3.3399791717529297,2019-07-25 15:12:15:862,-179.36735593680478,-16.531695075394406,0,-33.13650894165039,19.94188117980957,1.0495727062225342
0.05164517089724541,0.006257480941712856,9.777937889099121,-0.0015873652043227706,0.0033167117447063417,-0.044914790189485604,3.349987745285034,2019-07-25 15:12:15:872,-179.37582029632927,-12.600902445403731,0,-33.13650894165039,19.94188117980957,1.0495727062225342
0.07319791615009308,-0.0440322607755661,9.852174758911133,-0.006115844893488239,0.004648617382652464,-0.04624669530728308,3.359978675842285,2019-07-25 15:12:15:882,-179.3823981545192,-15.9403320733727,0,-33.13650894165039,19.94188117980957,1.0495727062225342
0.0779874175786972,-0.020084764808416367,9.739622116088867,-0.0058494637658990135,-0.0020109111971896377,-0.04624669530728308,3.370004177093506,2019-07-25 15:12:15:892,-179.3844427717944,-19.215869519785358,0,-33.13650894165039,19.94188117980957,1.0495727062225342
0.09714541584253311,-0.00332151772454381,9.787516593933105,-0.006914988276255913,0.0003865190486412555,-0.04757860042508055,3.379986524581909,2019-07-25 15:12:15:902,-179.38559721936332,-22.427287345967926,0,-34.63589859008789,21.14139175415039,1.9492063522338867
0.09475066512823105,-0.015295266173779964,9.718069076538086,-0.00212012745950122,0.0009192813363289952,-0.05050879334871067,3.389988422393799,2019-07-25 15:12:15:912,-179.38722928510379,-25.575747369705795,0,-34.63589859008789,21.14139175415039,1.9492063522338867
0.09235591441392899,0.023020729422569275,9.749200820922852,-0.007181369403845137,0.003583092872295566,-0.04518117287752078,3.399993419647217,2019-07-25 15:12:15:922,-179.39064246895975,-21.46290391668764,0,-34.63589859008789,21.14139175415039,1.9492063522338867
0.09235591441392899,-0.012900516390800476,9.823437690734863,-0.0007882218215550968,0.003050330357042792,-0.04917688823091319,3.409982681274414,2019-07-25 15:12:15:932,-179.39376742778637,-24.631698868554494,0,-34.63589859008789,21.14139175415039,1.9492063522338867
0.04685567319393158,0.011046980507671833,9.787516593933105,-0.005050319862982691,0.00118566246391822,-0.041185453362939155,3.4199981689453125,2019-07-25 15:12:15:942,-179.40107307067447,-20.53751812373418,0,-34.63589859008789,21.14139175415039,1.9492063522338867
0.03488192334771156,-0.03684801235795021,9.80667495727539,-0.006115844893488239,-0.0006790055592435148,-0.04731222189823458,3.429996967315674,2019-07-25 15:12:15:952,-179.40859443882775,-23.719028444214867,0,-34.63589859008789,21.14139175415039,1.9492063522338867
0.07319791615009308,0.013441730290651321,9.780332565307617,-0.005050319862982691,0.003050330357042792,-0.03852164312734421,3.439990520477295,2019-07-25 15:12:15:962,-179.4135581065931,-19.643388859118822,0,-34.63589859008789,21.14139175415039,1.9492063522338867
0.0851716697216034,-0.015295266173779964,9.809069633483887,-0.003718414485110892,0.0019848058466858938,-0.04171821873900951,3.449998378753662,2019-07-25 15:12:15:972,-179.41645260729072,-22.846644733695268,0,-34.63589859008789,21.14139175415039,1.9492063522338867
0.08038216829299927,0.03499447554349899,9.780332565307617,-0.005050319862982691,0.002517568101864343,-0.043316502383652956,3.4599828720092773,2019-07-25 15:12:15:982,-179.42011718541474,-18.790980609308786,0,-34.63589859008789,21.14139175415039,1.9492063522338867
0.03967142477631569,-0.02966376394033432,9.811464309692383,-0.003718414485110892,0.0009192813363289952,-0.04651307799531825,3.469987630844116,2019-07-25 15:12:15:992,-179.42759792191728,-22.00960759359369,0,-34.63589859008789,21.14139175415039,1.9492063522338867
0.09475066512823105,0.0014679816085845232,9.833017349243164,-0.0026528897146796686,-0.0006790055592435148,-0.04624669530728308,3.4799933433532715,2019-07-25 15:12:16:002,-179.42762281789797,-17.968096071779925,0,-34.63589859008789,21.14139175415039,1.9492063522338867
0.04685567319393158,0.02541547827422619,9.849780082702637,-0.0047839387353934655,-0.001744530069600413,-0.04198459726585548,3.4899892807006836,2019-07-25 15:12:16:012,-179.4326400975578,-14.009005876544373,0,-34.63589859008789,21.14139175415039,1.9492063522338867
-0.005828820634633303,0.020625978708267212,9.801885604858398,-0.005050319862982691,-0.0014781489420111885,-0.047844983113115726,3.49999737739563,2019-07-25 15:12:16:022,-172.2438380787273,-10.1283990467808,0,-34.63589859008789,21.14139175415039,1.9492063522338867
0.06840842217206955,0.03259972855448723,9.852174758911133,-0.00212012745950122,-0.001744530069600413,-0.04358288507168813,3.5099780559539795,2019-07-25 15:12:16:032,-172.39002713931725,-6.328434608126937,0,-33.43638610839844,20.241758346557617,1.0495727062225342
0.030092423781752586,0.008652230724692345,9.742016792297363,-0.003452033357521668,-0.002810054709994474,-0.04305012385680698,3.5200884342193604,2019-07-25 15:12:16:043,-172.53709169503895,-2.600923937200635,0,-33.43638610839844,20.241758346557617,1.0495727062225342
0.09475066512823105,0.011046980507671833,9.773148536682129,-0.0023865085870904443,0.0009192813363289952,-0.045713934092401924,3.5305910110473633,2019-07-25 15:12:16:053,-172.6757826757022,1.0512066355820795,0,-33.43638610839844,20.241758346557617,1.0495727062225342
0.0324871726334095,-0.005716267507523298,9.828227996826172,-0.003452033357521668,-0.00041262439914499955,-0.04038631362121203,3.542348861694336,2019-07-25 15:12:16:065,-172.81820680074657,-2.5668719745252835,0,-33.43638610839844,20.241758346557617,1.0495727062225342
0.04925042390823364,-0.00332151772454381,9.799490928649902,-0.005316700990571915,-0.002810054709994474,-0.04038631362121203,3.5518412590026855,2019-07-25 15:12:16:074,-172.95458580377914,-6.112312344561195,0,-33.43638610839844,20.241758346557617,1.0495727062225342
0.09235591441392899,-0.0081110168248415,9.811464309692383,-0.0015873652043227706,0.003583092872295566,-0.0481113658011509,3.5601232051849365,2019-07-25 15:12:16:083,-173.08637407886215,-9.588380610885725,0,-33.43638610839844,20.241758346557617,1.0495727062225342
0.06840842217206955,-0.04163751378655434,9.809069633483887,-0.00212012745950122,0.00012013789667006295,-0.04464841166263963,3.5700035095214844,2019-07-25 15:12:16:092,-173.21672176478825,-12.990572648775721,0,-33.43638610839844,20.241758346557617,1.0495727062225342
0.09475066512823105,0.044573474675416946,9.801885604858398,0.0021419707119635363,0.0003865190486412555,-0.04065269214805801,3.5800628662109375,2019-07-25 15:12:16:103,-173.34152891331192,-9.13718199341999,0,-33.43638610839844,20.241758346557617,1.0495727062225342
0.07559266686439514,0.013441730290651321,9.75638484954834,-0.0029192708422688934,0.002251186974275118,-0.04438202897460446,3.5900473594665527,2019-07-25 15:12:16:113,-173.46708201387818,-5.354380497821552,0,-33.43638610839844,20.241758346557617,1.0495727062225342
0.0779874175786972,0.011046980507671833,9.787516593933105,-0.0058494637658990135,0.0009192813363289952,-0.041185453362939155,3.600003480911255,2019-07-25 15:12:16:122,-173.58912376489752,-1.6453162058766821,0,-33.43638610839844,20.241758346557617,1.0495727062225342
0.02530292607843876,-0.00332151772454381,9.83541202545166,-0.007181369403845137,0.0006529002087397708,-0.04518117287752078,3.609973192214966,2019-07-25 15:12:16:132,-173.71475876563565,-5.208002778786128,0,-33.43638610839844,20.241758346557617,1.0495727062225342
0.08756642043590546,-0.03205851465463638,9.828227996826172,0.0008100650740174133,0.004648617382652464,-0.0470458392101994,3.6200037002563477,2019-07-25 15:12:16:142,-173.83287226847438,-8.700561133748613,0,-33.43638610839844,20.241758346557617,1.0495727062225342
0.12109291553497314,0.02541547827422619,9.799490928649902,-0.0031856519698581177,0.0003865190486412555,-0.04358288507168813,3.6299891471862793,2019-07-25 15:12:16:152,-173.9422721080235,-4.927735758710583,0,-35.08571243286133,20.091819763183594,0.29987791180610657
0.14025090634822845,-0.046427011489868164,9.830622673034668,-0.0039847956127001165,0.00118566246391822,-0.04544755140436675,3.6399857997894287,2019-07-25 15:12:16:162,-174.04774482379185,-8.421532568047873,0,-35.08571243286133,20.091819763183594,0.29987791180610657
0.09954016655683517,-0.02966376394033432,9.804280281066895,-0.004251176740289341,-0.0001462432553011296,-0.0438492677597233,3.649979829788208,2019-07-25 15:12:16:172,-174.15507409421667,-11.847249247928692,0,-35.08571243286133,20.091819763183594,0.29987791180610657
0.13306665420532227,-0.012900516390800476,9.761174201965332,-0.004251176740289341,0.003583092872295566,-0.04464841166263963,3.6599788665771484,2019-07-25 15:12:16:182,-174.25836389332835,-15.206403004333474,0,-35.08571243286133,20.091819763183594,0.29987791180610657
0.09954016655683517,0.008652230724692345,9.811464309692383,-0.004251176740289341,0.0003865190486412555,-0.04225097995389066,3.669987678527832,2019-07-25 15:12:16:192,-174.36178858764154,-11.3008963351942,0,-35.08571243286133,20.091819763183594,0.29987791180610657
0.08277691900730133,0.006257480941712856,9.823437690734863,1.0921627247073539e-05,0.0014520435915074442,-0.03905440434222536,3.6800262928009033,2019-07-25 15:12:16:203,-174.46571548801253,-7.4756145070811115,0,-35.08571243286133,20.091819763183594,0.29987791180610657
0.08038216829299927,-0.012900516390800476,9.794700622558594,-0.001320984076733546,-0.0038755792203513722,-0.04518117287752078,3.689990758895874,2019-07-25 15:12:16:212,-174.56482880423565,-10.923853847089754,0,-35.08571243286133,20.091819763183594,0.29987791180610657
0.08996116369962692,-0.010505766607820988,9.794700622558594,0.0029411142247683726,0.0009192813363289952,-0.04011993093317686,3.6999948024749756,2019-07-25 15:12:16:222,-174.66352404320847,-14.30579976438722,0,-35.08571243286133,20.091819763183594,0.29987791180610657
0.08756642043590546,-0.03684801235795021,9.773148536682129,-0.0029192708422688934,0.0017184247190966692,-0.042517362641925835,3.7099740505218506,2019-07-25 15:12:16:232,-174.76094944032585,-17.613727542608814,0,-35.08571243286133,20.091819763183594,0.29987791180610657
0.06361892074346542,-0.015295266173779964,9.780332565307617,-0.0007882218215550968,0.0017184247190966692,-0.04225097995389066,3.720004081726074,2019-07-25 15:12:16:242,-174.85924441760199,-20.859217004163916,0,-35.08571243286133,20.091819763183594,0.29987791180610657
0.030092423781752586,0.02541547827422619,9.813858985900879,-0.0039847956127001165,-0.0025436735824052492,-0.04464841166263963,3.7299890518188477,2019-07-25 15:12:16:252,-174.95711967475947,-16.842766202225793,0,-35.08571243286133,20.091819763183594,0.29987791180610657
0.0851716697216034,0.011046980507671833,9.833017349243164,-0.0058494637658990135,-0.002277292454816025,-0.042517362641925835,3.739987850189209,2019-07-25 15:12:16:262,-175.0467732901952,-12.903914194228731,0,-35.08571243286133,20.091819763183594,0.29987791180610657
0.04685567319393158,0.011046980507671833,9.84738540649414,-0.0029192708422688934,0.0006529002087397708,-0.043316502383652956,3.7499921321868896,2019-07-25 15:12:16:272,-175.1407521476945,-9.045481550778078,0,-35.08571243286133,20.091819763183594,0.29987791180610657
0.0779874175786972,0.018231229856610298,9.74441146850586,-0.0029192708422688934,-0.004674722603119046,-0.04278374116877181,3.759982109069824,2019-07-25 15:12:16:282,-175.22614397845234,-5.2650783353557955,0,-32.836631774902344,20.241758346557617,0.7496947646141052
0.07319791615009308,0.0014679816085845232,9.782727241516113,-0.0007882218215550968,0.0009192813363289952,-0.041185453362939155,3.769986391067505,2019-07-25 15:12:16:292,-175.31356349874352,-1.5595059480540447,0,-32.836631774902344,20.241758346557617,0.7496947646141052
0.05403992161154747,-0.012900516390800476,9.811464309692383,-0.003452033357521668,-0.0006790055592435148,-0.04225097995389066,3.7799956798553467,2019-07-25 15:12:16:302,-175.4005991643264,-5.124869020572019,0,-32.836631774902344,20.241758346557617,0.7496947646141052
0.07080317288637161,-0.00332151772454381,9.82583236694336,-0.004251176740289341,-0.004408341475529821,-0.04411564628656928,3.789984941482544,2019-07-25 15:12:16:312,-175.4818574435368,-8.619599808971568,0,-32.836631774902344,20.241758346557617,0.7496947646141052
0.06361892074346542,0.006257480941712856,9.768359184265137,-0.0015873652043227706,0.0014520435915074442,-0.04198459726585548,3.7999866008758545,2019-07-25 15:12:16:322,-175.56557278958536,-4.847050419669877,0,-32.836631774902344,20.241758346557617,0.7496947646141052
0.06840842217206955,-0.017690015956759453,9.78512191772461,0.0008100650740174133,0.0033167117447063417,-0.04198459726585548,3.809974193572998,2019-07-25 15:12:16:332,-175.64811031255138,-8.348492058079545,0,-32.836631774902344,20.241758346557617,0.7496947646141052
0.03967142477631569,0.008652230724692345,9.787516593933105,-0.0002554595176127117,0.00012013789667006295,-0.04011993093317686,3.81998872756958,2019-07-25 15:12:16:342,-175.7305709844063,-4.582391565122202,0,-32.836631774902344,20.241758346557617,0.7496947646141052
0.10193491727113724,-0.0081110168248415,9.787516593933105,-0.0015873652043227706,0.004648617382652464,-0.04305012385680698,3.8299882411956787,2019-07-25 15:12:16:352,-175.80663559282758,-8.08890284181457,0,-32.836631774902344,20.241758346557617,0.7496947646141052
0.06840842217206955,0.006257480941712856,9.801885604858398,-0.0026528897146796686,0.00012013789667006295,-0.03825526043930904,3.839998483657837,2019-07-25 15:12:16:362,-175.88257306804934,-4.326365212708948,0,-32.836631774902344,20.241758346557617,0.7496947646141052
0.06840842217206955,-0.00332151772454381,9.804280281066895,-0.006382226021077464,-0.0006790055592435148,-0.049443270918948366,3.8499934673309326,2019-07-25 15:12:16:372,-175.95654515123465,-7.835867878852117,0,-32.836631774902344,20.241758346557617,0.7496947646141052
0.07319791615009308,0.013441730290651321,9.813858985900879,-0.0018537463319119952,-0.0033428169651729235,-0.0481113658011509,3.8599846363067627,2019-07-25 15:12:16:382,-176.02699211983347,-4.07968008756189,0,-32.836631774902344,20.241758346557617,0.7496947646141052
0.08277691900730133,-0.03205851465463638,9.794700622558594,-0.0031856519698581177,0.0006529002087397708,-0.04358288507168813,3.8699984550476074,2019-07-25 15:12:16:392,-176.097135261751,-7.59254465265795,0,-32.836631774902344,20.241758346557617,0.7496947646141052
0.08996116369962692,0.013441730290651321,9.813858985900879,-0.0058494637658990135,-0.00041262439914499955,-0.04997603213382952,3.8800079822540283,2019-07-25 15:12:16:402,-176.16445662350287,-3.8389756876110295,0,-33.586326599121094,20.69157600402832,0.5997558236122131
0.08756642043590546,0.0014679816085845232,9.775543212890625,-0.0023865085870904443,-0.0006790055592435148,-0.043316502383652956,3.8899927139282227,2019-07-25 15:12:16:412,-176.23052231457345,-0.16103027929241387,0,-33.586326599121094,20.69157600402832,0.5997558236122131
0.10193491727113724,-0.005716267507523298,9.830622673034668,-0.0010546029491443213,0.00012013789667006295,-0.04278374116877181,3.8999974727630615,2019-07-25 15:12:16:422,-176.29409764591324,-3.756550911873285,0,-33.586326599121094,20.69157600402832,0.5997558236122131
0.08756642043590546,-0.027269015088677406,9.751595497131348,-0.006382226021077464,0.0009192813363289952,-0.041185453362939155,3.9099831581115723,2019-07-25 15:12:16:432,-176.35844142550962,-7.274637022944505,0,-33.586326599121094,20.69157600402832,0.5997558236122131
0.08996116369962692,-0.017690015956759453,9.799490928649902,-0.0026528897146796686,-0.0001462432553011296,-0.04011993093317686,3.9199907779693604,2019-07-25 15:12:16:442,-176.42067099461678,-10.72558495182617,0,-33.586326599121094,20.69157600402832,0.5997558236122131
0.05403992161154747,-0.015295266173779964,9.713279724121094,-0.0039847956127001165,-0.0009453866868327393,-0.04757860042508055,3.929997682571411,2019-07-25 15:12:16:452,-176.48535112865497,-14.107029806583755,0,-33.586326599121094,20.69157600402832,0.5997558236122131
0.06361892074346542,0.013441730290651321,9.78512191772461,-0.0039847956127001165,-0.001744530069600413,-0.04358288507168813,3.9399948120117188,2019-07-25 15:12:16:462,-176.54721465944905,-10.22422652793226,0,-33.586326599121094,20.69157600402832,0.5997558236122131
0.09235591441392899,-0.012900516390800476,9.789911270141602,-0.003718414485110892,-0.0014781489420111885,-0.04518117287752078,3.9500043392181396,2019-07-25 15:12:16:472,-176.6046295967023,-13.616142110426003,0,-33.586326599121094,20.69157600402832,0.5997558236122131
0.09954016655683517,-0.015295266173779964,9.837806701660156,-0.003452033357521668,0.0009192813363289952,-0.044914790189485604,3.9599802494049072,2019-07-25 15:12:16:482,-176.66145781398933,-16.94010402214467,0,-33.586326599121094,20.69157600402832,0.5997558236122131
0.07080317288637161,0.006257480941712856,9.773148536682129,-0.006648607148666687,-0.0009453866868327393,-0.04970965360698355,3.969996929168701,2019-07-25 15:12:16:492,-176.71939531129118,-12.998296229428053,0,-33.586326599121094,20.69157600402832,0.5997558236122131
0.0779874175786972,0.03978397697210312,9.76596450805664,-0.0023865085870904443,0.0017184247190966692,-0.044914790189485604,3.9799957275390625,2019-07-25 15:12:16:502,-176.77682151434908,-9.141658578158,0,-33.586326599121094,20.69157600402832,0.5997558236122131
0.10911916196346283,-0.0081110168248415,9.804280281066895,-0.003718414485110892,0.0014520435915074442,-0.049443270918948366,3.9899978637695312,2019-07-25 15:12:16:512,-176.8293473543587,-12.555789067659214,0,-33.586326599121094,20.69157600402832,0.5997558236122131
0.0588294193148613,0.008652230724692345,9.804280281066895,-0.0018537463319119952,-0.0012117678144219638,-0.05077517603674584,3.999997615814209,2019-07-25 15:12:16:522,-176.88520417029127,-8.704643700868845,0,-33.586326599121094,20.69157600402832,0.5997558236122131
0.08996116369962692,-0.02966376394033432,9.782727241516113,1.0921627247073539e-05,0.0014520435915074442,-0.041451836050974335,4.0099828243255615,2019-07-25 15:12:16:532,-176.9377767519062,-12.127082247904479,0,-34.03614044189453,19.342124938964844,1.0495727062225342
0.05643467232584953,-0.017690015956759453,9.787516593933105,-0.001320984076733546,-0.0009453866868327393,-0.044914790189485604,4.019998550415039,2019-07-25 15:12:16:542,-176.9918822900347,-15.48172657330483,0,-34.03614044189453,19.342124938964844,1.0495727062225342
0.1043296679854393,0.018231229856610298,9.734832763671875,-0.0007882218215550968,0.0009192813363289952,-0.04518117287752078,4.029993534088135,2019-07-25 15:12:16:552,-177.0402800808158,-11.573795727166402,0,-34.03614044189453,19.342124938964844,1.0495727062225342
0.0588294193148613,0.003862731158733368,9.809069633483887,-0.003452033357521668,0.002517568101864343,-0.048377744327996866,4.039989709854126,2019-07-25 15:12:16:562,-177.09401505889667,-7.7408334939824055,0,-34.03614044189453,19.342124938964844,1.0495727062225342
0.08756642043590546,-0.034453265368938446,9.780332565307617,-0.008246893914202035,0.0019848058466858938,-0.052373463842578495,4.049992322921753,2019-07-25 15:12:16:572,-177.14299004301088,-11.177348283935853,0,-34.03614044189453,19.342124938964844,1.0495727062225342
0.04446092247962952,-0.012900516390800476,9.789911270141602,-0.003452033357521668,0.002517568101864343,-0.047844983113115726,4.059983491897583,2019-07-25 15:12:16:582,-177.196338460242,-14.550354704849049,0,-34.03614044189453,19.342124938964844,1.0495727062225342
0.06122417002916336,-0.03205851465463638,9.739622116088867,-0.006382226021077464,0.004648617382652464,-0.04464841166263963,4.069994926452637,2019-07-25 15:12:16:592,-177.24782163096205,-17.851988069753364,0,-34.03614044189453,19.342124938964844,1.0495727062225342
0.05403992161154747,0.02781022898852825,9.809069633483887,-0.0005218406614565815,0.0017184247190966692,-0.0470458392101994,4.079999923706055,2019-07-25 15:12:16:602,-177.2975175832907,-13.897903988274335,0,-34.03614044189453,19.342124938964844,1.0495727062225342
0.07080317288637161,0.02781022898852825,9.844990730285645,-0.006115844893488239,-0.00041262439914499955,-0.046779460683353424,4.089993238449097,2019-07-25 15:12:16:612,-177.34309464847308,-10.01975115095934,0,-34.03614044189453,19.342124938964844,1.0495727062225342
0.0779874175786972,-0.020084764808416367,9.734832763671875,-0.007181369403845137,0.0009192813363289952,-0.048910509704067226,4.099992990493774,2019-07-25 15:12:16:622,-177.38756898766073,-13.412959665817498,0,-34.03614044189453,19.342124938964844,1.0495727062225342
0.10193491727113724,0.023020729422569275,9.813858985900879,-0.0023865085870904443,0.005181379637830914,-0.0481113658011509,4.109983205795288,2019-07-25 15:12:16:632,-177.43082209262653,-9.54604977369933,0,-34.03614044189453,19.342124938964844,1.0495727062225342
0.08038216829299927,-0.017690015956759453,9.809069633483887,-0.001320984076733546,-0.002277292454816025,-0.043316502383652956,4.119997262954712,2019-07-25 15:12:16:642,-177.47153495745036,-12.952319423172252,0,-34.03614044189453,19.342124938964844,1.0495727062225342
0.09475066512823105,-0.00332151772454381,9.749200820922852,-0.0029192708422688934,0.0003865190486412555,-0.044914790189485604,4.129992961883545,2019-07-25 15:12:16:652,-177.51118460552686,-16.291244163807374,0,-32.986568450927734,20.091819763183594,0.5997558236122131
0.05164517089724541,0.006257480941712856,9.787516593933105,-0.0010546029491443213,-0.0009453866868327393,-0.042517362641925835,4.139995574951172,2019-07-25 15:12:16:662,-177.55438341703476,-12.365559589063203,0,-32.986568450927734,20.091819763183594,0.5997558236122131
0.08038216829299927,-0.015295266173779964,9.83541202545166,-0.005050319862982691,-0.00041262439914499955,-0.044914790189485604,4.1499974727630615,2019-07-25 15:12:16:672,-177.59369896630824,-15.713630074207098,0,-32.986568450927734,20.091819763183594,0.5997558236122131
0.03488192334771156,0.008652230724692345,9.763568878173828,-0.003718414485110892,-0.003609198092762148,-0.04065269214805801,4.1599977016448975,2019-07-25 15:12:16:682,-177.6357044300723,-11.798285021752662,0,-32.986568450927734,20.091819763183594,0.5997558236122131
0.05403992161154747,-0.010505766607820988,9.782727241516113,-0.003718414485110892,-0.0020109111971896377,-0.04038631362121203,4.169998407363892,2019-07-25 15:12:16:692,-177.6755311485813,-15.159000679794445,0,-32.986568450927734,20.091819763183594,0.5997558236122131
0.06601367145776749,0.02541547827422619,9.794700622558594,-0.003452033357521668,0.00118566246391822,-0.04358288507168813,4.17998480796814,2019-07-25 15:12:16:702,-177.71496231938963,-11.256858427376448,0,-32.986568450927734,20.091819763183594,0.5997558236122131
0.06840842217206955,-0.017690015956759453,9.837806701660156,-0.00212012745950122,0.0009192813363289952,-0.04464841166263963,4.189993858337402,2019-07-25 15:12:16:712,-177.75321157609537,-14.628469187763864,0,-32.986568450927734,20.091819763183594,0.5997558236122131
0.08277691900730133,-0.015295266173779964,9.833017349243164,0.0010764462016066379,-0.0025436735824052492,-0.03852164312734421,4.199997186660767,2019-07-25 15:12:16:722,-177.78707220982585,-17.93472195709867,0,-32.986568450927734,20.091819763183594,0.5997558236122131
0.06601367145776749,0.023020729422569275,9.782727241516113,-0.0029192708422688934,-0.0014781489420111885,-0.04038631362121203,4.209998369216919,2019-07-25 15:12:16:732,-177.8227681879666,-13.977084722936564,0,-32.986568450927734,20.091819763183594,0.5997558236122131
0.07559266686439514,0.011046980507671833,9.751595497131348,-0.004251176740289341,0.0009192813363289952,-0.053172607745494815,4.219991683959961,2019-07-25 15:12:16:742,-177.85794589455173,-10.096455730785786,0,-32.986568450927734,20.091819763183594,0.5997558236122131
0.10911916196346283,-0.0009267681161873043,9.844990730285645,0.0008100650740174133,-0.0001462432553011296,-0.041451836050974335,4.229999780654907,2019-07-25 15:12:16:752,-177.8880043024952,-13.49487396296765,0,-32.986568450927734,20.091819763183594,0.5997558236122131
0.09954016655683517,0.03499447554349899,9.78512191772461,-0.0018537463319119952,-0.0014781489420111885,-0.044914790189485604,4.239969491958618,2019-07-25 15:12:16:762,-177.91776020872027,-9.628036874242701,0,-32.986568450927734,20.091819763183594,0.5997558236122131
0.06601367145776749,-0.03684801235795021,9.780332565307617,-0.00558308263830979,0.0019848058466858938,-0.042517362641925835,4.249997615814209,2019-07-25 15:12:16:772,-177.95278821052665,-13.028015138963319,0,-32.986568450927734,20.091819763183594,0.5997558236122131
0.10911916196346283,-0.02247951552271843,9.78512191772461,-0.0015873652043227706,-0.0014781489420111885,-0.04091907483609319,4.2599780559539795,2019-07-25 15:12:16:782,-177.98012589918233,-16.363932750759705,0,-33.88620376586914,19.791940689086914,0.8996337056159973
0.042066171765327454,0.008652230724692345,9.758779525756836,-0.003452033357521668,0.003050330357042792,-0.04305012385680698,4.269994497299194,2019-07-25 15:12:16:792,-178.01729940312708,-12.43572857672839,0,-33.88620376586914,19.791940689086914,0.8996337056159973
0.07080317288637161,0.013441730290651321,9.75638484954834,-0.001320984076733546,0.0033167117447063417,-0.04305012385680698,4.280013084411621,2019-07-25 15:12:16:802,-178.05050331448209,-8.587849664830667,0,-33.88620376586914,19.791940689086914,0.8996337056159973
0.07319791615009308,0.020625978708267212,9.789911270141602,-0.003718414485110892,0.0019848058466858938,-0.04171821873900951,4.289988040924072,2019-07-25 15:12:16:812,-178.08203721811006,-4.816424296531766,0,-33.88620376586914,19.791940689086914,0.8996337056159973
0.08038216829299927,0.018231229856610298,9.849780082702637,-0.0026528897146796686,0.0017184247190966692,-0.03612421141859524,4.299996376037598,2019-07-25 15:12:16:822,-178.11201078112757,-1.1207259794195177,0,-33.88620376586914,19.791940689086914,0.8996337056159973
0.10193491727113724,0.030204977840185165,9.816253662109375,-0.001320984076733546,-0.0020109111971896377,-0.03718973800954674,4.309994220733643,2019-07-25 15:12:16:832,-178.13674258205396,2.498904097275487,0,-33.88620376586914,19.791940689086914,0.8996337056159973
0.09235591441392899,0.0014679816085845232,9.797096252441406,-0.0023865085870904443,0.002251186974275118,-0.04305012385680698,4.319989442825317,2019-07-25 15:12:16:842,-178.16446909204382,6.05009369420232,0,-33.88620376586914,19.791940689086914,0.8996337056159973
0.0588294193148613,0.015836479142308235,9.842596054077148,-0.004517557607804241,0.0019848058466858938,-0.045713934092401924,4.329995155334473,2019-07-25 15:12:16:852,-178.1954457307739,9.529786125237255,0,-33.88620376586914,19.791940689086914,0.8996337056159973
0.05643467232584953,0.058941975235939026,9.799490928649902,-0.0047839387353934655,-0.0014781489420111885,-0.036923355321511565,4.339998006820679,2019-07-25 15:12:16:862,-178.2241074156276,12.934984974133181,0,-33.88620376586914,19.791940689086914,0.8996337056159973
0.03488192334771156,-0.04882176220417023,9.804280281066895,-0.00212012745950122,-0.0009453866868327393,-0.044914790189485604,4.350000381469727,2019-07-25 15:12:16:872,-178.2550173568377,9.08318220315739,0,-33.88620376586914,19.791940689086914,0.8996337056159973
0.037276674062013626,-0.00332151772454381,9.789911270141602,-0.0005218406614565815,0.0038494739998847904,-0.03985354824514169,4.359984874725342,2019-07-25 15:12:16:882,-178.28771189409917,5.3021999033799965,0,-33.88620376586914,19.791940689086914,0.8996337056159973
0.06601367145776749,0.03499447554349899,9.797096252441406,-0.0026528897146796686,0.0033167117447063417,-0.03612421141859524,4.369994878768921,2019-07-25 15:12:16:892,-178.31610068814476,8.793553884381664,0,-33.88620376586914,19.791940689086914,0.8996337056159973
0.0779874175786972,0.008652230724692345,9.742016792297363,-0.0029192708422688934,0.0017184247190966692,-0.04065269214805801,4.37999415397644,2019-07-25 15:12:16:902,-178.3415703365665,12.218304126472889,0,-32.836631774902344,19.64200210571289,1.3494505882263184
0.05164517089724541,-0.0081110168248415,9.833017349243164,-0.005316700990571915,0.0033167117447063417,-0.03985354824514169,4.3899946212768555,2019-07-25 15:12:16:912,-178.37058280049348,8.377868741500771,0,-32.836631774902344,19.64200210571289,1.3494505882263184
0.020513426512479782,-0.0009267681161873043,9.782727241516113,-0.006115844893488239,0.00118566246391822,-0.04038631362121203,4.399997711181641,2019-07-25 15:12:16:922,-178.40143422815657,4.613855024824481,0,-32.836631774902344,19.64200210571289,1.3494505882263184
0.022908175364136696,-0.04163751378655434,9.753990173339844,-0.001320984076733546,-0.0009453866868327393,-0.03825526043930904,4.409992933273315,2019-07-25 15:12:16:932,-178.43018367687463,0.9272109179255734,0,-32.836631774902344,19.64200210571289,1.3494505882263184
0.03488192334771156,-0.017690015956759453,9.80667495727539,-0.0015873652043227706,0.00118566246391822,-0.04305012385680698,4.419999837875366,2019-07-25 15:12:16:942,-178.45817025532054,-2.6883742953582614,0,-32.836631774902344,19.64200210571289,1.3494505882263184
0.013329177163541317,-0.005716267507523298,9.816253662109375,-0.00558308263830979,0.0019848058466858938,-0.04624669530728308,4.429998159408569,2019-07-25 15:12:16:952,-178.4885651277315,-6.230805145053918,0,-32.836631774902344,19.64200210571289,1.3494505882263184
-0.02259206771850586,-0.0009267681161873043,9.816253662109375,0.0013428273291958624,0.00118566246391822,-0.041451836050974335,4.440043926239014,2019-07-25 15:12:16:963,-171.322099935349,-9.70683830095775,0,-32.836631774902344,19.64200210571289,1.3494505882263184
-0.010618319734930992,0.018231229856610298,9.868938446044922,0.0021419707119635363,0.0038494739998847904,-0.03905440434222536,4.449988603591919,2019-07-25 15:12:16:972,-164.299040381499,-5.916014481773125,0,-32.836631774902344,19.64200210571289,1.3494505882263184
0.037276674062013626,0.03978397697210312,9.804280281066895,-0.0039847956127001165,0.0003865190486412555,-0.04624669530728308,4.459989070892334,2019-07-25 15:12:16:982,-164.6089197702964,-2.20010652071582,0,-32.836631774902344,19.64200210571289,1.3494505882263184
-0.04653956741094589,-0.046427011489868164,9.83541202545166,-0.006115844893488239,0.00438223625506324,-0.04651307799531825,4.469970941543579,2019-07-25 15:12:16:992,-157.72461977906417,-5.747267445484318,0,-32.836631774902344,19.64200210571289,1.3494505882263184
0.09475066512823105,0.06133672222495079,9.780332565307617,-0.006115844893488239,0.003050330357042792,-0.05157431993966217,4.480000972747803,2019-07-25 15:12:17:002,-158.16074414071238,-2.0360641863473705,0,-32.836631774902344,19.64200210571289,1.3494505882263184
0.0779874175786972,0.0014679816085845232,9.6989107131958,-0.0015873652043227706,0.002251186974275118,-0.052373463842578495,4.489997863769531,2019-07-25 15:12:17:012,-158.58957897464114,1.6053746832728362,0,-32.836631774902344,19.64200210571289,1.3494505882263184
0.21927765011787415,0.0996527224779129,9.622279167175293,0.0013428273291958624,0.008644334296490834,-0.05077517603674584,4.499998092651367,2019-07-25 15:12:17:022,-158.99653206914215,5.160645975117353,0,-32.836631774902344,19.64200210571289,1.3494505882263184
