ACCELEROMETER X (m/s²),ACCELEROMETER Y (m/s²),ACCELEROMETER Z (m/s²),GYROSCOPE X (rad/s),GYROSCOPE Y (rad/s),GYROSCOPE Z (rad/s),Time since start in ms ,YYYY-MO-DD HH-MI-SS_SSS,Pitch (Deg),Roll (Deg),Heading (Deg),MagX,MagY,MagZ
-0.2555389404296875,0.0688442662358284,9.773797035217285,0.0009728239429744294,0.006893944102157782,-0.0023673291459040203,0.0,2019-07-26 12:19:00:081,3.5700465071060052,3.5919285807714134,0,-22.041025161743164,24.14017105102539,-30.437606811523438
-0.21243345737457275,0.06405476480722427,9.802534103393555,-0.001158225272795111,0.006627562974568559,3.010106944941304e-05,0.009998559951782227,2019-07-26 12:19:00:091,7.070095174644829,7.113252366212334,0,-22.041025161743164,24.14017105102539,-30.437606811523438
-0.23398619890213013,0.020949270576238632,9.89113998413086,-0.0006254629525980806,0.0020990834154402524,-0.001834566890725571,0.019997358322143555,2019-07-26 12:19:00:101,10.500411894848135,10.568911446682394,0,-22.041025161743164,24.14017105102539,-30.437606811523438
-0.267512708902359,0.04968626797199249,9.797744750976562,-0.0030228932959568454,0.004496513953854761,0.0005628633876146128,0.029995203018188477,2019-07-26 12:19:00:111,13.856599681349017,13.953419091520571,0,-22.041025161743164,24.14017105102539,-30.437606811523438
-0.229196697473526,0.04010726884007454,9.788166046142578,0.0009728239429744294,-0.0008311091830969619,-0.0005026612202701574,0.039994001388549805,2019-07-26 12:19:00:121,17.153106792327684,17.2691091428956,0,-22.041025161743164,24.14017105102539,-30.437606811523438
-0.18130171298980713,0.07363376021385193,9.773797035217285,-0.0032892744235460706,0.0063611818469793335,0.0013620067703822866,0.04999542236328125,2019-07-26 12:19:00:131,20.385218317876987,20.516941218475253,0,-22.041025161743164,24.14017105102539,-30.437606811523438
-0.229196697473526,0.04489676654338837,9.809718132019043,-0.0006254629525980806,0.004230132566191211,0.0002964822275160976,0.059996843338012695,2019-07-26 12:19:00:141,23.548369813271147,23.701709091800677,0,-22.041025161743164,24.14017105102539,-30.437606811523438
-0.19088071584701538,0.06644951552152634,9.848034858703613,-0.0014246064003843356,0.006094800719390108,0.004824961819153694,0.07000088691711426,2019-07-26 12:19:00:151,26.65177074544437,26.820743211466077,0,-22.041025161743164,24.14017105102539,-30.437606811523438
-0.222012460231781,0.07123901695013046,9.816903114318848,0.0012392051355822353,0.003963751438601987,3.010106944941304e-05,0.07999610900878906,2019-07-26 12:19:00:161,29.690599915502172,29.875317366735537,0,-22.041025161743164,24.14017105102539,-30.437606811523438
-0.23877570033073425,0.07602851092815399,9.809718132019043,0.0009728239429744294,0.00556203846421166,0.0024275314107763475,0.08999776840209961,2019-07-26 12:19:00:171,32.66577740647543,32.86838364816239,0,-22.340904235839844,24.739927291870117,-29.537973403930664
-0.22680194675922394,0.09279175847768784,9.838455200195312,-9.270064052837282e-05,0.006094800719390108,-0.00023628007642628753,0.09999561309814453,2019-07-26 12:19:00:181,35.58262872079003,35.800260589929024,0,-22.340904235839844,24.739927291870117,-29.537973403930664
-0.21961770951747894,0.06644951552152634,9.82169246673584,-0.002756512168367621,0.0020990834154402524,0.0005628633876146128,0.10999608039855957,2019-07-26 12:19:00:191,38.444178511007756,38.678050554879945,0,-22.340904235839844,24.739927291870117,-29.537973403930664
-0.20045970380306244,0.03531776741147041,9.788166046142578,0.0009728239429744294,0.0010335588400647727,-0.001834566890725571,0.12000250816345215,2019-07-26 12:19:00:201,41.25124938152617,41.49980826617331,0,-22.340904235839844,24.739927291870117,-29.537973403930664
-0.2100387066602707,0.0688442662358284,9.843245506286621,0.003636635413922419,0.003430989183423538,0.002693912538365572,0.12999629974365234,2019-07-26 12:19:00:211,43.99985084608823,44.259756929108775,0,-22.340904235839844,24.739927291870117,-29.537973403930664
-0.23398619890213013,0.059265267103910446,9.78098201751709,-0.004088417806313744,0.003430989183423538,-0.0023673291459040203,0.13999485969543457,2019-07-26 12:19:00:221,46.69051959584066,46.96991381427071,0,-22.340904235839844,24.739927291870117,-29.537973403930664
-0.2603284418582916,0.05447576567530632,9.747454643249512,0.00044006165528668966,-3.1965737342537616e-05,-0.0029000914010824694,0.14999890327453613,2019-07-26 12:19:00:231,49.326130092869214,49.62386421276091,0,-22.340904235839844,24.739927291870117,-29.537973403930664
-0.2483547031879425,0.042502015829086304,9.800139427185059,0.00044006165528668966,0.003430989183423538,-0.0034328539163352434,0.15999531745910645,2019-07-26 12:19:00:241,51.90864815766059,52.22617025734304,0,-22.340904235839844,24.739927291870117,-29.537973403930664
-0.21722295880317688,0.08560751378536224,9.855218887329102,-0.002223749913189172,0.0005007965523770329,-0.0031664725286716937,0.17000055313110352,2019-07-26 12:19:00:251,54.44494033990985,54.77294237505182,0,-22.340904235839844,24.739927291870117,-29.537973403930664
-0.23398619890213013,0.04729151725769043,9.80492877960205,-0.0014246064003843356,0.003963751438601987,-0.0023673291459040203,0.1799933910369873,2019-07-26 12:19:00:261,56.92647638478278,57.27275588701537,0,-22.340904235839844,24.739927291870117,-29.537973403930664
-0.2363809496164322,0.0880022644996643,9.816903114318848,0.00150558626317146,0.00502927620903321,-0.003965616171513693,0.18999600410461426,2019-07-26 12:19:00:271,59.357535047156446,59.71618303772886,0,-22.340904235839844,24.739927291870117,-29.537973403930664
-0.19806495308876038,0.06166001409292221,9.785771369934082,-0.0016909875279735602,0.000767177712475548,3.010106944941304e-05,0.1999964714050293,2019-07-26 12:19:00:281,61.746763281530114,62.11558860533537,0,-22.340904235839844,24.739927291870117,-29.537973403930664
-0.17411746084690094,0.09039700776338577,9.840849876403809,0.0025711109035655207,0.005295657336622434,0.0021611501531499603,0.20999598503112793,2019-07-26 12:19:00:291,64.0885817021986,64.46130726462493,0,-22.340904235839844,24.739927291870117,-29.537973403930664
-0.20764395594596863,0.023344019427895546,9.800139427185059,-0.001158225272795111,0.003430989183423538,-0.0031664725286716937,0.2200007438659668,2019-07-26 12:19:00:301,66.38060679182507,66.77000219475121,0,-22.340904235839844,24.739927291870117,-29.537973403930664
-0.222012460231781,0.08081801235675812,9.761823654174805,0.0033702542863331946,0.004230132566191211,-0.0010354235079578973,0.22999858856201172,2019-07-26 12:19:00:311,68.6245629695296,69.02322336185287,0,-22.340904235839844,24.739927291870117,-29.537973403930664
-0.24595995247364044,0.023344019427895546,9.7642183303833,0.00150558626317146,0.006627562974568559,-0.001834566890725571,0.23999404907226562,2019-07-26 12:19:00:321,70.8194926041924,71.23917427609346,0,-22.340904235839844,24.739927291870117,-29.537973403930664
-0.222012460231781,0.08081801235675812,9.855218887329102,-9.270064052837282e-05,0.006893944102157782,0.003493055921133246,0.24999618530273438,2019-07-26 12:19:00:331,72.97342085130617,73.40504594911111,0,-22.340904235839844,24.739927291870117,-29.537973403930664
-0.1836964637041092,0.0880022644996643,9.828876495361328,-0.005953085699438316,-0.0021630148860616663,0.001095625642793062,0.2599940299987793,2019-07-26 12:19:00:341,75.09375264377597,75.53002734587373,0,-22.340904235839844,24.739927291870117,-29.537973403930664
-0.2483547031879425,0.06166001409292221,9.778586387634277,-0.0006254629525980806,0.002631845800655864,0.0008292445152038374,0.26999950408935547,2019-07-26 12:19:00:351,77.16130151021979,77.61255257949708,0,-22.340904235839844,24.739927291870117,-29.537973403930664
-0.24356520175933838,0.05447576567530632,9.776191711425781,-9.270064052837282e-05,0.0005007965523770329,0.005091342946742919,0.27999377250671387,2019-07-26 12:19:00:361,79.18925087226111,79.65396824259034,0,-22.340904235839844,24.739927291870117,-29.537973403930664
-0.24356520175933838,0.05208101496100426,9.75224494934082,-0.0019573686555627847,0.0020990834154402524,0.001095625642793062,0.2906978130340576,2019-07-26 12:19:00:371,81.17559060947747,81.65594571159089,0,-22.340904235839844,24.739927291870117,-29.537973403930664
-0.2603284418582916,0.04010726884007454,9.812113761901855,0.0028374920311547455,0.00556203846421166,-0.0021009480183147955,0.300647497177124,2019-07-26 12:19:00:381,83.11857589860246,83.61655763247434,0,-22.340904235839844,24.739927291870117,-29.537973403930664
-0.19806495308876038,0.04010726884007454,9.812113761901855,-0.004354798933902968,0.00023441540853316294,0.003493055921133246,0.31009459495544434,2019-07-26 12:19:00:391,85.03295200045682,85.54185256355915,0,-22.340904235839844,24.739927291870117,-29.537973403930664
-0.2363809496164322,0.05687051638960838,9.778586387634277,-0.0008918440801873052,0.005828419591800884,-0.0036992350439244686,0.32012033462524414,2019-07-26 12:19:00:401,86.9013166904877,87.42485320469645,0,-22.340904235839844,24.739927291870117,-29.537973403930664
-0.2483547031879425,0.08081801235675812,9.812113761901855,0.0025711109035655207,0.0031646080558343135,0.0021611501531499603,0.32999324798583984,2019-07-26 12:19:00:411,88.73253790377318,89.26549262942547,0,-22.340904235839844,24.739927291870117,-29.537973403930664
-0.229196697473526,0.0688442662358284,9.83366584777832,0.0007064428153852049,0.005295657336622434,0.004292199303900919,0.3400149345397949,2019-07-26 12:19:00:421,90.52820377108665,91.07176296907942,0,-21.441268920898438,24.440048217773438,-30.737483978271484
-0.21482820808887482,0.07842326164245605,9.871981620788574,0.0009728239429744294,-0.003761301781634176,0.0008292445152038374,0.35003232955932617,2019-07-26 12:19:00:431,92.29482253515299,92.84067753041242,0,-21.441268920898438,24.440048217773438,-30.737483978271484
-0.2507494390010834,0.04489676654338837,9.778586387634277,-9.270064052837282e-05,-3.1965737342537616e-05,-0.0029000914010824694,0.3600349426269531,2019-07-26 12:19:00:441,94.01956609657293,94.57865479923022,0,-21.441268920898438,24.440048217773438,-30.737483978271484
-0.24117045104503632,0.020949270576238632,9.761823654174805,0.0009728239429744294,0.006893944102157782,0.0018947690255607357,0.37003469467163086,2019-07-26 12:19:00:451,95.70699930376165,96.28407629978375,0,-21.441268920898438,24.440048217773438,-30.737483978271484
-0.21961770951747894,0.030528269708156586,9.879166603088379,0.002038348518349909,0.003963751438601987,0.001628387897971511,0.38004446029663086,2019-07-26 12:19:00:461,97.36516154977066,97.95370806746351,0,-21.441268920898438,24.440048217773438,-30.737483978271484
-0.1645384579896927,0.08081801235675812,9.831271171569824,-0.0003590817924995654,0.0010335588400647727,0.003493055921133246,0.3899955749511719,2019-07-26 12:19:00:471,98.99810429240891,99.58541475192035,0,-21.441268920898438,24.440048217773438,-30.737483978271484
-0.222012460231781,0.05447576567530632,9.845640182495117,-0.0008918440801873052,0.005828419591800884,0.004558580691564469,0.4000887870788574,2019-07-26 12:19:00:481,100.58900381631481,101.18787162642603,0,-21.441268920898438,24.440048217773438,-30.737483978271484
-0.18609121441841125,-0.0006034769467078149,9.814508438110352,0.0007064428153852049,-0.004560445424476175,-0.0007690423803686727,0.41001033782958984,2019-07-26 12:19:00:491,102.15803942938268,95.5637910993823,0,-21.441268920898438,24.440048217773438,-30.737483978271484
-0.18848596513271332,0.10476551204919815,9.819297790527344,0.00150558626317146,0.0028982269282450887,0.0037594370487224705,0.4200167655944824,2019-07-26 12:19:00:501,103.69125656529017,97.2394436402483,0,-21.441268920898438,24.440048217773438,-30.737483978271484
-0.18130171298980713,0.10237076133489609,9.785771369934082,-0.002756512168367621,0.00556203846421166,0.0002964822275160976,0.4299912452697754,2019-07-26 12:19:00:511,105.19308829253418,98.88421139796762,0,-21.441268920898438,24.440048217773438,-30.737483978271484
-0.21243345737457275,0.07363376021385193,9.85042953491211,-0.0008918440801873052,-0.0010974903757047679,0.0013620067703822866,0.44000768661499023,2019-07-26 12:19:00:521,106.66513489911979,100.49846299375346,0,-21.441268920898438,24.440048217773438,-30.737483978271484
-0.2100387066602707,0.08081801235675812,9.864797592163086,0.0009728239429744294,0.004762895081443986,0.001095625642793062,0.45001912117004395,2019-07-26 12:19:00:531,108.10475993300047,102.07855909006672,0,-21.441268920898438,24.440048217773438,-30.737483978271484
-0.21961770951747894,0.02573877014219761,9.852824211120605,0.00044006165528668966,0.003430989183423538,0.002693912538365572,0.46002793312072754,2019-07-26 12:19:00:541,109.51519851392018,103.63374710040287,0,-21.441268920898438,24.440048217773438,-30.737483978271484
-0.2363809496164322,0.059265267103910446,9.72350788116455,-0.0019573686555627847,0.0012999400326725785,-0.0029000914010824694,0.47018909454345703,2019-07-26 12:19:00:551,110.8963008521053,105.15520460445889,0,-21.441268920898438,24.440048217773438,-30.737483978271484
-0.22680194675922394,0.08321276307106018,9.836060523986816,-0.003555655551135295,-0.0010974903757047679,-0.0026337102734932446,0.479996919631958,2019-07-26 12:19:00:561,112.25256115112953,106.64436446185451,0,-21.441268920898438,24.440048217773438,-30.737483978271484
-0.27230221033096313,0.09758125990629196,9.790560722351074,0.0023047297759762964,0.0063611818469793335,0.0056241052019213676,0.4899866580963135,2019-07-26 12:19:00:571,113.57207897292069,108.09876358274511,0,-21.441268920898438,24.440048217773438,-30.737483978271484
-0.20045970380306244,0.04729151725769043,9.816903114318848,-0.002756512168367621,0.002365464673066639,-0.0015681857631363464,0.5002820491790771,2019-07-26 12:19:00:581,114.87587377955872,109.53286156824063,0,-21.441268920898438,24.440048217773438,-30.737483978271484
-0.20764395594596863,0.030528269708156586,9.769007682800293,0.00017368051144281974,0.002631845800655864,-0.0005026612202701574,0.5100357532501221,2019-07-26 12:19:00:591,116.15256172066744,110.93852822869583,0,-21.441268920898438,24.440048217773438,-30.737483978271484
-0.21722295880317688,0.05208101496100426,9.797744750976562,0.0025711109035655207,0.004496513953854761,0.004025818176311695,0.5200614929199219,2019-07-26 12:19:00:601,117.40157760011094,112.3122190869527,0,-21.441268920898438,24.440048217773438,-30.737483978271484
-0.18130171298980713,0.06166001409292221,9.83366584777832,-0.0038220366787245193,0.005828419591800884,-0.0036992350439244686,0.5302238464355469,2019-07-26 12:19:00:611,118.62909559802324,113.6609704778535,0,-21.441268920898438,24.440048217773438,-30.737483978271484
-0.26511794328689575,0.01855451986193657,9.855218887329102,-0.0019573686555627847,0.008758612515431006,-0.0063630465798910395,0.5401942729949951,2019-07-26 12:19:00:621,119.82079112483831,114.98668945356042,0,-21.441268920898438,24.440048217773438,-30.737483978271484
-0.18848596513271332,0.020949270576238632,9.898324012756348,-0.0030228932959568454,0.0031646080558343135,0.0037594370487224705,0.5500826835632324,2019-07-26 12:19:00:631,121.00080007929463,116.28620880921005,0,-21.441268920898438,24.440048217773438,-30.737483978271484
-0.21482820808887482,0.06644951552152634,9.826481819152832,-0.004354798933902968,0.007426706357336231,0.004824961819153694,0.5600333213806152,2019-07-26 12:19:00:641,122.15158636625975,117.55516888166194,0,-21.441268920898438,24.440048217773438,-30.737483978271484
-0.2028544545173645,0.06166001409292221,9.824087142944336,0.0017719673907606846,0.005295657336622434,0.006423248584689041,0.5700416564941406,2019-07-26 12:19:00:651,123.2819203711025,118.79587757402624,0,-21.441268920898438,24.440048217773438,-30.737483978271484
-0.2028544545173645,0.06644951552152634,9.871981620788574,-0.001158225272795111,0.0012999400326725785,0.007755154222635165,0.5800220966339111,2019-07-26 12:19:00:661,124.39200993896236,120.01289591091822,0,-21.441268920898438,24.440048217773438,-30.737483978271484
-0.281881183385849,0.059265267103910446,9.812113761901855,-0.0008918440801873052,0.004230132566191211,0.0056241052019213676,0.5900256633758545,2019-07-26 12:19:00:671,125.46888301044997,121.20621768287275,0,-21.89108657836914,24.88986587524414,-29.38803482055664
-0.24356520175933838,0.04010726884007454,9.816903114318848,-0.0003590817924995654,0.003963751438601987,0.001628387897971511,0.6000468730926514,2019-07-26 12:19:00:681,126.52884973993174,122.3776137323736,0,-21.89108657836914,24.88986587524414,-29.38803482055664
-0.2603284418582916,0.07602851092815399,9.735481262207031,-0.0038220366787245193,0.0028982269282450887,0.00802153535022439,0.6100282669067383,2019-07-26 12:19:00:691,127.56601374299129,123.52325477314358,0,-21.89108657836914,24.88986587524414,-29.38803482055664
-0.229196697473526,0.06405476480722427,9.831271171569824,-0.0003590817924995654,0.004762895081443986,0.0037594370487224705,0.6200287342071533,2019-07-26 12:19:00:701,128.58530906033843,124.64552530652024,0,-21.89108657836914,24.88986587524414,-29.38803482055664
-0.222012460231781,0.07602851092815399,9.826481819152832,0.0007064428153852049,0.007693087484925456,0.004558580691564469,0.6300244331359863,2019-07-26 12:19:00:711,129.583399490402,125.74335241323223,0,-21.89108657836914,24.88986587524414,-29.38803482055664
-0.20524920523166656,0.04729151725769043,9.802534103393555,-0.0032892744235460706,0.0031646080558343135,-0.0013018046355471218,0.6400220394134521,2019-07-26 12:19:00:721,130.56596488973867,126.82480351361988,0,-21.89108657836914,24.88986587524414,-29.38803482055664
-0.2028544545173645,0.020949270576238632,9.86240291595459,-0.0019573686555627847,0.0020990834154402524,0.0005628633876146128,0.6500418186187744,2019-07-26 12:19:00:731,131.52989823050999,127.88697457858692,0,-21.89108657836914,24.88986587524414,-29.38803482055664
-0.21482820808887482,0.030528269708156586,9.802534103393555,-0.0003590817924995654,0.0012999400326725785,-0.0010354235079578973,0.6600563526153564,2019-07-26 12:19:00:741,132.4734599065596,128.92586826281524,0,-21.89108657836914,24.88986587524414,-29.38803482055664
-0.2028544545173645,0.07363376021385193,9.807323455810547,-9.270064052837282e-05,0.000767177712475548,0.001628387897971511,0.6700439453125,2019-07-26 12:19:00:751,133.39986176100422,129.938799467768,0,-21.89108657836914,24.88986587524414,-29.38803482055664
-0.20764395594596863,0.07363376021385193,9.831271171569824,-0.0006254629525980806,0.005828419591800884,0.0008292445152038374,0.6800246238708496,2019-07-26 12:19:00:761,134.30439918472433,130.93179153598868,0,-21.89108657836914,24.88986587524414,-29.38803482055664
-0.24117045104503632,0.06405476480722427,9.812113761901855,0.00044006165528668966,0.005295657336622434,-0.0007690423803686727,0.6900207996368408,2019-07-26 12:19:00:771,135.18717921854017,131.90542812482744,0,-21.89108657836914,24.88986587524414,-29.38803482055664
-0.16932795941829681,0.08321276307106018,9.814508438110352,-0.004354798933902968,0.00556203846421166,-0.0023673291459040203,0.70003342628479,2019-07-26 12:19:00:781,136.06054029818762,132.86005239803268,0,-21.89108657836914,24.88986587524414,-29.38803482055664
-0.17411746084690094,0.06644951552152634,9.852824211120605,-0.001158225272795111,0.004762895081443986,-0.0015681857631363464,0.7100417613983154,2019-07-26 12:19:00:791,136.916404583068,133.79577405584598,0,-21.89108657836914,24.88986587524414,-29.38803482055664
-0.19327545166015625,0.011370271444320679,9.757034301757812,0.004968541051868542,0.0018327022878510278,0.0005628633876146128,0.7200117111206055,2019-07-26 12:19:00:801,137.75435424298433,134.71574174746607,0,-21.89108657836914,24.88986587524414,-29.38803482055664
-0.21482820808887482,0.05208101496100426,9.85042953491211,-0.0032892744235460706,0.003963751438601987,0.001095625642793062,0.7300171852111816,2019-07-26 12:19:00:811,138.57205296459705,135.6172162386807,0,-21.89108657836914,24.88986587524414,-29.38803482055664
-0.24595995247364044,0.04968626797199249,9.852824211120605,0.0023047297759762964,0.005828419591800884,-0.00023628007642628753,0.7400314807891846,2019-07-26 12:19:00:821,139.36873457244673,136.4977973352488,0,-21.89108657836914,24.88986587524414,-29.38803482055664
-0.2363809496164322,0.059265267103910446,9.831271171569824,0.0023047297759762964,0.0018327022878510278,0.005357724074332143,0.7500147819519043,2019-07-26 12:19:00:831,140.15278570139054,137.35964167580843,0,-21.89108657836914,24.88986587524414,-29.38803482055664
-0.24356520175933838,-0.0006034769467078149,9.89113998413086,-0.001158225272795111,0.006094800719390108,-0.0007690423803686727,0.7600202560424805,2019-07-26 12:19:00:841,140.91809389902178,131.01316945466283,0,-21.89108657836914,24.88986587524414,-29.38803482055664
-0.21722295880317688,0.016159771010279655,9.852824211120605,-0.0003590817924995654,0.0028982269282450887,0.0008292445152038374,0.7700040340423584,2019-07-26 12:19:00:851,141.67284766392052,131.99122793004548,0,-21.89108657836914,24.88986587524414,-29.38803482055664
-0.19806495308876038,0.059265267103910446,9.759428977966309,-0.0006254629525980806,0.001566321160261803,0.0021611501531499603,0.7800250053405762,2019-07-26 12:19:00:861,142.41525652631333,132.9447966844358,0,-21.89108657836914,24.88986587524414,-29.38803482055664
-0.23159144818782806,0.08321276307106018,9.840849876403809,-0.0016909875279735602,0.005828419591800884,0.0002964822275160976,0.7900214195251465,2019-07-26 12:19:00:871,143.13671728147375,133.87716043659054,0,-21.89108657836914,24.88986587524414,-29.38803482055664
-0.24117045104503632,0.04729151725769043,9.852824211120605,-0.0016909875279735602,0.007426706357336231,-0.0031664725286716937,0.8004357814788818,2019-07-26 12:19:00:881,143.84159674753823,134.7951059427325,0,-21.89108657836914,24.88986587524414,-29.38803482055664
-0.24117045104503632,0.09997601062059402,9.824087142944336,-0.0006254629525980806,-3.1965737342537616e-05,0.008287916477813613,0.8100442886352539,2019-07-26 12:19:00:891,144.53665674991592,135.68788012537027,0,-21.89108657836914,24.88986587524414,-29.38803482055664
-0.2507494390010834,0.030528269708156586,9.838455200195312,0.00017368051144281974,0.007959468612514682,0.003493055921133246,0.820042610168457,2019-07-26 12:19:00:901,145.21225588555953,136.57046930639828,0,-21.89108657836914,24.88986587524414,-29.38803482055664
-0.23398619890213013,0.04968626797199249,9.843245506286621,-0.0006254629525980806,0.005828419591800884,0.0005628633876146128,0.8300395011901855,2019-07-26 12:19:00:911,145.87750442466736,137.43362675842206,0,-21.89108657836914,24.88986587524414,-29.38803482055664
-0.274696946144104,0.08560751378536224,9.819297790527344,0.0017719673907606846,0.0018327022878510278,0.0013620067703822866,0.8400681018829346,2019-07-26 12:19:00:921,146.5268734594292,138.27396624573123,0,-21.441268920898438,24.739927291870117,-29.238094329833984
-0.27709171175956726,0.00897552166134119,9.740270614624023,-0.0019573686555627847,0.007693087484925456,-0.0005026612202701574,0.8500385284423828,2019-07-26 12:19:00:931,147.15943883183476,139.10852678563876,0,-21.441268920898438,24.739927291870117,-29.238094329833984
-0.2483547031879425,0.07123901695013046,9.83366584777832,0.00017368051144281974,0.004762895081443986,0.001628387897971511,0.8600242137908936,2019-07-26 12:19:00:941,147.78464493929872,139.9179575415292,0,-21.441268920898438,24.739927291870117,-29.238094329833984
-0.21243345737457275,0.09279175847768784,9.800139427185059,-0.0008918440801873052,-0.0008311091830969619,0.004558580691564469,0.8700840473175049,2019-07-26 12:19:00:951,148.40458586356027,140.70925247942432,0,-21.441268920898438,24.739927291870117,-29.238094329833984
-0.21482820808887482,0.09039700776338577,9.828876495361328,0.00310387315874397,0.0020990834154402524,0.0002964822275160976,0.8800201416015625,2019-07-26 12:19:00:961,149.01028093627858,141.4827969615149,0,-21.441268920898438,24.739927291870117,-29.238094329833984
-0.22680194675922394,0.013765021227300167,9.848034858703613,-0.0038220366787245193,0.003430989183423538,0.001628387897971511,0.8900425434112549,2019-07-26 12:19:00:971,149.60175853606157,142.25369020387373,0,-21.441268920898438,24.739927291870117,-29.238094329833984
-0.27948644757270813,0.07363376021385193,9.852824211120605,-0.0003590817924995654,0.002365464673066639,0.009619822635908387,0.9000012874603271,2019-07-26 12:19:00:981,150.1759041684837,143.00025350487792,0,-21.441268920898438,24.739927291870117,-29.238094329833984
-0.2363809496164322,0.028133518993854523,9.855218887329102,-0.0032892744235460706,0.005295657336622434,0.004824961819153694,0.910020112991333,2019-07-26 12:19:00:991,150.74192705659175,143.73882761874862,0,-21.441268920898438,24.739927291870117,-29.238094329833984
-0.30582869052886963,0.02573877014219761,9.809718132019043,-0.0003590817924995654,0.0031646080558343135,0.0056241052019213676,0.9200239181518555,2019-07-26 12:19:01:001,151.28959731211322,144.46124611690263,0,-21.441268920898438,24.739927291870117,-29.238094329833984
-0.28427594900131226,0.08081801235675812,9.79295539855957,-0.0008918440801873052,0.009557755378050028,0.005357724074332143,0.9300041198730469,2019-07-26 12:19:01:011,151.82519431862022,145.1630643258077,0,-21.441268920898438,24.739927291870117,-29.238094329833984
-0.2483547031879425,0.06166001409292221,9.776191711425781,0.00310387315874397,0.003963751438601987,0.00802153535022439,0.9400210380554199,2019-07-26 12:19:01:021,152.35735640757184,145.85082989203246,0,-21.441268920898438,24.739927291870117,-29.238094329833984
-0.2363809496164322,-0.007787725888192654,9.816903114318848,-0.0006254629525980806,0.006094800719390108,0.0013620067703822866,0.9500024318695068,2019-07-26 12:19:01:031,152.87920628429004,139.33507288926683,0,-21.441268920898438,24.739927291870117,-29.238094329833984
-0.222012460231781,0.06405476480722427,9.855218887329102,-0.0016909875279735602,0.0018327022878510278,0.005890486329510593,0.959968090057373,2019-07-26 12:19:01:041,153.3947864990934,140.1418697949724,0,-21.441268920898438,24.739927291870117,-29.238094329833984
-0.22440721094608307,0.01855451986193657,9.776191711425781,-0.0003590817924995654,0.000767177712475548,0.005091342946742919,0.9700312614440918,2019-07-26 12:19:01:051,153.90015802240546,140.9370604326317,0,-21.441268920898438,24.739927291870117,-29.238094329833984
-0.22440721094608307,0.02573877014219761,9.800139427185059,-9.270064052837282e-05,0.007959468612514682,0.0024275314107763475,0.9799971580505371,2019-07-26 12:19:01:061,154.3914658591567,141.7153615089188,0,-21.441268920898438,24.739927291870117,-29.238094329833984
-0.2028544545173645,0.06405476480722427,9.886350631713867,0.0076323523277607875,-0.001630252630883217,0.004558580691564469,0.9899964332580566,2019-07-26 12:19:01:071,154.88104253141967,142.46934462329583,0,-21.441268920898438,24.739927291870117,-29.238094329833984
-0.1956702023744583,0.04010726884007454,9.761823654174805,0.0039030165415116433,0.005828419591800884,0.0024275314107763475,1.0000274181365967,2019-07-26 12:19:01:081,155.35717274012006,143.21305133835628,0,-21.441268920898438,24.739927291870117,-29.238094329833984
-0.23877570033073425,0.037712518125772476,9.771402359008789,-0.004621180061492193,0.00556203846421166,0.002693912538365572,1.0099937915802002,2019-07-26 12:19:01:091,155.81892048749702,143.94695375781353,0,-21.441268920898438,24.739927291870117,-29.238094329833984
-0.16214370727539062,0.09758125990629196,9.82169246673584,-0.002756512168367621,0.004496513953854761,0.004292199303900919,1.0200252532958984,2019-07-26 12:19:01:101,156.28109345064075,144.6581827129619,0,-21.441268920898438,24.739927291870117,-29.238094329833984
-0.18130171298980713,0.023344019427895546,9.802534103393555,-0.0008918440801873052,0.004496513953854761,0.003226674793544021,1.0300030708312988,2019-07-26 12:19:01:111,156.7317606536676,145.3627898079375,0,-21.441268920898438,24.739927291870117,-29.238094329833984
-0.21243345737457275,0.03531776741147041,9.831271171569824,-0.0006254629525980806,0.002631845800655864,0.007222391967456715,1.0400235652923584,2019-07-26 12:19:01:121,157.17088761839315,146.05176936929968,0,-21.441268920898438,24.739927291870117,-29.238094329833984
-0.2100387066602707,0.07363376021385193,9.840849876403809,-0.0038220366787245193,0.003963751438601987,0.003493055921133246,1.0499794483184814,2019-07-26 12:19:01:131,157.600799845933,146.7242964755703,0,-21.441268920898438,24.739927291870117,-29.238094329833984
-0.23398619890213013,0.02573877014219761,9.824087142944336,-0.001158225272795111,0.0020990834154402524,0.0018947690255607357,1.0600075721740723,2019-07-26 12:19:01:141,158.02031409930035,147.38746046445416,0,-21.441268920898438,24.739927291870117,-29.238094329833984
-0.20524920523166656,0.04010726884007454,9.797744750976562,0.00150558626317146,0.00502927620903321,0.003226674793544021,1.0699973106384277,2019-07-26 12:19:01:151,158.4330849468055,148.0341759352803,0,-21.441268920898438,24.739927291870117,-29.238094329833984
-0.2483547031879425,0.06166001409292221,9.857613563537598,0.0025711109035655207,0.00556203846421166,0.0029602936659547966,1.0800249576568604,2019-07-26 12:19:01:161,158.83242721424722,148.66487706688827,0,-21.441268920898438,24.739927291870117,-29.238094329833984
-0.27948644757270813,0.04489676654338837,9.824087142944336,0.002038348518349909,0.005828419591800884,0.0005628633876146128,1.0899913311004639,2019-07-26 12:19:01:171,159.2199255474524,149.28520196621608,0,-22.190963745117188,23.990232467651367,-31.487178802490234
-0.18130171298980713,0.016159771010279655,9.778586387634277,0.00044006165528668966,0.0018327022878510278,0.004824961819153694,1.099999189376831,2019-07-26 12:19:01:181,159.61325353929723,149.8973569379169,0,-22.190963745117188,23.990232467651367,-31.487178802490234
-0.21243345737457275,0.05208101496100426,9.843245506286621,-0.004354798933902968,0.001566321160261803,0.001628387897971511,1.109992265701294,2019-07-26 12:19:01:191,159.9953826821231,150.495790290123,0,-22.190963745117188,23.990232467651367,-31.487178802490234
-0.26511794328689575,0.04729151725769043,9.855218887329102,-0.0016909875279735602,0.004496513953854761,3.010106944941304e-05,1.1200249195098877,2019-07-26 12:19:01:201,160.36212284134209,151.081328292923,0,-22.190963745117188,23.990232467651367,-31.487178802490234
-0.222012460231781,0.06644951552152634,9.874377250671387,-0.001158225272795111,0.000767177712475548,0.003493055921133246,1.1299974918365479,2019-07-26 12:19:01:211,160.7286907233137,151.6526389750043,0,-22.190963745117188,23.990232467651367,-31.487178802490234
-0.24356520175933838,-0.05328797176480293,9.814508438110352,-9.270064052837282e-05,0.005828419591800884,-0.0015681857631363464,1.1400315761566162,2019-07-26 12:19:01:221,161.0824009230953,145.02586012322666,0,-22.190963745117188,23.990232467651367,-31.487178802490234
-0.2028544545173645,0.15505525469779968,9.797744750976562,0.004702159924279317,0.0005007965523770329,0.0029602936659547966,1.149994134902954,2019-07-26 12:19:01:231,161.43675088594983,145.70457925412964,0,-22.190963745117188,23.990232467651367,-31.487178802490234
-0.2962496876716614,0.08560751378536224,9.812113761901855,-0.0016909875279735602,0.003697370311012762,0.0024275314107763475,1.1600069999694824,2019-07-26 12:19:01:241,161.77134987815734,146.38144088914112,0,-22.190963745117188,23.990232467651367,-31.487178802490234
-0.2603284418582916,0.0688442662358284,9.831271171569824,-0.0019573686555627847,0.0063611818469793335,-0.0034328539163352434,1.1699976921081543,2019-07-26 12:19:01:251,162.10201807618017,147.0468858733775,0,-22.190963745117188,23.990232467651367,-31.487178802490234
-0.3154076933860779,0.03292302042245865,9.816903114318848,0.002038348518349909,0.006893944102157782,-0.0007690423803686727,1.1800310611724854,2019-07-26 12:19:01:261,162.41928934786907,147.70095675563755,0,-22.190963745117188,23.990232467651367,-31.487178802490234
-0.1956702023744583,0.08321276307106018,9.883955955505371,-0.0003590817924995654,-0.001630252630883217,-0.00023628007642628753,1.1900079250335693,2019-07-26 12:19:01:271,162.74913438640775,148.33749157294164,0,-22.190963745117188,23.990232467651367,-31.487178802490234
-0.13580146431922913,0.04489676654338837,9.836060523986816,-9.270064052837282e-05,-0.0021630148860616663,-0.0007690423803686727,1.1999831199645996,2019-07-26 12:19:01:281,163.07954314976757,148.96556316031126,0,-22.190963745117188,23.990232467651367,-31.487178802490234
-0.17172271013259888,0.006580772344022989,9.778586387634277,-0.004088417806313744,0.006627562974568559,-0.00023628007642628753,1.2099900245666504,2019-07-26 12:19:01:291,163.39410688244436,149.5877779474596,0,-22.190963745117188,23.990232467651367,-31.487178802490234
-0.17890696227550507,-0.0006034769467078149,9.800139427185059,-0.002756512168367621,0.0063611818469793335,-0.0010354235079578973,1.2200117111206055,2019-07-26 12:19:01:301,163.701728204776,142.997644086592,0,-22.190963745117188,23.990232467651367,-31.487178802490234
-0.18609121441841125,0.020949270576238632,9.788166046142578,0.0041693976691008685,0.001566321160261803,0.0037594370487224705,1.2299695014953613,2019-07-26 12:19:01:311,164.0050345065636,143.7329074160381,0,-22.190963745117188,23.990232467651367,-31.487178802490234
-0.1645384579896927,0.04010726884007454,9.924666404724121,-0.0030228932959568454,0.004762895081443986,-0.001834566890725571,1.239978551864624,2019-07-26 12:19:01:321,164.30326094124285,144.45531733931384,0,-22.190963745117188,23.990232467651367,-31.487178802490234
-0.21961770951747894,0.042502015829086304,9.910298347473145,-0.001158225272795111,0.002365464673066639,0.0002964822275160976,1.2499735355377197,2019-07-26 12:19:01:331,164.59047821398184,145.16194658260343,0,-22.190963745117188,23.990232467651367,-31.487178802490234
-0.2507494390010834,0.09279175847768784,9.816903114318848,-0.0006254629525980806,0.0063611818469793335,0.001628387897971511,1.2599873542785645,2019-07-26 12:19:01:341,164.86582859390802,145.84822818225012,0,-22.190963745117188,23.990232467651367,-31.487178802490234
-0.21243345737457275,0.121528759598732,9.797744750976562,0.00044006165528668966,0.004496513953854761,0.0018947690255607357,1.2700164318084717,2019-07-26 12:19:01:351,165.1411381900487,146.51680288643496,0,-22.190963745117188,23.990232467651367,-31.487178802490234
-0.22440721094608307,0.06405476480722427,9.826481819152832,0.0017719673907606846,0.00556203846421166,-0.0021009480183147955,1.2800161838531494,2019-07-26 12:19:01:361,165.40902771823173,147.17800225280718,0,-22.190963745117188,23.990232467651367,-31.487178802490234
-0.1836964637041092,0.08081801235675812,9.828876495361328,0.00044006165528668966,0.003430989183423538,0.001095625642793062,1.2900159358978271,2019-07-26 12:19:01:371,165.67750665722676,147.82477303246623,0,-22.190963745117188,23.990232467651367,-31.487178802490234
-0.19806495308876038,0.13110776245594025,9.814508438110352,0.0007064428153852049,0.002365464673066639,0.001628387897971511,1.3000340461730957,2019-07-26 12:19:01:381,165.93950352127175,148.45257330775235,0,-22.190963745117188,23.990232467651367,-31.487178802490234
-0.24356520175933838,0.06405476480722427,9.807323455810547,0.00017368051144281974,0.0031646080558343135,0.005890486329510593,1.3099839687347412,2019-07-26 12:19:01:391,166.19049242336996,149.07594057394905,0,-22.190963745117188,23.990232467651367,-31.487178802490234
-0.1836964637041092,0.05208101496100426,9.807323455810547,-0.0006254629525980806,0.0010335588400647727,0.006423248584689041,1.3199634552001953,2019-07-26 12:19:01:401,166.44464231529528,149.68868700179775,0,-22.190963745117188,23.990232467651367,-31.487178802490234
-0.21722295880317688,0.02573877014219761,9.879166603088379,0.0009728239429744294,0.00023441540853316294,0.003226674793544021,1.329984188079834,2019-07-26 12:19:01:411,166.6904252577107,150.2913803758246,0,-22.190963745117188,23.990232467651367,-31.487178802490234
-0.23159144818782806,0.05447576567530632,9.807323455810547,0.0033702542863331946,0.0020990834154402524,0.00748877309504594,1.339982271194458,2019-07-26 12:19:01:421,166.92838357002702,150.87729569979035,0,-20.841514587402344,26.539194107055664,-30.737483978271484
-0.21243345737457275,0.04968626797199249,9.819297790527344,0.0009728239429744294,0.0018327022878510278,0.006156867457099816,1.3499746322631836,2019-07-26 12:19:01:431,167.16400043052556,151.4534056078546,0,-20.841514587402344,26.539194107055664,-30.737483978271484
-0.21961770951747894,0.07123901695013046,9.864797592163086,-0.006219466827027541,0.0010335588400647727,0.006156867457099816,1.359975814819336,2019-07-26 12:19:01:441,167.39463297085254,152.01955500097264,0,-20.841514587402344,26.539194107055664,-30.737483978271484
-0.267512708902359,0.1143445074558258,9.816903114318848,-0.0006254629525980806,0.002365464673066639,0.00748877309504594,1.3700015544891357,2019-07-26 12:19:01:451,167.61418996850634,152.56616930478867,0,-20.841514587402344,26.539194107055664,-30.737483978271484
-0.29864445328712463,0.11673925817012787,9.836060523986816,0.0009728239429744294,0.002365464673066639,3.010106944941304e-05,1.3799760341644287,2019-07-26 12:19:01:461,167.8257995187194,153.10070141578856,0,-20.841514587402344,26.539194107055664,-30.737483978271484
-0.25793370604515076,0.08321276307106018,9.843245506286621,-0.0019573686555627847,0.0028982269282450887,-0.0005026612202701574,1.3900187015533447,2019-07-26 12:19:01:471,168.03762838090825,153.63010403391655,0,-20.841514587402344,26.539194107055664,-30.737483978271484
-0.2866706848144531,0.05208101496100426,9.828876495361328,0.0033702542863331946,0.002365464673066639,0.002693912538365572,1.3999719619750977,2019-07-26 12:19:01:481,168.2421413190586,154.149546511798,0,-20.841514587402344,26.539194107055664,-30.737483978271484
-0.2890654504299164,0.006580772344022989,9.812113761901855,-0.0003590817924995654,0.00502927620903321,0.003493055921133246,1.4099960327148438,2019-07-26 12:19:01:491,168.44071878387433,154.66598915015265,0,-20.841514587402344,26.539194107055664,-30.737483978271484
-0.25314420461654663,0.05687051638960838,9.848034858703613,-9.270064052837282e-05,0.001566321160261803,0.002693912538365572,1.419980525970459,2019-07-26 12:19:01:501,168.64157695509147,155.1661039680726,0,-20.841514587402344,26.539194107055664,-30.737483978271484
-0.27709171175956726,-0.03173522278666496,9.749850273132324,-0.0014246064003843356,0.0018327022878510278,0.0013620067703822866,1.4299952983856201,2019-07-26 12:19:01:511,168.83515656515766,148.46731286355774,0,-20.841514587402344,26.539194107055664,-30.737483978271484
-0.320197194814682,0.0017912727780640125,9.788166046142578,0.0017719673907606846,0.003963751438601987,0.004025818176311695,1.4399735927581787,2019-07-26 12:19:01:521,169.01876001062416,149.09676410157988,0,-20.841514587402344,26.539194107055664,-30.737483978271484
-0.24117045104503632,0.03531776741147041,9.785771369934082,0.0028374920311547455,0.004496513953854761,0.0018947690255607357,1.449998378753662,2019-07-26 12:19:01:531,169.20761837832717,149.7090959236408,0,-20.841514587402344,26.539194107055664,-30.737483978271484
-0.24356520175933838,0.05208101496100426,9.778586387634277,0.0033702542863331946,0.00023441540853316294,0.001628387897971511,1.459972620010376,2019-07-26 12:19:01:541,169.39479814067292,150.30692336689262,0,-20.841514587402344,26.539194107055664,-30.737483978271484
-0.25314420461654663,0.028133518993854523,9.783376693725586,0.0007064428153852049,-0.001630252630883217,-0.0015681857631363464,1.4700069427490234,2019-07-26 12:19:01:551,169.57817683107322,150.89709163396765,0,-20.841514587402344,26.539194107055664,-30.737483978271484
-0.27230221033096313,0.02573877014219761,9.778586387634277,-0.0019573686555627847,0.000767177712475548,0.001628387897971511,1.4799714088439941,2019-07-26 12:19:01:561,169.75428223308626,151.47722873348306,0,-20.841514587402344,26.539194107055664,-30.737483978271484
-0.2603284418582916,0.06166001409292221,9.831271171569824,0.0023047297759762964,0.006627562974568559,-0.0015681857631363464,1.4899961948394775,2019-07-26 12:19:01:571,169.9251296630126,152.0391999605971,0,-20.841514587402344,26.539194107055664,-30.737483978271484
-0.2627232074737549,0.08321276307106018,9.898324012756348,0.0017719673907606846,0.003697370311012762,-0.004764759294207041,1.4999730587005615,2019-07-26 12:19:01:581,170.09414783334012,152.587790103894,0,-20.841514587402344,26.539194107055664,-30.737483978271484
-0.2938549518585205,0.07123901695013046,9.807323455810547,0.00017368051144281974,0.003963751438601987,-0.005563903197123366,1.5099730491638184,2019-07-26 12:19:01:591,170.25571465808935,153.12761315740056,0,-20.841514587402344,26.539194107055664,-30.737483978271484
-0.22440721094608307,0.06644951552152634,9.840849876403809,0.0033702542863331946,0.000767177712475548,-0.00023628007642628753,1.5200350284576416,2019-07-26 12:19:01:601,170.42404040571768,153.6554191905769,0,-20.841514587402344,26.539194107055664,-30.737483978271484
-0.2627232074737549,0.07123901695013046,9.905508995056152,-9.270064052837282e-05,0.002631845800655864,-0.005563903197123366,1.530012845993042,2019-07-26 12:19:01:611,170.5836991727545,154.17412162213535,0,-20.841514587402344,26.539194107055664,-30.737483978271484
-0.22440721094608307,0.042502015829086304,9.879166603088379,0.0009728239429744294,0.003963751438601987,-0.003965616171513693,1.5399763584136963,2019-07-26 12:19:01:621,170.74378244679605,154.68516503145838,0,-20.841514587402344,26.539194107055664,-30.737483978271484
-0.23159144818782806,0.016159771010279655,9.7642183303833,-0.0014246064003843356,0.003963751438601987,-0.0007690423803686727,1.550002098083496,2019-07-26 12:19:01:631,170.89950126075547,155.19036721697967,0,-20.841514587402344,26.539194107055664,-30.737483978271484
-0.1956702023744583,0.030528269708156586,9.824087142944336,-0.0032892744235460706,0.007693087484925456,-0.0034328539163352434,1.5599846839904785,2019-07-26 12:19:01:641,171.05437846611855,155.6848426677275,0,-20.841514587402344,26.539194107055664,-30.737483978271484
-0.23398619890213013,0.09039700776338577,9.826481819152832,-0.0024901310407783963,0.004762895081443986,-0.0029000914010824694,1.5699989795684814,2019-07-26 12:19:01:651,171.20333155949544,156.1620046648765,0,-20.841514587402344,26.539194107055664,-30.737483978271484
-0.19806495308876038,0.01855451986193657,9.831271171569824,-0.0032892744235460706,0.0010335588400647727,0.0013620067703822866,1.5799877643585205,2019-07-26 12:19:01:661,171.35560225907392,156.6384467438579,0,-20.841514587402344,26.539194107055664,-30.737483978271484
-0.21722295880317688,0.08560751378536224,9.848034858703613,-0.0019573686555627847,0.003430989183423538,-0.0031664725286716937,1.5899875164031982,2019-07-26 12:19:01:671,171.50129183893745,157.0968158173371,0,-21.14139175415039,25.039804458618164,-30.13772964477539
-0.2100387066602707,0.07842326164245605,9.814508438110352,-0.0016909875279735602,0.0020990834154402524,-0.0010354235079578973,1.599971055984497,2019-07-26 12:19:01:681,171.64556949853565,157.54667113120067,0,-21.14139175415039,25.039804458618164,-30.13772964477539
-0.1381962150335312,0.07363376021385193,9.778586387634277,-0.002223749913189172,0.0012999400326725785,0.0013620067703822866,1.6099975109100342,2019-07-26 12:19:01:691,171.79573264880986,157.98836094532857,0,-21.14139175415039,25.039804458618164,-30.13772964477539
-0.2028544545173645,0.08081801235675812,9.816903114318848,0.0023047297759762964,0.003963751438601987,0.0029602936659547966,1.6199705600738525,2019-07-26 12:19:01:701,171.9339227598355,158.41786953279546,0,-21.14139175415039,25.039804458618164,-30.13772964477539
-0.21722295880317688,0.09039700776338577,9.85042953491211,-0.0024901310407783963,0.006893944102157782,0.007755154222635165,1.6300125122070312,2019-07-26 12:19:01:711,172.06609133972938,158.84040048560112,0,-21.14139175415039,25.039804458618164,-30.13772964477539
-0.21482820808887482,0.08560751378536224,9.771402359008789,0.00044006165528668966,0.004496513953854761,0.003493055921133246,1.6399743556976318,2019-07-26 12:19:01:721,172.1970650033338,159.2533071848316,0,-21.14139175415039,25.039804458618164,-30.13772964477539
-0.21482820808887482,0.08560751378536224,9.828876495361328,-9.270064052837282e-05,0.004230132566191211,0.0021611501531499603,1.6499965190887451,2019-07-26 12:19:01:731,172.3257011156441,159.6583127685897,0,-21.14139175415039,25.039804458618164,-30.13772964477539
-0.21722295880317688,0.03531776741147041,9.852824211120605,0.0017719673907606846,0.002365464673066639,0.0037594370487224705,1.659973382949829,2019-07-26 12:19:01:741,172.4526023145577,160.06004630394148,0,-21.14139175415039,25.039804458618164,-30.13772964477539
-0.25314420461654663,0.07842326164245605,9.860008239746094,0.002038348518349909,0.0005007965523770329,0.002693912538365572,1.6699965000152588,2019-07-26 12:19:01:751,172.57385483765628,160.44858415870618,0,-21.14139175415039,25.039804458618164,-30.13772964477539
-0.267512708902359,0.09997601062059402,9.83366584777832,-0.001158225272795111,0.000767177712475548,-0.0015681857631363464,1.6799728870391846,2019-07-26 12:19:01:761,172.6907824598726,160.82861149380716,0,-21.14139175415039,25.039804458618164,-30.13772964477539
-0.27948644757270813,0.09039700776338577,9.72350788116455,0.0012392051355822353,0.0031646080558343135,0.0021611501531499603,1.6899962425231934,2019-07-26 12:19:01:771,172.80225732055007,161.2006888446363,0,-21.14139175415039,25.039804458618164,-30.13772964477539
-0.2890654504299164,0.08560751378536224,9.867192268371582,0.0033702542863331946,0.0010335588400647727,-0.0013018046355471218,1.6999869346618652,2019-07-26 12:19:01:781,172.91207167103457,161.56484275034833,0,-21.14139175415039,25.039804458618164,-30.13772964477539
-0.3082234561443329,0.0880022644996643,9.857613563537598,-0.0016909875279735602,0.006893944102157782,-0.0015681857631363464,1.7099885940551758,2019-07-26 12:19:01:791,173.0141403480688,161.92426583415534,0,-21.14139175415039,25.039804458618164,-30.13772964477539
-0.2100387066602707,0.07123901695013046,9.860008239746094,-0.0008918440801873052,0.0010335588400647727,-0.0031664725286716937,1.7199969291687012,2019-07-26 12:19:01:801,173.12887001863055,162.2780025548652,0,-21.14139175415039,25.039804458618164,-30.13772964477539
-0.2890654504299164,0.07123901695013046,9.828876495361328,-0.0003590817924995654,-0.0002983468954092222,-0.005031140421796266,1.7299864292144775,2019-07-26 12:19:01:811,173.23276850836018,162.62433854450114,0,-21.14139175415039,25.039804458618164,-30.13772964477539
-0.22440721094608307,0.05687051638960838,9.783376693725586,0.0012392051355822353,0.005295657336622434,-0.0021009480183147955,1.739987850189209,2019-07-26 12:19:01:821,173.3388592626309,162.9644947599967,0,-21.14139175415039,25.039804458618164,-30.13772964477539
-0.229196697473526,0.04729151725769043,9.812113761901855,-0.0038220366787245193,0.002365464673066639,-0.004231997299102917,1.7499878406524658,2019-07-26 12:19:01:831,173.44399181957348,163.3018279960649,0,-21.14139175415039,25.039804458618164,-30.13772964477539
-0.25793370604515076,0.06644951552152634,9.876771926879883,-0.002223749913189172,0.00023441540853316294,-0.005830284324712591,1.759986162185669,2019-07-26 12:19:01:841,173.5450613864074,163.62933041846873,0,-21.14139175415039,25.039804458618164,-30.13772964477539
-0.25793370604515076,0.05447576567530632,9.785771369934082,0.002038348518349909,0.000767177712475548,-0.0071621899626587125,1.7699847221374512,2019-07-26 12:19:01:851,173.6435323598355,163.94922038891818,0,-21.14139175415039,25.039804458618164,-30.13772964477539
-0.23159144818782806,0.07602851092815399,9.783376693725586,-0.0038220366787245193,0.003697370311012762,-0.005563903197123366,1.7799959182739258,2019-07-26 12:19:01:861,173.74146234661396,164.26347950005902,0,-21.14139175415039,25.039804458618164,-30.13772964477539
-0.229196697473526,0.05208101496100426,9.907903671264648,-0.003555655551135295,0.007959468612514682,-0.004498378166617817,1.7899837493896484,2019-07-26 12:19:01:871,173.83566589719277,164.57418051267675,0,-21.14139175415039,25.039804458618164,-30.13772964477539
-0.2363809496164322,0.08081801235675812,9.828876495361328,-0.0006254629525980806,0.0012999400326725785,-0.005563903197123366,1.8000025749206543,2019-07-26 12:19:01:881,173.930667743572,164.8736266727752,0,-21.14139175415039,25.039804458618164,-30.13772964477539
-0.222012460231781,0.06166001409292221,9.824087142944336,0.0009728239429744294,0.002365464673066639,-0.0071621899626587125,1.8099744319915771,2019-07-26 12:19:01:891,174.02483802536287,165.16841729386138,0,-21.14139175415039,25.039804458618164,-30.13772964477539
-0.23398619890213013,0.04010726884007454,9.828876495361328,0.0033702542863331946,0.003430989183423538,-0.004498378166617817,1.8200039863586426,2019-07-26 12:19:01:901,174.11513456460233,165.4584750165683,0,-21.14139175415039,25.039804458618164,-30.13772964477539
-0.21961770951747894,0.06644951552152634,9.831271171569824,0.004968541051868542,0.00556203846421166,-0.0031664725286716937,1.8299760818481445,2019-07-26 12:19:01:911,174.20412351575746,165.73877835194523,0,-21.14139175415039,25.039804458618164,-30.13772964477539
-0.222012460231781,0.05447576567530632,9.797744750976562,-0.002223749913189172,0.0018327022878510278,-0.00023628007642628753,1.8399977684020996,2019-07-26 12:19:01:921,174.2930482681953,166.018882864626,0,-21.441268920898438,24.440048217773438,-31.037363052368164
-0.20764395594596863,0.06166001409292221,9.797744750976562,0.00017368051144281974,0.006893944102157782,-0.004764759294207041,1.8499736785888672,2019-07-26 12:19:01:931,174.379043892326,166.2911964410585,0,-21.441268920898438,24.440048217773438,-31.037363052368164
-0.18130171298980713,0.04968626797199249,9.783376693725586,0.00017368051144281974,0.002631845800655864,-0.0031664725286716937,1.860001802444458,2019-07-26 12:19:01:941,174.46874785115256,166.55945507156525,0,-21.441268920898438,24.440048217773438,-31.037363052368164
-0.2100387066602707,0.09039700776338577,9.771402359008789,-0.002756512168367621,0.0028982269282450887,-0.0021009480183147955,1.8699760437011719,2019-07-26 12:19:01:951,174.55312178952911,166.81920899144004,0,-21.441268920898438,24.440048217773438,-31.037363052368164
-0.17411746084690094,0.028133518993854523,9.90311336517334,0.0007064428153852049,0.0018327022878510278,0.001095625642793062,1.8800122737884521,2019-07-26 12:19:01:961,174.64088104673954,167.07917131224312,0,-21.441268920898438,24.440048217773438,-31.037363052368164
-0.1501699686050415,0.06405476480722427,9.814508438110352,-0.004621180061492193,0.002631845800655864,0.0002964822275160976,1.8899757862091064,2019-07-26 12:19:01:971,174.72905896674672,167.3326944488131,0,-21.441268920898438,24.440048217773438,-31.037363052368164
-0.18130171298980713,0.042502015829086304,9.814508438110352,0.0012392051355822353,0.0031646080558343135,-0.00023628007642628753,1.9000227451324463,2019-07-26 12:19:01:981,174.8115266273739,167.58037909042443,0,-21.441268920898438,24.440048217773438,-31.037363052368164
-0.1836964637041092,0.09039700776338577,9.773797035217285,-0.001158225272795111,0.005828419591800884,0.0013620067703822866,1.9099714756011963,2019-07-26 12:19:01:991,174.89050551632403,167.81882034375823,0,-21.441268920898438,24.440048217773438,-31.037363052368164
-0.21243345737457275,0.10476551204919815,9.874377250671387,-0.0014246064003843356,-0.0029621583988665027,3.010106944941304e-05,1.9199962615966797,2019-07-26 12:19:02:001,174.9697138027483,168.05108831509264,0,-21.441268920898438,24.440048217773438,-31.037363052368164
-0.1956702023744583,0.07363376021385193,9.761823654174805,-0.0032892744235460706,0.0018327022878510278,0.0008292445152038374,1.9299871921539307,2019-07-26 12:19:02:011,175.0463252494162,168.28326828139916,0,-21.441268920898438,24.440048217773438,-31.037363052368164
-0.21482820808887482,0.059265267103910446,9.836060523986816,-0.005953085699438316,0.0063611818469793335,-0.0029000914010824694,1.940000295639038,2019-07-26 12:19:02:021,175.11679844387146,168.51404553765803,0,-21.441268920898438,24.440048217773438,-31.037363052368164
-0.2100387066602707,0.059265267103910446,9.795350074768066,0.00044006165528668966,0.003430989183423538,-0.00023628007642628753,1.9499845504760742,2019-07-26 12:19:02:031,175.18797125860232,168.7365848195632,0,-21.441268920898438,24.440048217773438,-31.037363052368164
-0.25314420461654663,0.10955500602722168,9.785771369934082,-0.004088417806313744,0.0020990834154402524,-0.0031664725286716937,1.9600064754486084,2019-07-26 12:19:02:041,175.25339399444732,168.95132542238468,0,-21.441268920898438,24.440048217773438,-31.037363052368164
-0.24356520175933838,0.03531776741147041,9.80492877960205,-0.0024901310407783963,0.0031646080558343135,-0.003965616171513693,1.969982624053955,2019-07-26 12:19:02:051,175.3180934806422,169.16956616573026,0,-21.441268920898438,24.440048217773438,-31.037363052368164
-0.2507494390010834,0.05687051638960838,9.852824211120605,-0.002756512168367621,0.004762895081443986,0.0029602936659547966,1.9799859523773193,2019-07-26 12:19:02:061,175.37989967786388,169.38110898231292,0,-21.441268920898438,24.440048217773438,-31.037363052368164
-0.2363809496164322,0.04968626797199249,9.783376693725586,-9.270064052837282e-05,0.0010335588400647727,-0.0029000914010824694,1.9899883270263672,2019-07-26 12:19:02:071,175.4440395633403,169.58771922127698,0,-21.441268920898438,24.440048217773438,-31.037363052368164
-0.2603284418582916,0.011370271444320679,9.809718132019043,0.00044006165528668966,0.002365464673066639,-0.001834566890725571,1.9999773502349854,2019-07-26 12:19:02:081,175.5034290697284,169.7943898040854,0,-21.441268920898438,24.440048217773438,-31.037363052368164
-0.281881183385849,0.016159771010279655,9.826481819152832,-0.002223749913189172,0.007426706357336231,0.0002964822275160976,2.009972095489502,2019-07-26 12:19:02:091,175.55633002004717,169.99786551375269,0,-21.441268920898438,24.440048217773438,-31.037363052368164
-0.2100387066602707,0.08321276307106018,9.85042953491211,0.0023047297759762964,0.0018327022878510278,-0.0005026612202701574,2.0199995040893555,2019-07-26 12:19:02:101,175.61974111617428,170.18693051567277,0,-21.441268920898438,24.440048217773438,-31.037363052368164
-0.23159144818782806,0.03292302042245865,9.747454643249512,0.002038348518349909,0.006094800719390108,0.0008292445152038374,2.0299737453460693,2019-07-26 12:19:02:111,175.67671200280606,170.3781798917544,0,-21.441268920898438,24.440048217773438,-31.037363052368164
-0.176512211561203,-0.0006034769467078149,9.783376693725586,0.00044006165528668966,0.0063611818469793335,3.010106944941304e-05,2.0400171279907227,2019-07-26 12:19:02:121,175.73891804420964,163.37043881249576,0,-21.441268920898438,24.440048217773438,-31.037363052368164
-0.23398619890213013,0.037712518125772476,9.848034858703613,0.0012392051355822353,0.00849223086769313,-0.0029000914010824694,2.049975872039795,2019-07-26 12:19:02:131,175.7921695086235,163.6979488944142,0,-21.441268920898438,24.440048217773438,-31.037363052368164
-0.229196697473526,0.07123901695013046,9.860008239746094,-0.0006254629525980806,-0.0002983468954092222,-0.0029000914010824694,2.0599987506866455,2019-07-26 12:19:02:141,175.84986191758372,164.01606276737166,0,-21.441268920898438,24.440048217773438,-31.037363052368164
-0.23877570033073425,0.006580772344022989,9.783376693725586,0.0009728239429744294,0.002365464673066639,0.0005628633876146128,2.0699851512908936,2019-07-26 12:19:02:151,175.90357630997607,164.33442521742376,0,-21.441268920898438,24.440048217773438,-31.037363052368164
-0.23159144818782806,0.0017912727780640125,9.831271171569824,0.00044006165528668966,0.002631845800655864,-0.0007690423803686727,2.079995632171631,2019-07-26 12:19:02:161,175.95703655868775,164.6472805724919,0,-21.441268920898438,24.440048217773438,-31.037363052368164
-0.16932795941829681,0.09997601062059402,9.874377250671387,-0.002223749913189172,0.004230132566191211,0.0005628633876146128,2.0899627208709717,2019-07-26 12:19:02:171,176.01587994808045,164.94397772420615,0,-21.591209411621094,23.990232467651367,-30.88742446899414
-0.2100387066602707,0.09997601062059402,9.78098201751709,0.0007064428153852049,0.0010335588400647727,0.0005628633876146128,2.09999942779541,2019-07-26 12:19:02:181,176.0703760446146,165.23298751349049,0,-21.591209411621094,23.990232467651367,-30.88742446899414
-0.222012460231781,0.06644951552152634,9.802534103393555,0.0012392051355822353,0.006627562974568559,0.005357724074332143,2.1099729537963867,2019-07-26 12:19:02:191,176.11930820235492,165.51986596831506,0,-21.591209411621094,23.990232467651367,-30.88742446899414
-0.21482820808887482,0.06644951552152634,9.78098201751709,0.0017719673907606846,0.00502927620903321,0.0029602936659547966,2.120004892349243,2019-07-26 12:19:02:201,176.1689243934377,165.80068557328792,0,-21.591209411621094,23.990232467651367,-30.88742446899414
-0.11185397207736969,0.028133518993854523,9.893534660339355,0.00044006165528668966,-3.1965737342537616e-05,0.006423248584689041,2.1299757957458496,2019-07-26 12:19:02:211,176.23260890230972,166.08116693941338,0,-21.591209411621094,23.990232467651367,-30.88742446899414
-0.18848596513271332,0.059265267103910446,9.82169246673584,-9.270064052837282e-05,-0.0002983468954092222,0.005357724074332143,2.1399950981140137,2019-07-26 12:19:02:221,176.2861362510625,166.35268124456647,0,-21.591209411621094,23.990232467651367,-30.88742446899414
-0.2028544545173645,0.037712518125772476,9.807323455810547,0.0023047297759762964,0.0028982269282450887,0.0002964822275160976,2.149972438812256,2019-07-26 12:19:02:231,176.33509115037637,166.61993003313611,0,-21.591209411621094,23.990232467651367,-30.88742446899414
-0.23398619890213013,0.06644951552152634,9.888745307922363,0.0039030165415116433,0.002365464673066639,0.0037594370487224705,2.1599788665771484,2019-07-26 12:19:02:241,176.3799508221495,166.8776383790591,0,-21.591209411621094,23.990232467651367,-30.88742446899414
-0.16932795941829681,0.08560751378536224,9.838455200195312,0.0017719673907606846,0.003697370311012762,0.007222391967456715,2.169987201690674,2019-07-26 12:19:02:251,176.43055379782132,167.12911910214854,0,-21.591209411621094,23.990232467651367,-30.88742446899414
-0.20045970380306244,0.09997601062059402,9.879166603088379,-0.002223749913189172,0.0020990834154402524,0.004824961819153694,2.1799848079681396,2019-07-26 12:19:02:261,176.4775156107046,167.37618891786363,0,-21.591209411621094,23.990232467651367,-30.88742446899414
-0.20764395594596863,0.030528269708156586,9.80492877960205,-0.003555655551135295,0.003430989183423538,0.008287916477813613,2.1899890899658203,2019-07-26 12:19:02:271,176.52177396835833,167.62709462057566,0,-21.591209411621094,23.990232467651367,-30.88742446899414
-0.2363809496164322,0.07363376021385193,9.761823654174805,-0.0006254629525980806,0.0018327022878510278,0.007755154222635165,2.200005292892456,2019-07-26 12:19:02:281,176.56256502631402,167.86626097835403,0,-21.591209411621094,23.990232467651367,-30.88742446899414
-0.2363809496164322,0.05687051638960838,9.869586944580078,-0.0006254629525980806,0.007160325229747007,0.005890486329510593,2.209984064102173,2019-07-26 12:19:02:291,176.5998618113545,168.10268329013186,0,-21.591209411621094,23.990232467651367,-30.88742446899414
-0.21482820808887482,0.08560751378536224,9.82169246673584,-0.0019573686555627847,0.0012999400326725785,0.006156867457099816,2.219985008239746,2019-07-26 12:19:02:301,176.64207417089932,168.3317410489665,0,-21.591209411621094,23.990232467651367,-30.88742446899414
-0.31061819195747375,0.09279175847768784,9.819297790527344,-0.001158225272795111,0.0010335588400647727,0.004025818176311695,2.229987621307373,2019-07-26 12:19:02:311,176.67241502301064,168.55492823051705,0,-21.591209411621094,23.990232467651367,-30.88742446899414
-0.2890654504299164,0.05687051638960838,9.864797592163086,0.0023047297759762964,0.004230132566191211,0.00695601083986749,2.23997163772583,2019-07-26 12:19:02:321,176.70302646172732,168.77593150636727,0,-21.591209411621094,23.990232467651367,-30.88742446899414
-0.2962496876716614,0.06644951552152634,9.83366584777832,0.00044006165528668966,0.003697370311012762,0.0056241052019213676,2.2499985694885254,2019-07-26 12:19:02:331,176.73237277981036,168.99242188263807,0,-21.591209411621094,23.990232467651367,-30.88742446899414
-0.31061819195747375,0.04010726884007454,9.840849876403809,-0.003555655551135295,-0.0021630148860616663,-0.0036992350439244686,2.2599844932556152,2019-07-26 12:19:02:341,176.76278028256795,169.20989687422173,0,-21.591209411621094,23.990232467651367,-30.88742446899414
-0.2699074447154999,-0.010182475671172142,9.828876495361328,-0.0024901310407783963,0.0018327022878510278,0.004292199303900919,2.270005226135254,2019-07-26 12:19:02:351,176.7950337902671,162.22828718091213,0,-21.591209411621094,23.990232467651367,-30.88742446899414
-0.16932795941829681,0.07123901695013046,9.809718132019043,0.0023047297759762964,0.005828419591800884,-0.004231997299102917,2.279984951019287,2019-07-26 12:19:02:361,176.83608913317715,162.57410836716144,0,-21.591209411621094,23.990232467651367,-30.88742446899414
-0.22440721094608307,0.00897552166134119,9.826481819152832,-0.0008918440801873052,0.0010335588400647727,-0.0026337102734932446,2.2900002002716064,2019-07-26 12:19:02:371,176.872621415228,162.92208105214667,0,-21.591209411621094,23.990232467651367,-30.88742446899414
-0.23398619890213013,-0.017366724088788033,9.836060523986816,0.0041693976691008685,0.006627562974568559,-0.0007690423803686727,2.2999887466430664,2019-07-26 12:19:02:381,176.90419728393934,156.06332424833244,0,-21.591209411621094,23.990232467651367,-30.88742446899414
-0.222012460231781,0.09279175847768784,9.893534660339355,-0.004088417806313744,0.006094800719390108,-0.0036992350439244686,2.3099873065948486,2019-07-26 12:19:02:391,176.9369813992372,156.5336058122326,0,-21.591209411621094,23.990232467651367,-30.88742446899414
-0.21243345737457275,0.07602851092815399,9.857613563537598,0.00310387315874397,0.002631845800655864,0.001628387897971511,2.3199892044067383,2019-07-26 12:19:02:401,176.97207283462083,156.99235265222296,0,-21.591209411621094,23.990232467651367,-30.88742446899414
-0.21243345737457275,0.07363376021385193,9.785771369934082,0.0012392051355822353,0.004230132566191211,-0.0010354235079578973,2.329987049102783,2019-07-26 12:19:02:411,177.00538458659136,157.44318757329214,0,-21.591209411621094,23.990232467651367,-30.88742446899414
-0.2603284418582916,0.08321276307106018,9.816903114318848,-0.0008918440801873052,0.006893944102157782,0.0013620067703822866,2.339994430541992,2019-07-26 12:19:02:421,177.03102238368828,157.88511186506315,0,-22.041025161743164,23.840293884277344,-30.737483978271484
-0.23159144818782806,0.0688442662358284,9.819297790527344,0.00017368051144281974,0.003430989183423538,0.0021611501531499603,2.349987506866455,2019-07-26 12:19:02:431,177.06145497836053,158.31927815487367,0,-22.041025161743164,23.840293884277344,-30.737483978271484
-0.2363809496164322,0.059265267103910446,9.864797592163086,-0.001158225272795111,0.006893944102157782,0.0008292445152038374,2.36000919342041,2019-07-26 12:19:02:441,177.08889329022833,158.74666004908366,0,-22.041025161743164,23.840293884277344,-30.737483978271484
-0.22680194675922394,0.07602851092815399,9.78098201751709,-0.002223749913189172,0.006094800719390108,-0.005563903197123366,2.3699707984924316,2019-07-26 12:19:02:451,177.117139549086,159.1640635541839,0,-22.041025161743164,23.840293884277344,-30.737483978271484
-0.21243345737457275,0.0880022644996643,9.807323455810547,0.00044006165528668966,0.0031646080558343135,-0.0023673291459040203,2.380000114440918,2019-07-26 12:19:02:461,177.14819717673828,159.57025230556363,0,-22.041025161743164,23.840293884277344,-30.737483978271484
-0.229196697473526,0.03292302042245865,9.826481819152832,0.0012392051355822353,0.008758612515431006,-0.0023673291459040203,2.389970541000366,2019-07-26 12:19:02:471,177.17360689105342,159.97431420016636,0,-22.041025161743164,23.840293884277344,-30.737483978271484
-0.17172271013259888,0.04729151725769043,9.783376693725586,0.0009728239429744294,0.0028982269282450887,0.001095625642793062,2.3999741077423096,2019-07-26 12:19:02:481,177.20839520523927,160.36874232446823,0,-22.041025161743164,23.840293884277344,-30.737483978271484
-0.20764395594596863,0.028133518993854523,9.86240291595459,-0.0014246064003843356,0.003963751438601987,0.0008292445152038374,2.409998893737793,2019-07-26 12:19:02:491,177.23787349321492,160.75890054195176,0,-22.041025161743164,23.840293884277344,-30.737483978271484
-0.21961770951747894,0.07123901695013046,9.79295539855957,0.00044006165528668966,0.0063611818469793335,0.0008292445152038374,2.4199817180633545,2019-07-26 12:19:02:501,177.2638562626871,161.13514002650751,0,-22.041025161743164,23.840293884277344,-30.737483978271484
-0.229196697473526,0.05687051638960838,9.840849876403809,-0.0019573686555627847,0.003697370311012762,3.010106944941304e-05,2.430006265640259,2019-07-26 12:19:02:511,177.2898140380878,161.50691678273998,0,-22.041025161743164,23.840293884277344,-30.737483978271484
-0.21243345737457275,0.05687051638960838,9.819297790527344,-0.001158225272795111,0.003963751438601987,0.0002964822275160976,2.4399728775024414,2019-07-26 12:19:02:521,177.31701235293608,161.8707898820815,0,-22.041025161743164,23.840293884277344,-30.737483978271484
-0.19806495308876038,0.0951865091919899,9.783376693725586,-0.0019573686555627847,0.0028982269282450887,0.0018947690255607357,2.4499948024749756,2019-07-26 12:19:02:531,177.3458452373965,162.22332682007195,0,-22.041025161743164,23.840293884277344,-30.737483978271484
-0.21482820808887482,0.08321276307106018,9.816903114318848,-0.0014246064003843356,0.0020990834154402524,-0.0005026612202701574,2.45998215675354,2019-07-26 12:19:02:541,177.37267854760287,162.56994609103577,0,-22.041025161743164,23.840293884277344,-30.737483978271484
-0.2603284418582916,0.06166001409292221,9.831271171569824,-0.001158225272795111,0.005828419591800884,0.003226674793544021,2.4699833393096924,2019-07-26 12:19:02:551,177.3916156059317,162.91201070001514,0,-22.041025161743164,23.840293884277344,-30.737483978271484
-0.222012460231781,0.023344019427895546,9.694770812988281,0.004968541051868542,0.0020990834154402524,3.010106944941304e-05,2.4799726009368896,2019-07-26 12:19:02:561,177.41636878470734,163.2482244102515,0,-22.041025161743164,23.840293884277344,-30.737483978271484
-0.25314420461654663,-0.09160396456718445,9.881561279296875,-0.002756512168367621,0.0028982269282450887,-0.00023628007642628753,2.4899892807006836,2019-07-26 12:19:02:571,177.4370618871457,156.39543283412428,0,-22.041025161743164,23.840293884277344,-30.737483978271484
-0.21961770951747894,0.04968626797199249,9.915087699890137,-0.0019573686555627847,0.006627562974568559,0.0021611501531499603,2.4999887943267822,2019-07-26 12:19:02:581,177.45922175357597,156.8628808450531,0,-22.041025161743164,23.840293884277344,-30.737483978271484
-0.222012460231781,0.07123901695013046,9.843245506286621,0.00150558626317146,-0.001630252630883217,-0.0021009480183147955,2.509983777999878,2019-07-26 12:19:02:591,177.48511072534333,157.31648501970983,0,-22.041025161743164,23.840293884277344,-30.737483978271484
-0.281881183385849,0.03531776741147041,9.848034858703613,-0.0024901310407783963,-0.0005647280555077374,-0.0026337102734932446,2.5200066566467285,2019-07-26 12:19:02:601,177.50293563879097,157.76744717187418,0,-22.041025161743164,23.840293884277344,-30.737483978271484
-0.25793370604515076,0.059265267103910446,9.857613563537598,-0.001158225272795111,0.0018327022878510278,0.0002964822275160976,2.529972791671753,2019-07-26 12:19:02:611,177.52187423480405,158.2058570559818,0,-22.041025161743164,23.840293884277344,-30.737483978271484
-0.2555389404296875,0.0880022644996643,9.848034858703613,-0.0019573686555627847,0.00023441540853316294,-0.00023628007642628753,2.5400314331054688,2019-07-26 12:19:02:621,177.54157655931704,158.6326057643956,0,-22.041025161743164,23.840293884277344,-30.737483978271484
-0.26511794328689575,0.13829199969768524,9.86240291595459,0.0009728239429744294,0.003430989183423538,0.0021611501531499603,2.5499885082244873,2019-07-26 12:19:02:631,177.55803008420637,159.04334261805292,0,-22.041025161743164,23.840293884277344,-30.737483978271484
-0.27948644757270813,0.0880022644996643,9.857613563537598,0.0039030165415116433,0.0005007965523770329,0.001095625642793062,2.5599894523620605,2019-07-26 12:19:02:641,177.57410756814733,159.45005431436434,0,-22.041025161743164,23.840293884277344,-30.737483978271484
-0.23159144818782806,0.03531776741147041,9.86240291595459,-0.0003590817924995654,0.004762895081443986,-0.0036992350439244686,2.5699846744537354,2019-07-26 12:19:02:651,177.5930485990821,159.8571511910996,0,-22.041025161743164,23.840293884277344,-30.737483978271484
-0.2555389404296875,0.04489676654338837,9.85042953491211,-0.0008918440801873052,0.004762895081443986,0.0037594370487224705,2.579996109008789,2019-07-26 12:19:02:661,177.60878963868345,160.2552866355109,0,-22.041025161743164,23.840293884277344,-30.737483978271484
-0.21482820808887482,0.042502015829086304,9.83366584777832,-0.0006254629525980806,0.0028982269282450887,-0.00023628007642628753,2.5899758338928223,2019-07-26 12:19:02:671,177.62995987777802,160.64557866472148,0,-21.741147994995117,24.739927291870117,-30.13772964477539
-0.24356520175933838,0.04010726884007454,9.83366584777832,0.0023047297759762964,0.0012999400326725785,0.0002964822275160976,2.599998712539673,2019-07-26 12:19:02:681,177.64825228159495,161.0266963600204,0,-21.741147994995117,24.739927291870117,-30.13772964477539
-0.25314420461654663,0.04968626797199249,9.771402359008789,0.00310387315874397,0.006627562974568559,-0.0026337102734932446,2.609978675842285,2019-07-26 12:19:02:691,177.6618931407343,161.39859632772516,0,-21.741147994995117,24.739927291870117,-30.13772964477539
-0.24117045104503632,0.01855451986193657,9.826481819152832,0.0023047297759762964,0.007693087484925456,-0.0063630465798910395,2.6200168132781982,2019-07-26 12:19:02:701,177.67620068826605,161.76716162962012,0,-21.741147994995117,24.739927291870117,-30.13772964477539
-0.23398619890213013,0.030528269708156586,9.836060523986816,-0.001158225272795111,0.002631845800655864,-0.0007690423803686727,2.629976272583008,2019-07-26 12:19:02:711,177.6939502899704,162.12890952528463,0,-21.741147994995117,24.739927291870117,-30.13772964477539
-0.2363809496164322,0.04968626797199249,9.773797035217285,0.00017368051144281974,0.004762895081443986,0.0005628633876146128,2.6399946212768555,2019-07-26 12:19:02:721,177.70968325546426,162.4804082854853,0,-21.741147994995117,24.739927291870117,-30.13772964477539
-0.24356520175933838,0.04968626797199249,9.864797592163086,-0.0014246064003843356,0.006094800719390108,0.001095625642793062,2.649991989135742,2019-07-26 12:19:02:731,177.72378097101327,162.82582821142992,0,-21.741147994995117,24.739927291870117,-30.13772964477539
-0.20524920523166656,0.04010726884007454,9.836060523986816,-0.0014246064003843356,0.006627562974568559,-0.001834566890725571,2.659979820251465,2019-07-26 12:19:02:741,177.74168014644596,163.1654380581412,0,-21.741147994995117,24.739927291870117,-30.13772964477539
-0.23159144818782806,0.07842326164245605,9.769007682800293,0.0007064428153852049,0.003963751438601987,-0.0023673291459040203,2.6699886322021484,2019-07-26 12:19:02:751,177.75745809132832,163.49253334155483,0,-21.741147994995117,24.739927291870117,-30.13772964477539
-0.2507494390010834,0.08321276307106018,9.879166603088379,-0.0024901310407783963,0.0031646080558343135,0.0005628633876146128,2.6799874305725098,2019-07-26 12:19:02:761,177.7714532476436,163.8144288301832,0,-21.741147994995117,24.739927291870117,-30.13772964477539
-0.2363809496164322,0.06644951552152634,9.778586387634277,0.0023047297759762964,0.002365464673066639,3.010106944941304e-05,2.6899871826171875,2019-07-26 12:19:02:771,177.78700081383107,164.12905933524868,0,-21.741147994995117,24.739927291870117,-30.13772964477539
-0.267512708902359,0.05687051638960838,9.836060523986816,-0.0014246064003843356,0.007160325229747007,-0.004231997299102917,2.7000057697296143,2019-07-26 12:19:02:781,177.7960748665306,164.44065412451425,0,-21.741147994995117,24.739927291870117,-30.13772964477539
-0.2507494390010834,0.030528269708156586,9.852824211120605,-0.003555655551135295,0.0012999400326725785,-0.001834566890725571,2.709975004196167,2019-07-26 12:19:02:791,177.81026901631634,164.75028086948026,0,-21.741147994995117,24.739927291870117,-30.13772964477539
-0.1956702023744583,-0.007787725888192654,9.745059967041016,0.0007064428153852049,0.003430989183423538,-0.003965616171513693,2.7199974060058594,2019-07-26 12:19:02:801,177.8291271774763,157.85579345049433,0,-22.340904235839844,23.840293884277344,-30.437606811523438
-0.19806495308876038,0.04489676654338837,9.795350074768066,-0.0019573686555627847,0.004496513953854761,-0.005297521549385491,2.7299866676330566,2019-07-26 12:19:02:811,177.84685495454892,158.2945232195798,0,-22.340904235839844,23.840293884277344,-30.437606811523438
-0.20045970380306244,0.09279175847768784,9.828876495361328,0.0007064428153852049,0.0031646080558343135,3.010106944941304e-05,2.739975690841675,2019-07-26 12:19:02:821,177.86477520106354,158.71741856686492,0,-22.340904235839844,23.840293884277344,-30.437606811523438
-0.18848596513271332,0.08081801235675812,9.85042953491211,0.00017368051144281974,0.00556203846421166,-0.0021009480183147955,2.7499961853027344,2019-07-26 12:19:02:831,177.88242603326188,159.13357100178877,0,-22.340904235839844,23.840293884277344,-30.437606811523438
-0.2507494390010834,0.028133518993854523,9.83366584777832,-0.0003590817924995654,0.005828419591800884,0.004558580691564469,2.759972333908081,2019-07-26 12:19:02:841,177.89229920500895,159.54782233903137,0,-22.340904235839844,23.840293884277344,-30.437606811523438
-0.25793370604515076,0.07602851092815399,9.867192268371582,0.0007064428153852049,0.003963751438601987,-0.004231997299102917,2.7699990272521973,2019-07-26 12:19:02:851,177.90227361002948,159.94763885343875,0,-22.340904235839844,23.840293884277344,-30.437606811523438
-0.2483547031879425,0.07363376021385193,9.886350631713867,-0.0003590817924995654,-0.0010974903757047679,0.0002964822275160976,2.779984951019287,2019-07-26 12:19:02:861,177.91606305333272,160.34035276941083,0,-22.340904235839844,23.840293884277344,-30.437606811523438
-0.24595995247364044,0.121528759598732,9.836060523986816,-0.0024901310407783963,0.003963751438601987,-0.005031140421796266,2.789991855621338,2019-07-26 12:19:02:871,177.9268658868073,160.72078732487293,0,-22.340904235839844,23.840293884277344,-30.437606811523438
-0.22440721094608307,0.08081801235675812,9.864797592163086,-0.0019573686555627847,0.00556203846421166,-0.003965616171513693,2.799985647201538,2019-07-26 12:19:02:881,177.93914431355398,161.0980821759784,0,-22.340904235839844,23.840293884277344,-30.437606811523438
-0.24117045104503632,0.059265267103910446,9.86240291595459,-0.0030228932959568454,0.003697370311012762,-0.005031140421796266,2.8099913597106934,2019-07-26 12:19:02:891,177.95026808838395,161.4709328860436,0,-22.340904235839844,23.840293884277344,-30.437606811523438
-0.1956702023744583,0.06405476480722427,9.840849876403809,-0.0003590817924995654,0.00556203846421166,-0.0034328539163352434,2.819986343383789,2019-07-26 12:19:02:901,177.96535944468607,161.83425701351555,0,-22.340904235839844,23.840293884277344,-30.437606811523438
-0.18848596513271332,0.08081801235675812,9.843245506286621,-0.0006254629525980806,0.003697370311012762,-0.0013018046355471218,2.8299882411956787,2019-07-26 12:19:02:911,177.98203560990626,162.18851480269407,0,-22.340904235839844,23.840293884277344,-30.437606811523438
-0.20524920523166656,0.04489676654338837,9.845640182495117,-0.0030228932959568454,0.0018327022878510278,-0.0015681857631363464,2.839991569519043,2019-07-26 12:19:02:921,177.9974803850554,162.54121700783384,0,-22.64078140258789,24.440048217773438,-29.83785057067871
-0.20764395594596863,0.07842326164245605,9.797744750976562,-0.0016909875279735602,0.0018327022878510278,-0.003965616171513693,2.849987268447876,2019-07-26 12:19:02:931,178.0122203648237,162.8821697868888,0,-22.64078140258789,24.440048217773438,-29.83785057067871
-0.17890696227550507,0.037712518125772476,9.831271171569824,-0.0030228932959568454,0.004762895081443986,0.0013620067703822866,2.860086679458618,2019-07-26 12:19:02:941,178.02842423448453,163.22184493226308,0,-22.64078140258789,24.440048217773438,-29.83785057067871
-0.20764395594596863,0.07363376021385193,9.802534103393555,0.0009728239429744294,0.0031646080558343135,-0.004231997299102917,2.869985818862915,2019-07-26 12:19:02:951,178.04182681366063,163.54825968388135,0,-22.64078140258789,24.440048217773438,-29.83785057067871
-0.17890696227550507,0.03292302042245865,9.819297790527344,-0.002223749913189172,0.0020990834154402524,-0.005830284324712591,2.8802621364593506,2019-07-26 12:19:02:961,178.05890288011312,163.87473551071977,0,-22.64078140258789,24.440048217773438,-29.83785057067871
-0.229196697473526,0.0951865091919899,9.86240291595459,-0.0014246064003843356,0.007426706357336231,-0.0063630465798910395,2.8900039196014404,2019-07-26 12:19:02:971,178.0670367743025,164.18696065389278,0,-22.64078140258789,24.440048217773438,-29.83785057067871
-0.19327545166015625,0.05687051638960838,9.857613563537598,0.0012392051355822353,0.007426706357336231,0.0002964822275160976,2.9000654220581055,2019-07-26 12:19:02:981,178.07903554051276,164.49591040975372,0,-22.64078140258789,24.440048217773438,-29.83785057067871
-0.24595995247364044,0.07123901695013046,9.824087142944336,-0.0024901310407783963,0.003430989183423538,-0.00023628007642628753,2.9102606773376465,2019-07-26 12:19:02:991,178.0868070885306,164.799108287124,0,-22.64078140258789,24.440048217773438,-29.83785057067871
-0.17411746084690094,0.11913400888442993,9.840849876403809,-0.001158225272795111,0.002631845800655864,-0.006096665452301814,2.920186996459961,2019-07-26 12:19:03:001,178.103331103385,165.0898998158146,0,-22.64078140258789,24.440048217773438,-29.83785057067871
-0.22440721094608307,0.08321276307106018,9.876771926879883,0.002038348518349909,0.003697370311012762,-0.005031140421796266,2.9300272464752197,2019-07-26 12:19:03:011,178.11319004803462,165.37732135168406,0,-22.64078140258789,24.440048217773438,-29.83785057067871
-0.22680194675922394,0.08321276307106018,9.828876495361328,-0.0038220366787245193,0.002631845800655864,0.0008292445152038374,2.940065860748291,2019-07-26 12:19:03:021,178.12300537979175,165.6622280160643,0,-22.64078140258789,24.440048217773438,-29.83785057067871
-0.22680194675922394,0.05447576567530632,9.85042953491211,-0.0006254629525980806,0.0031646080558343135,0.0005628633876146128,2.950030565261841,2019-07-26 12:19:03:031,178.13239506304245,165.94299622792687,0,-22.64078140258789,24.440048217773438,-29.83785057067871
-0.26511794328689575,0.04010726884007454,9.788166046142578,-0.002756512168367621,0.005295657336622434,-0.0010354235079578973,2.960038661956787,2019-07-26 12:19:03:041,178.1357410728836,166.2209899412763,0,-22.64078140258789,24.440048217773438,-29.83785057067871
-0.21482820808887482,0.030528269708156586,9.845640182495117,-0.0019573686555627847,-0.0021630148860616663,0.0013620067703822866,2.9700305461883545,2019-07-26 12:19:03:051,178.14924031042128,166.49411519366285,0,-22.340904235839844,24.14017105102539,-32.236873626708984
-0.1836964637041092,0.08081801235675812,9.831271171569824,0.0007064428153852049,0.0018327022878510278,0.0002964822275160976,2.980039119720459,2019-07-26 12:19:03:061,178.16381671822174,166.75441609054045,0,-22.340904235839844,24.14017105102539,-32.236873626708984
-0.20764395594596863,0.059265267103910446,9.826481819152832,-0.002756512168367621,0.0031646080558343135,0.003493055921133246,2.990034580230713,2019-07-26 12:19:03:071,178.17455346184488,167.0139637061323,0,-22.340904235839844,24.14017105102539,-32.236873626708984
-0.20524920523166656,0.030528269708156586,9.85042953491211,0.0025711109035655207,0.00502927620903321,-0.00023628007642628753,3.000034809112549,2019-07-26 12:19:03:081,178.1843648956762,167.26868933458073,0,-22.340904235839844,24.14017105102539,-32.236873626708984
-0.22440721094608307,0.07123901695013046,9.788166046142578,0.00150558626317146,0.00849223086769313,-0.0023673291459040203,3.0100152492523193,2019-07-26 12:19:03:091,178.18965145419853,167.514131903244,0,-22.340904235839844,24.14017105102539,-32.236873626708984
-0.2028544545173645,0.0688442662358284,9.769007682800293,-0.005420323444259867,0.001566321160261803,0.005091342946742919,3.0200541019439697,2019-07-26 12:19:03:101,178.20118388434094,167.75882921805987,0,-22.340904235839844,24.14017105102539,-32.236873626708984
-0.23398619890213013,0.05687051638960838,9.75224494934082,0.0009728239429744294,0.003697370311012762,0.003226674793544021,3.030015230178833,2019-07-26 12:19:03:111,178.20760346068414,167.99642615144336,0,-22.340904235839844,24.14017105102539,-32.236873626708984
-0.23877570033073425,0.06166001409292221,9.857613563537598,-0.001158225272795111,0.0020990834154402524,0.006423248584689041,3.0400218963623047,2019-07-26 12:19:03:121,178.21452049959103,168.22998072077783,0,-22.340904235839844,24.14017105102539,-32.236873626708984
-0.23398619890213013,0.07123901695013046,9.848034858703613,0.0012392051355822353,0.0018327022878510278,0.0037594370487224705,3.050018787384033,2019-07-26 12:19:03:131,178.22197987867625,168.45639629589343,0,-22.340904235839844,24.14017105102539,-32.236873626708984
-0.21243345737457275,0.028133518993854523,9.857613563537598,-0.002223749913189172,-0.0005647280555077374,0.0008292445152038374,3.0600178241729736,2019-07-26 12:19:03:141,178.2331664662531,168.68524646084165,0,-22.340904235839844,24.14017105102539,-32.236873626708984
-0.23398619890213013,0.05208101496100426,9.852824211120605,-0.0003590817924995654,0.005295657336622434,-0.0023673291459040203,3.070014715194702,2019-07-26 12:19:03:151,178.23832231307304,168.9056859573917,0,-22.340904235839844,24.14017105102539,-32.236873626708984
-0.22680194675922394,-0.005392976105213165,9.843245506286621,-0.0003590817924995654,0.003963751438601987,0.0029602936659547966,3.0800254344940186,2019-07-26 12:19:03:161,178.24492903612858,161.92840190931955,0,-22.340904235839844,24.14017105102539,-32.236873626708984
-0.22680194675922394,0.03292302042245865,9.7642183303833,0.0023047297759762964,0.004496513953854761,-0.0013018046355471218,3.0900192260742188,2019-07-26 12:19:03:171,178.25089484902415,162.28467678497864,0,-21.441268920898438,24.14017105102539,-31.037363052368164
-0.21482820808887482,0.05687051638960838,9.800139427185059,0.00044006165528668966,0.0028982269282450887,0.0018947690255607357,3.10006046295166,2019-07-26 12:19:03:181,178.25912737341426,162.63208542686087,0,-21.441268920898438,24.14017105102539,-31.037363052368164
-0.20524920523166656,0.04968626797199249,9.843245506286621,0.003636635413922419,0.005828419591800884,0.0002964822275160976,3.1100199222564697,2019-07-26 12:19:03:191,178.2667945244041,162.97162578150008,0,-21.441268920898438,24.14017105102539,-31.037363052368164
-0.2483547031879425,0.037712518125772476,9.864797592163086,0.0012392051355822353,0.007426706357336231,0.0008292445152038374,3.120023012161255,2019-07-26 12:19:03:201,178.26844394920155,163.30711649496686,0,-21.441268920898438,24.14017105102539,-31.037363052368164
-0.1956702023744583,0.07363376021385193,9.814508438110352,-0.0003590817924995654,0.007693087484925456,-0.0029000914010824694,3.1300172805786133,2019-07-26 12:19:03:211,178.275914987903,163.63257855508266,0,-21.441268920898438,24.14017105102539,-31.037363052368164
-0.23877570033073425,0.08321276307106018,9.819297790527344,0.0023047297759762964,0.0012999400326725785,-0.0005026612202701574,3.140023708343506,2019-07-26 12:19:03:221,178.28180658457967,163.94892132255174,0,-21.441268920898438,24.14017105102539,-31.037363052368164
-0.222012460231781,0.06405476480722427,9.871981620788574,-9.270064052837282e-05,0.0020990834154402524,0.0002964822275160976,3.150059938430786,2019-07-26 12:19:03:231,178.28922122767082,164.26255991917068,0,-21.441268920898438,24.14017105102539,-31.037363052368164
-0.21722295880317688,0.01855451986193657,9.788166046142578,0.00017368051144281974,-3.1965737342537616e-05,-0.0005026612202701574,3.1600232124328613,2019-07-26 12:19:03:241,178.2980282350904,164.57503935411748,0,-21.441268920898438,24.14017105102539,-31.037363052368164
-0.22680194675922394,0.07123901695013046,9.759428977966309,-0.001158225272795111,0.0028982269282450887,-0.001834566890725571,3.1700186729431152,2019-07-26 12:19:03:251,178.30381561614516,164.87582414378846,0,-21.441268920898438,24.14017105102539,-31.037363052368164
-0.2507494390010834,0.07602851092815399,9.855218887329102,-0.0008918440801873052,0.003963751438601987,0.0013620067703822866,3.180021286010742,2019-07-26 12:19:03:261,178.30636347886082,165.16996852115372,0,-21.441268920898438,24.14017105102539,-31.037363052368164
-0.27230221033096313,0.07123901695013046,9.807323455810547,0.0009728239429744294,0.003963751438601987,-0.0010354235079578973,3.190023899078369,2019-07-26 12:19:03:271,178.3062015933537,165.4576991455367,0,-21.441268920898438,24.14017105102539,-31.037363052368164
-0.2555389404296875,0.04729151725769043,9.82169246673584,0.0023047297759762964,0.00556203846421166,0.0018947690255607357,3.2000234127044678,2019-07-26 12:19:03:281,178.30714714547122,165.7417335740703,0,-21.441268920898438,24.14017105102539,-31.037363052368164
-0.17890696227550507,0.030528269708156586,9.809718132019043,0.0009728239429744294,-3.1965737342537616e-05,-0.001834566890725571,3.2100107669830322,2019-07-26 12:19:03:291,178.32012554939195,166.02278722635742,0,-21.441268920898438,24.14017105102539,-31.037363052368164
-0.22680194675922394,0.04729151725769043,9.855218887329102,-0.0006254629525980806,0.000767177712475548,0.001628387897971511,3.220062255859375,2019-07-26 12:19:03:301,178.32692330858674,166.29718570766806,0,-23.39047622680664,25.189743041992188,-31.487178802490234
-0.23159144818782806,0.09279175847768784,9.843245506286621,-0.006219466827027541,-0.0024293961436880535,-0.0013018046355471218,3.230013370513916,2019-07-26 12:19:03:311,178.334786198119,166.56391497771259,0,-23.39047622680664,25.189743041992188,-31.487178802490234
-0.25793370604515076,0.06644951552152634,9.7642183303833,0.0041693976691008685,0.0028982269282450887,-0.0005026612202701574,3.2400238513946533,2019-07-26 12:19:03:321,178.3361977018685,166.82249480756332,0,-23.39047622680664,25.189743041992188,-31.487178802490234
-0.22440721094608307,0.05687051638960838,9.795350074768066,-0.0008918440801873052,0.007693087484925456,-0.0034328539163352434,3.250016450881958,2019-07-26 12:19:03:331,178.33890944994621,167.07989234935022,0,-23.39047622680664,25.189743041992188,-31.487178802490234
-0.22440721094608307,0.08081801235675812,9.814508438110352,0.002038348518349909,0.0012999400326725785,0.004824961819153694,3.2600603103637695,2019-07-26 12:19:03:341,178.34520152761533,167.32770907225884,0,-23.39047622680664,25.189743041992188,-31.487178802490234
-0.23159144818782806,0.06644951552152634,9.778586387634277,0.0076323523277607875,0.003963751438601987,0.001095625642793062,3.2700111865997314,2019-07-26 12:19:03:351,178.34894853499785,167.56910353984316,0,-23.39047622680664,25.189743041992188,-31.487178802490234
-0.2363809496164322,0.04489676654338837,9.828876495361328,-0.0008918440801873052,0.002365464673066639,0.001095625642793062,3.2800254821777344,2019-07-26 12:19:03:361,178.35308591334214,167.81298862784436,0,-23.39047622680664,25.189743041992188,-31.487178802490234
-0.19806495308876038,0.09279175847768784,9.819297790527344,-0.0003590817924995654,0.003430989183423538,0.001628387897971511,3.2900173664093018,2019-07-26 12:19:03:371,178.36098814548203,168.04610180626852,0,-23.39047622680664,25.189743041992188,-31.487178802490234
-0.20045970380306244,0.04968626797199249,9.893534660339355,-0.0016909875279735602,0.003430989183423538,-0.004764759294207041,3.300023317337036,2019-07-26 12:19:03:381,178.36862573373202,168.2803749741422,0,-23.39047622680664,25.189743041992188,-31.487178802490234
-0.21961770951747894,0.023344019427895546,9.905508995056152,0.002038348518349909,0.0005007965523770329,-0.0015681857631363464,3.310011148452759,2019-07-26 12:19:03:391,178.3755701230179,168.5109237972006,0,-23.39047622680664,25.189743041992188,-31.487178802490234
-0.1836964637041092,0.059265267103910446,9.828876495361328,-9.270064052837282e-05,0.000767177712475548,0.0021611501531499603,3.320026159286499,2019-07-26 12:19:03:401,178.38621324604426,168.73384799662352,0,-23.39047622680664,25.189743041992188,-31.487178802490234
-0.25314420461654663,0.04968626797199249,9.828876495361328,-0.0014246064003843356,0.00502927620903321,0.0024275314107763475,3.330021381378174,2019-07-26 12:19:03:411,178.38615969188032,168.9541778638419,0,-23.39047622680664,25.189743041992188,-31.487178802490234
-0.24595995247364044,0.05208101496100426,9.83366584777832,-0.0019573686555627847,0.00023441540853316294,3.010106944941304e-05,3.3400590419769287,2019-07-26 12:19:03:421,178.38964867712528,169.17012856949336,0,-20.69157600402832,24.290109634399414,-30.88742446899414
-0.2555389404296875,0.06405476480722427,9.860008239746094,0.0007064428153852049,0.004496513953854761,-0.0010354235079578973,3.3500118255615234,2019-07-26 12:19:03:431,178.38965112667762,169.37888695893486,0,-20.69157600402832,24.290109634399414,-30.88742446899414
-0.24595995247364044,0.05447576567530632,9.848034858703613,-0.0032892744235460706,0.003697370311012762,-0.001834566890725571,3.360025405883789,2019-07-26 12:19:03:441,178.39116530849333,169.58681992526624,0,-20.69157600402832,24.290109634399414,-30.88742446899414
-0.2603284418582916,0.023344019427895546,9.845640182495117,0.00017368051144281974,0.006094800719390108,-0.004231997299102917,3.370018243789673,2019-07-26 12:19:03:451,178.38963015008275,169.7922691136996,0,-20.69157600402832,24.290109634399414,-30.88742446899414
-0.222012460231781,0.037712518125772476,9.857613563537598,0.0012392051355822353,0.004230132566191211,-0.00023628007642628753,3.380023717880249,2019-07-26 12:19:03:461,178.39365716738743,169.99134360206182,0,-20.69157600402832,24.290109634399414,-30.88742446899414
-0.2627232074737549,0.04968626797199249,9.85042953491211,0.0017719673907606846,0.0018327022878510278,-0.0007690423803686727,3.3900134563446045,2019-07-26 12:19:03:471,178.39420027006912,170.18474276290834,0,-20.69157600402832,24.290109634399414,-30.88742446899414
-0.2699074447154999,0.09279175847768784,9.826481819152832,-9.270064052837282e-05,0.006094800719390108,-0.0013018046355471218,3.4000251293182373,2019-07-26 12:19:03:481,178.3914226915806,170.37027942649829,0,-20.69157600402832,24.290109634399414,-30.88742446899414
-0.21243345737457275,0.03531776741147041,9.90311336517334,-0.0024901310407783963,0.004230132566191211,-0.005297521549385491,3.410015821456909,2019-07-26 12:19:03:491,178.39664376378602,170.56018404624078,0,-20.69157600402832,24.290109634399414,-30.88742446899414
-0.24117045104503632,0.06166001409292221,9.845640182495117,-0.0032892744235460706,-0.0034949206540449518,0.0029602936659547966,3.420046806335449,2019-07-26 12:19:03:501,178.40261559776738,170.74365661155358,0,-20.69157600402832,24.290109634399414,-30.88742446899414
-0.2483547031879425,0.04729151725769043,9.831271171569824,-0.0019573686555627847,-0.0008311091830969619,-0.00023628007642628753,3.430018424987793,2019-07-26 12:19:03:511,178.40608699816346,170.92436724673422,0,-20.69157600402832,24.290109634399414,-30.88742446899414
-0.21482820808887482,0.03292302042245865,9.826481819152832,0.0007064428153852049,0.005295657336622434,-0.0029000914010824694,3.440016746520996,2019-07-26 12:19:03:521,178.40994404251703,171.1016439966551,0,-20.69157600402832,24.290109634399414,-30.88742446899414
-0.1956702023744583,0.07842326164245605,9.761823654174805,0.00017368051144281974,0.0028982269282450887,-0.0023673291459040203,3.4500157833099365,2019-07-26 12:19:03:531,178.4171518172022,171.27030789604788,0,-20.69157600402832,24.290109634399414,-30.88742446899414
-0.2363809496164322,0.06644951552152634,9.871981620788574,0.0012392051355822353,0.0020990834154402524,-0.0029000914010824694,3.4600203037261963,2019-07-26 12:19:03:541,178.4201963326076,171.4364924301112,0,-20.69157600402832,24.290109634399414,-30.88742446899414
-0.27230221033096313,0.06405476480722427,9.80492877960205,0.0039030165415116433,0.004496513953854761,-0.0021009480183147955,3.4700117111206055,2019-07-26 12:19:03:551,178.41745363099028,171.59808686365847,0,-21.89108657836914,26.38925552368164,-31.487178802490234
-0.22440721094608307,0.07602851092815399,9.828876495361328,-0.0032892744235460706,0.004762895081443986,-0.0013018046355471218,3.4800260066986084,2019-07-26 12:19:03:561,178.42026804015893,171.75911095866562,0,-21.89108657836914,26.38925552368164,-31.487178802490234
-0.23877570033073425,0.05687051638960838,9.840849876403809,0.00150558626317146,0.0031646080558343135,-0.004498378166617817,3.4900171756744385,2019-07-26 12:19:03:571,178.42228859620332,171.91646190041595,0,-21.89108657836914,26.38925552368164,-31.487178802490234
-0.229196697473526,0.04729151725769043,9.797744750976562,-0.0006254629525980806,-0.0008311091830969619,-0.0005026612202701574,3.5000598430633545,2019-07-26 12:19:03:581,178.42751019428343,172.07295432278207,0,-21.89108657836914,26.38925552368164,-31.487178802490234
-0.2507494390010834,0.08560751378536224,9.895929336547852,-0.005953085699438316,0.004762895081443986,0.0002964822275160976,3.5100138187408447,2019-07-26 12:19:03:591,178.42726820342247,172.22490968441375,0,-21.89108657836914,26.38925552368164,-31.487178802490234
-0.24117045104503632,0.04010726884007454,9.809718132019043,0.0041693976691008685,0.003963751438601987,3.010106944941304e-05,3.5200231075286865,2019-07-26 12:19:03:601,178.42832864163876,172.3733831276156,0,-21.89108657836914,26.38925552368164,-31.487178802490234
-0.25314420461654663,0.042502015829086304,9.721113204956055,0.0007064428153852049,0.003430989183423538,-0.0007690423803686727,3.5300183296203613,2019-07-26 12:19:03:611,178.42800283747897,172.52050892257853,0,-21.89108657836914,26.38925552368164,-31.487178802490234
-0.2483547031879425,0.04489676654338837,9.812113761901855,-0.0019573686555627847,0.0020990834154402524,-0.004764759294207041,3.5400230884552,2019-07-26 12:19:03:621,178.42926547524982,172.66595505862193,0,-21.89108657836914,26.38925552368164,-31.487178802490234
-0.2363809496164322,0.05687051638960838,9.879166603088379,0.0009728239429744294,0.002631845800655864,-0.005297521549385491,3.550013542175293,2019-07-26 12:19:03:631,178.4317904598951,172.80549372247722,0,-21.89108657836914,26.38925552368164,-31.487178802490234
-0.19806495308876038,0.08081801235675812,9.852824211120605,0.0033702542863331946,0.001566321160261803,-0.0015681857631363464,3.56002140045166,2019-07-26 12:19:03:641,178.4392419745269,172.93809078010904,0,-21.89108657836914,26.38925552368164,-31.487178802490234
-0.2100387066602707,0.059265267103910446,9.845640182495117,-0.0014246064003843356,-3.1965737342537616e-05,-0.0005026612202701574,3.5700247287750244,2019-07-26 12:19:03:651,178.44603278617708,173.0732314553527,0,-21.89108657836914,26.38925552368164,-31.487178802490234
-0.2363809496164322,0.06166001409292221,9.800139427185059,0.00310387315874397,0.0005007965523770329,-0.0023673291459040203,3.5800516605377197,2019-07-26 12:19:03:661,178.4491958652183,173.20280959422394,0,-21.89108657836914,26.38925552368164,-31.487178802490234
-0.21722295880317688,0.0688442662358284,9.816903114318848,0.0012392051355822353,0.003430989183423538,-0.0005026612202701574,3.590019941329956,2019-07-26 12:19:03:671,178.45293951867382,173.33002381865865,0,-22.940658569335938,24.739927291870117,-31.037363052368164
-0.21482820808887482,0.07123901695013046,9.773797035217285,-0.001158225272795111,0.0031646080558343135,-0.00023628007642628753,3.6000187397003174,2019-07-26 12:19:03:681,178.45692083151764,173.45572143194147,0,-22.940658569335938,24.739927291870117,-31.037363052368164
-0.24356520175933838,0.07842326164245605,9.776191711425781,0.004968541051868542,0.005295657336622434,-0.0026337102734932446,3.610020637512207,2019-07-26 12:19:03:691,178.456264773842,173.5746244651476,0,-22.940658569335938,24.739927291870117,-31.037363052368164
-0.2699074447154999,0.042502015829086304,9.785771369934082,-0.002756512168367621,0.004230132566191211,-0.003965616171513693,3.620020866394043,2019-07-26 12:19:03:701,178.4531660110312,173.6997028266866,0,-22.940658569335938,24.739927291870117,-31.037363052368164
-0.25793370604515076,0.09279175847768784,9.836060523986816,-0.0014246064003843356,0.0031646080558343135,-0.0015681857631363464,3.6300134658813477,2019-07-26 12:19:03:711,178.45228430983042,173.81569803638783,0,-22.940658569335938,24.739927291870117,-31.037363052368164
-0.24117045104503632,0.05687051638960838,9.836060523986816,-0.0006254629525980806,-3.1965737342537616e-05,-0.001834566890725571,3.6400206089019775,2019-07-26 12:19:03:721,178.45516549951944,173.93311009772242,0,-22.940658569335938,24.739927291870117,-31.037363052368164
-0.21722295880317688,0.03292302042245865,9.848034858703613,-0.0024901310407783963,0.0018327022878510278,-0.004498378166617817,3.650019884109497,2019-07-26 12:19:03:731,178.45976127730805,174.05201509707015,0,-22.940658569335938,24.739927291870117,-31.037363052368164
-0.21243345737457275,0.03531776741147041,9.802534103393555,-0.0038220366787245193,0.008225849740103906,-0.0021009480183147955,3.6600441932678223,2019-07-26 12:19:03:741,178.46110644978162,174.16899745361778,0,-22.940658569335938,24.739927291870117,-31.037363052368164
-0.24356520175933838,0.06405476480722427,9.773797035217285,0.0039030165415116433,0.006893944102157782,0.0013620067703822866,3.670017957687378,2019-07-26 12:19:03:751,178.45947297328644,174.27592180910773,0,-22.940658569335938,24.739927291870117,-31.037363052368164
-0.21482820808887482,0.04968626797199249,9.85042953491211,0.0007064428153852049,0.004230132566191211,-0.0015681857631363464,3.6800193786621094,2019-07-26 12:19:03:761,178.46292062847664,174.3842266190682,0,-22.940658569335938,24.739927291870117,-31.037363052368164
-0.267512708902359,0.07363376021385193,9.82169246673584,-0.002223749913189172,-0.0008311091830969619,0.001095625642793062,3.6900243759155273,2019-07-26 12:19:03:771,178.46292561246958,174.4892005129343,0,-22.940658569335938,24.739927291870117,-31.037363052368164
-0.2507494390010834,0.04729151725769043,9.845640182495117,0.0007064428153852049,0.003697370311012762,-0.0013018046355471218,3.7000176906585693,2019-07-26 12:19:03:781,178.4624144703324,174.5935159725335,0,-22.940658569335938,24.739927291870117,-31.037363052368164
-0.2028544545173645,0.07363376021385193,9.845640182495117,0.00150558626317146,0.001566321160261803,-0.0029000914010824694,3.710014581680298,2019-07-26 12:19:03:791,178.46868045772308,174.6922305958375,0,-22.940658569335938,24.739927291870117,-31.037363052368164
-0.20045970380306244,0.059265267103910446,9.795350074768066,0.0007064428153852049,0.004762895081443986,-0.005031140421796266,3.720026731491089,2019-07-26 12:19:03:801,178.47318160041348,174.7910557329241,0,-22.340904235839844,23.540414810180664,-32.236873626708984
-0.22680194675922394,0.05687051638960838,9.85042953491211,0.0023047297759762964,0.0010335588400647727,-0.0013018046355471218,3.7300186157226562,2019-07-26 12:19:03:811,178.47675853974198,174.88732580492191,0,-22.340904235839844,23.540414810180664,-32.236873626708984
-0.23398619890213013,0.04729151725769043,9.828876495361328,0.00150558626317146,-0.0005647280555077374,-0.0013018046355471218,3.7400453090667725,2019-07-26 12:19:03:821,178.48026679855258,174.98321813147862,0,-22.340904235839844,23.540414810180664,-32.236873626708984
-0.24595995247364044,0.06166001409292221,9.879166603088379,-0.0003590817924995654,0.007160325229747007,-0.0005026612202701574,3.7500271797180176,2019-07-26 12:19:03:831,178.4781244630889,175.076602981257,0,-22.340904235839844,23.540414810180664,-32.236873626708984
-0.21482820808887482,0.028133518993854523,9.86240291595459,-0.0032892744235460706,0.003697370311012762,0.0002964822275160976,3.7600224018096924,2019-07-26 12:19:03:841,178.48152988930266,175.17364812905157,0,-22.340904235839844,23.540414810180664,-32.236873626708984
-0.21243345737457275,0.01855451986193657,9.90311336517334,-0.0032892744235460706,0.000767177712475548,-0.005563903197123366,3.77001953125,2019-07-26 12:19:03:851,178.48689117483065,175.2698745690762,0,-22.340904235839844,23.540414810180664,-32.236873626708984
-0.22440721094608307,0.07123901695013046,9.795350074768066,0.0012392051355822353,0.000767177712475548,0.0005628633876146128,3.780020236968994,2019-07-26 12:19:03:861,178.49047471519305,175.35544741940296,0,-22.340904235839844,23.540414810180664,-32.236873626708984
-0.24356520175933838,0.030528269708156586,9.790560722351074,0.005234922179457767,0.002631845800655864,0.0002964822275160976,3.7900519371032715,2019-07-26 12:19:03:871,178.49068106051473,175.44181664584477,0,-22.340904235839844,23.540414810180664,-32.236873626708984
-0.17411746084690094,0.028133518993854523,9.881561279296875,0.0009728239429744294,0.004230132566191211,0.0008292445152038374,3.800015687942505,2019-07-26 12:19:03:881,178.49831138759822,175.52917355800622,0,-22.340904235839844,23.540414810180664,-32.236873626708984
-0.23159144818782806,0.05208101496100426,9.828876495361328,0.00044006165528668966,0.0012999400326725785,0.0005628633876146128,3.810020923614502,2019-07-26 12:19:03:891,178.5006193916587,175.61227097024454,0,-22.340904235839844,23.540414810180664,-32.236873626708984
-0.20764395594596863,0.04489676654338837,9.819297790527344,-0.0008918440801873052,0.0018327022878510278,0.0002964822275160976,3.820014476776123,2019-07-26 12:19:03:901,178.5053500939585,175.69528656491784,0,-22.340904235839844,23.540414810180664,-32.236873626708984
-0.19806495308876038,0.10716026276350021,9.783376693725586,0.0007064428153852049,0.003697370311012762,-0.0015681857631363464,3.8300223350524902,2019-07-26 12:19:03:911,178.509969442206,175.7684327995834,0,-22.340904235839844,23.540414810180664,-32.236873626708984
-0.2100387066602707,0.08321276307106018,9.838455200195312,-0.0016909875279735602,0.007426706357336231,-0.0021009480183147955,3.840022087097168,2019-07-26 12:19:03:921,178.511139923005,175.84432178806216,0,-22.490842819213867,24.290109634399414,-29.987789154052734
-0.16932795941829681,0.04010726884007454,9.83366584777832,-0.0003590817924995654,0.004496513953854761,0.004558580691564469,3.8500235080718994,2019-07-26 12:19:03:931,178.51866216769204,175.9229633368471,0,-22.490842819213867,24.290109634399414,-29.987789154052734
-0.21482820808887482,0.06644951552152634,9.790560722351074,0.00017368051144281974,0.00502927620903321,0.0005628633876146128,3.8600566387176514,2019-07-26 12:19:03:941,178.5203155550864,175.99662890126203,0,-22.490842819213867,24.290109634399414,-29.987789154052734
-0.2028544545173645,0.07602851092815399,9.766613006591797,0.0017719673907606846,0.00556203846421166,0.0029602936659547966,3.8704042434692383,2019-07-26 12:19:03:951,178.52288013898976,176.06674654443628,0,-22.490842819213867,24.290109634399414,-29.987789154052734
-0.21482820808887482,0.030528269708156586,9.819297790527344,-0.0006254629525980806,0.000767177712475548,0.0013620067703822866,3.8800032138824463,2019-07-26 12:19:03:961,178.5269425116867,176.14218607752554,0,-22.490842819213867,24.290109634399414,-29.987789154052734
-0.20524920523166656,0.07842326164245605,9.871981620788574,-0.004088417806313744,0.0063611818469793335,0.0029602936659547966,3.8900246620178223,2019-07-26 12:19:03:971,178.52900280968788,176.21253993095098,0,-22.490842819213867,24.290109634399414,-29.987789154052734
-0.19327545166015625,0.06644951552152634,9.840849876403809,-0.004088417806313744,0.004230132566191211,0.001628387897971511,3.9000606536865234,2019-07-26 12:19:03:981,178.5335359668432,176.2828554542013,0,-22.490842819213867,24.290109634399414,-29.987789154052734
-0.18848596513271332,0.08321276307106018,9.855218887329102,0.0017719673907606846,0.0010335588400647727,0.004824961819153694,3.910043239593506,2019-07-26 12:19:03:991,178.54037238198828,176.34652978624473,0,-22.490842819213867,24.290109634399414,-29.987789154052734
-0.23398619890213013,0.06166001409292221,9.831271171569824,-0.0019573686555627847,-0.0008311091830969619,-0.0005026612202701574,3.9200165271759033,2019-07-26 12:19:04:001,178.5427624845337,176.4135084264808,0,-22.490842819213867,24.290109634399414,-29.987789154052734
-0.2028544545173645,0.06644951552152634,9.80492877960205,-9.270064052837282e-05,0.004496513953854761,-0.0007690423803686727,3.930028200149536,2019-07-26 12:19:04:011,178.54567500221867,176.47752444208555,0,-22.490842819213867,24.290109634399414,-29.987789154052734
-0.229196697473526,0.09997601062059402,9.773797035217285,-0.0008918440801873052,0.0028982269282450887,-0.0031664725286716937,3.9400219917297363,2019-07-26 12:19:04:021,178.54626822984193,176.53675326847252,0,-22.490842819213867,24.290109634399414,-29.987789154052734
-0.21482820808887482,0.08081801235675812,9.826481819152832,0.00150558626317146,0.002631845800655864,0.0021611501531499603,3.950018882751465,2019-07-26 12:19:04:031,178.5488173364596,176.59574869787897,0,-22.490842819213867,24.290109634399414,-29.987789154052734
-0.22440721094608307,0.04968626797199249,9.85042953491211,0.0012392051355822353,0.0018327022878510278,-0.00023628007642628753,3.960052013397217,2019-07-26 12:19:04:041,178.55070740001338,176.65735557584142,0,-22.490842819213867,24.290109634399414,-29.987789154052734
-0.23159144818782806,0.059265267103910446,9.795350074768066,-0.0024901310407783963,0.0018327022878510278,0.0002964822275160976,3.970015287399292,2019-07-26 12:19:04:051,178.55158013732773,176.71866843209278,0,-21.14139175415039,23.840293884277344,-30.737483978271484
-0.22680194675922394,0.03292302042245865,9.831271171569824,0.004435778796690093,0.00556203846421166,-0.0015681857631363464,3.9800219535827637,2019-07-26 12:19:04:061,178.550992429804,176.7779652846355,0,-21.14139175415039,23.840293884277344,-30.737483978271484
-0.2028544545173645,0.05447576567530632,9.845640182495117,-0.0048875611890814175,0.004762895081443986,0.0008292445152038374,3.990022897720337,2019-07-26 12:19:04:071,178.5536914601714,176.8388103295349,0,-21.14139175415039,23.840293884277344,-30.737483978271484
-0.274696946144104,0.04010726884007454,9.809718132019043,0.0012392051355822353,0.006094800719390108,-0.0005026612202701574,4.000060319900513,2019-07-26 12:19:04:081,178.5471024473193,176.8966506296828,0,-21.14139175415039,23.840293884277344,-30.737483978271484
-0.2028544545173645,0.09039700776338577,9.778586387634277,0.00310387315874397,0.003697370311012762,0.0008292445152038374,4.010014533996582,2019-07-26 12:19:04:091,178.55032549754318,176.94638979416905,0,-21.14139175415039,23.840293884277344,-30.737483978271484
-0.23877570033073425,0.07123901695013046,9.83366584777832,0.00044006165528668966,0.002631845800655864,0.001095625642793062,4.020018577575684,2019-07-26 12:19:04:101,178.55002158245424,176.99891347772623,0,-21.14139175415039,23.840293884277344,-30.737483978271484
-0.1956702023744583,0.023344019427895546,9.776191711425781,-0.0006254629525980806,0.0028982269282450887,0.0037594370487224705,4.0300233364105225,2019-07-26 12:19:04:111,178.55446061946964,177.05655030958252,0,-21.14139175415039,23.840293884277344,-30.737483978271484
-0.222012460231781,0.04489676654338837,9.855218887329102,0.0017719673907606846,0.0012999400326725785,0.0056241052019213676,4.040018558502197,2019-07-26 12:19:04:121,178.5568317076192,177.10920448601317,0,-21.14139175415039,23.840293884277344,-30.737483978271484
-0.2555389404296875,0.09039700776338577,9.881561279296875,0.0009728239429744294,0.002365464673066639,0.004025818176311695,4.050055027008057,2019-07-26 12:19:04:131,178.55473504573533,177.15598956524775,0,-21.14139175415039,23.840293884277344,-30.737483978271484
-0.24117045104503632,0.07842326164245605,9.809718132019043,0.004435778796690093,0.00556203846421166,0.001095625642793062,4.060020446777344,2019-07-26 12:19:04:141,178.55236157813854,177.20122693790256,0,-21.14139175415039,23.840293884277344,-30.737483978271484
-0.2507494390010834,0.03292302042245865,9.79295539855957,-0.00675222908220599,0.0031646080558343135,0.0008292445152038374,4.070022106170654,2019-07-26 12:19:04:151,178.55020227414408,177.25714194682365,0,-21.14139175415039,23.840293884277344,-30.737483978271484
-0.22680194675922394,0.08321276307106018,9.819297790527344,-0.0019573686555627847,0.0010335588400647727,-0.0029000914010824694,4.0800206661224365,2019-07-26 12:19:04:161,178.552154806787,177.3033872824763,0,-21.14139175415039,23.840293884277344,-30.737483978271484
-0.2100387066602707,0.03531776741147041,9.788166046142578,0.00017368051144281974,0.006094800719390108,-0.0007690423803686727,4.090029954910278,2019-07-26 12:19:04:171,178.55310052959584,177.35308723769134,0,-21.741147994995117,24.14017105102539,-30.437606811523438
-0.21482820808887482,0.04010726884007454,9.816903114318848,-0.004621180061492193,0.0012999400326725785,-0.0015681857631363464,4.100018739700317,2019-07-26 12:19:04:181,178.5562367800289,177.40393572072813,0,-21.741147994995117,24.14017105102539,-30.437606811523438
-0.24117045104503632,0.04010726884007454,9.86240291595459,-0.0003590817924995654,-3.1965737342537616e-05,-0.003965616171513693,4.1100077629089355,2019-07-26 12:19:04:191,178.5571138888998,177.451398358874,0,-21.741147994995117,24.14017105102539,-30.437606811523438
-0.20764395594596863,0.09039700776338577,9.869586944580078,0.0039030165415116433,0.0031646080558343135,0.0024275314107763475,4.120004892349243,2019-07-26 12:19:04:201,178.5600901012626,177.48968416527677,0,-21.741147994995117,24.14017105102539,-30.437606811523438
-0.18130171298980713,0.04489676654338837,9.860008239746094,-0.0006254629525980806,0.0031646080558343135,-0.005031140421796266,4.130007266998291,2019-07-26 12:19:04:211,178.5660427111376,177.53502396214967,0,-21.741147994995117,24.14017105102539,-30.437606811523438
-0.2028544545173645,0.10476551204919815,9.78098201751709,0.003636635413922419,0.007693087484925456,-0.0026337102734932446,4.1400465965271,2019-07-26 12:19:04:221,178.5666226916972,177.5699998879701,0,-21.741147994995117,24.14017105102539,-30.437606811523438
-0.22680194675922394,0.0880022644996643,9.819297790527344,0.0025711109035655207,-0.0008311091830969619,-0.0034328539163352434,4.1500160694122314,2019-07-26 12:19:04:231,178.56929231637594,177.60689100103298,0,-21.741147994995117,24.14017105102539,-30.437606811523438
-0.1836964637041092,0.04489676654338837,9.852824211120605,-0.004354798933902968,0.001566321160261803,0.0008292445152038374,4.160019159317017,2019-07-26 12:19:04:241,178.5756646881683,177.65197754599802,0,-21.741147994995117,24.14017105102539,-30.437606811523438
-0.16214370727539062,0.09039700776338577,9.795350074768066,0.004702159924279317,0.003697370311012762,-0.0063630465798910395,4.17002010345459,2019-07-26 12:19:04:251,178.58310837199318,177.6857226350943,0,-21.741147994995117,24.14017105102539,-30.437606811523438
-0.18609121441841125,0.08321276307106018,9.874377250671387,-0.0006254629525980806,0.000767177712475548,-0.0031664725286716937,4.180019378662109,2019-07-26 12:19:04:261,178.58942224825208,177.72270279060152,0,-21.741147994995117,24.14017105102539,-30.437606811523438
-0.15974895656108856,0.028133518993854523,9.80492877960205,-0.002756512168367621,0.000767177712475548,-0.0007690423803686727,4.190019369125366,2019-07-26 12:19:04:271,178.5985346046568,177.7665085168846,0,-21.741147994995117,24.14017105102539,-30.437606811523438
-0.23398619890213013,0.06644951552152634,9.816903114318848,-0.001158225272795111,0.0018327022878510278,-0.0029000914010824694,4.200016498565674,2019-07-26 12:19:04:281,178.59822738394726,177.8040720462018,0,-21.741147994995117,24.14017105102539,-30.437606811523438
-0.21482820808887482,0.05208101496100426,9.843245506286621,-0.004088417806313744,0.005295657336622434,0.001095625642793062,4.210015535354614,2019-07-26 12:19:04:291,178.5982840530822,177.8442229954695,0,-21.741147994995117,24.14017105102539,-30.437606811523438
-0.20524920523166656,0.07123901695013046,9.800139427185059,-0.004088417806313744,0.006627562974568559,-0.00023628007642628753,4.220016956329346,2019-07-26 12:19:04:301,178.59860050224714,177.881304778214,0,-21.291330337524414,24.589988708496094,-30.88742446899414
-0.22440721094608307,0.06405476480722427,9.809718132019043,0.0012392051355822353,0.004496513953854761,-0.001834566890725571,4.2300169467926025,2019-07-26 12:19:04:311,178.59789430280065,177.91550046362087,0,-21.291330337524414,24.589988708496094,-30.88742446899414
-0.274696946144104,0.05447576567530632,9.749850273132324,-0.0019573686555627847,0.004496513953854761,0.0002964822275160976,4.240024089813232,2019-07-26 12:19:04:321,178.59113279145586,177.95188774147888,0,-21.291330337524414,24.589988708496094,-30.88742446899414
-0.2100387066602707,0.030528269708156586,9.819297790527344,-0.0008918440801873052,-0.002695777271277278,-0.00023628007642628753,4.250126123428345,2019-07-26 12:19:04:331,178.5963314001174,177.98979321682012,0,-21.291330337524414,24.589988708496094,-30.88742446899414
-0.2507494390010834,0.059265267103910446,9.816903114318848,-0.0019573686555627847,0.00556203846421166,0.002693912538365572,4.259980201721191,2019-07-26 12:19:04:341,178.59206394248687,178.02416249355326,0,-21.291330337524414,24.589988708496094,-30.88742446899414
-0.2603284418582916,0.03292302042245865,9.83366584777832,-0.004621180061492193,-0.001630252630883217,0.0002964822275160976,4.269988059997559,2019-07-26 12:19:04:351,178.59080981756358,178.06243956880957,0,-21.291330337524414,24.589988708496094,-30.88742446899414
-0.2555389404296875,0.1143445074558258,9.776191711425781,-0.0024901310407783963,0.0018327022878510278,0.004292199303900919,4.2799763679504395,2019-07-26 12:19:04:361,178.58801960542087,178.08918507595848,0,-21.291330337524414,24.589988708496094,-30.88742446899414
-0.2363809496164322,0.059265267103910446,9.840849876403809,0.0007064428153852049,-0.001630252630883217,-0.0021009480183147955,4.2899980545043945,2019-07-26 12:19:04:371,178.5896565476427,178.12010280001925,0,-21.291330337524414,24.589988708496094,-30.88742446899414
-0.1956702023744583,0.08081801235675812,9.845640182495117,-0.0019573686555627847,0.0010335588400647727,0.0029602936659547966,4.299973726272583,2019-07-26 12:19:04:381,178.5945137964821,178.1493910844496,0,-21.291330337524414,24.589988708496094,-30.88742446899414
-0.23159144818782806,0.08560751378536224,9.757034301757812,-0.0003590817924995654,0.0031646080558343135,-0.003965616171513693,4.309999227523804,2019-07-26 12:19:04:391,178.59364789810002,178.1765514782799,0,-21.291330337524414,24.589988708496094,-30.88742446899414
-0.1956702023744583,0.07363376021385193,9.845640182495117,-0.002756512168367621,0.00556203846421166,0.0008292445152038374,4.3199851512908936,2019-07-26 12:19:04:401,178.59588556903032,178.20599611242213,0,-21.291330337524414,24.589988708496094,-30.88742446899414
-0.24595995247364044,0.11913400888442993,9.814508438110352,0.0012392051355822353,0.005828419591800884,-0.003965616171513693,4.329992294311523,2019-07-26 12:19:04:411,178.5919812579853,178.227270798035,0,-21.291330337524414,24.589988708496094,-30.88742446899414
-0.22440721094608307,0.04489676654338837,9.886350631713867,0.00044006165528668966,0.003963751438601987,-0.003965616171513693,4.3399834632873535,2019-07-26 12:19:04:421,178.59191163999296,178.2572746091952,0,-21.89108657836914,23.39047622680664,-30.58754539489746
-0.23398619890213013,0.03531776741147041,9.754639625549316,-0.0006254629525980806,0.0028982269282450887,-0.0007690423803686727,4.349978446960449,2019-07-26 12:19:04:431,178.5909648710855,178.28833123957835,0,-21.89108657836914,23.39047622680664,-30.58754539489746
-0.222012460231781,0.028133518993854523,9.86240291595459,0.0012392051355822353,0.006893944102157782,-0.0015681857631363464,4.35998272895813,2019-07-26 12:19:04:441,178.58948163666372,178.31859967159266,0,-21.89108657836914,23.39047622680664,-30.58754539489746
-0.24356520175933838,0.04729151725769043,9.860008239746094,-0.005420323444259867,0.002631845800655864,-0.0007690423803686727,4.3699915409088135,2019-07-26 12:19:04:451,178.58791189152643,178.34977775619828,0,-21.89108657836914,23.39047622680664,-30.58754539489746
-0.23398619890213013,0.059265267103910446,9.826481819152832,-0.001158225272795111,0.004496513953854761,0.0008292445152038374,4.379981994628906,2019-07-26 12:19:04:461,178.58635012241857,178.37652078433757,0,-21.89108657836914,23.39047622680664,-30.58754539489746
-0.24595995247364044,0.04489676654338837,9.795350074768066,0.00017368051144281974,-0.002695777271277278,0.0013620067703822866,4.38999080657959,2019-07-26 12:19:04:471,178.5873703843352,178.40364051981484,0,-21.89108657836914,23.39047622680664,-30.58754539489746
-0.2938549518585205,0.059265267103910446,9.80492877960205,0.002038348518349909,0.003697370311012762,0.0002964822275160976,4.399988651275635,2019-07-26 12:19:04:481,178.57921439789718,178.42749709677912,0,-21.89108657836914,23.39047622680664,-30.58754539489746
-0.2555389404296875,0.10716026276350021,9.855218887329102,-0.0014246064003843356,0.005828419591800884,0.001628387897971511,4.409975051879883,2019-07-26 12:19:04:491,178.57465577644578,178.44728641288117,0,-21.89108657836914,23.39047622680664,-30.58754539489746
-0.2627232074737549,0.07123901695013046,9.879166603088379,0.0007064428153852049,0.003430989183423538,-0.004231997299102917,4.419996500015259,2019-07-26 12:19:04:501,178.57076512340194,178.46968007286853,0,-21.89108657836914,23.39047622680664,-30.58754539489746
-0.26511794328689575,0.04010726884007454,9.740270614624023,0.003636635413922419,0.0020990834154402524,-0.00023628007642628753,4.42998480796814,2019-07-26 12:19:04:511,178.5669898812797,178.49352841173604,0,-21.89108657836914,23.39047622680664,-30.58754539489746
-0.229196697473526,0.07602851092815399,9.778586387634277,-0.0003590817924995654,0.004496513953854761,-0.0021009480183147955,4.439988851547241,2019-07-26 12:19:04:521,178.56627049814475,178.51495023456803,0,-21.89108657836914,23.39047622680664,-30.58754539489746
-0.23159144818782806,0.07363376021385193,9.809718132019043,-0.0016909875279735602,0.005828419591800884,-0.0007690423803686727,4.4499831199646,2019-07-26 12:19:04:531,178.5646261402397,178.53699885649718,0,-21.89108657836914,23.39047622680664,-30.58754539489746
-0.22440721094608307,0.028133518993854523,9.831271171569824,-0.0032892744235460706,0.001566321160261803,-0.0036992350439244686,4.4599878787994385,2019-07-26 12:19:04:541,178.5663017451168,178.56482749710548,0,-21.89108657836914,23.39047622680664,-30.58754539489746
-0.18130171298980713,0.03292302042245865,9.826481819152832,0.00044006165528668966,0.003697370311012762,-0.0005026612202701574,4.469973087310791,2019-07-26 12:19:04:551,178.57176260433164,178.5894449135875,0,-22.041025161743164,24.14017105102539,-31.936996459960938
-0.229196697473526,0.037712518125772476,9.759428977966309,-0.0008918440801873052,0.003697370311012762,-0.0013018046355471218,4.479997873306274,2019-07-26 12:19:04:561,178.5713396663274,178.61372998519812,0,-22.041025161743164,24.14017105102539,-31.936996459960938
-0.23159144818782806,0.08321276307106018,9.785771369934082,-0.0006254629525980806,0.004762895081443986,-0.00023628007642628753,4.48998236656189,2019-07-26 12:19:04:571,178.57012832201858,178.63206204280706,0,-22.041025161743164,24.14017105102539,-31.936996459960938
-0.23159144818782806,0.028133518993854523,9.831271171569824,-0.0024901310407783963,0.002631845800655864,0.0005628633876146128,4.499988079071045,2019-07-26 12:19:04:581,178.5702582351488,178.657540621573,0,-22.041025161743164,24.14017105102539,-31.936996459960938
-0.176512211561203,0.04729151725769043,9.843245506286621,-0.001158225272795111,0.0031646080558343135,-0.0007690423803686727,4.5099875926971436,2019-07-26 12:19:04:591,178.57652951284058,178.67953465175052,0,-22.041025161743164,24.14017105102539,-31.936996459960938
