ACCELEROMETER X (m/s²),ACCELEROMETER Y (m/s²),ACCELEROMETER Z (m/s²),GYROSCOPE X (rad/s),GYROSCOPE Y (rad/s),GYROSCOPE Z (rad/s),Pitch (Deg),Roll (Deg),Heading (Deg),Time since start in ms ,YYYY-MO-DD HH-MI-SS_SSS
-0.000962689402513206,-0.17856690287590027,9.830123901367188,-0.0004688308170663259,-0.0012248205546924172,0.0018761223466294901,3.599887777529314,-3.5791864174361723,0,0.0,2019-08-06 15:05:33:922
0.037353307008743286,-0.14264565706253052,9.808571815490723,-0.0007352119771648412,-0.003622250702995438,0.004539933882596061,-0.06706545852830237,-7.090800712400286,0,0.0033464431762695312,2019-08-06 15:05:33:925
0.037353307008743286,-0.07319791615009308,9.894782066345215,-0.002333498937755932,-0.00042567707439687154,0.002941646856986388,-3.6613235599069784,-10.540098190513156,0,0.006472587585449219,2019-08-06 15:05:33:928
-0.010541687719523907,-0.1498299092054367,9.88520336151123,-0.001534355424951096,-0.00255672619263854,0.002408884601807939,0.01119002651824097,-13.911623385083413,0,0.010019063949584961,2019-08-06 15:05:33:932
0.06130080297589302,-0.08756642043590546,9.899572372436523,-0.002333498937755932,-0.006019680851298459,0.0008105978362725917,-3.5808058888473515,-17.2228161379732,0,0.013368606567382812,2019-08-06 15:05:33:935
0.049327053129673004,-0.18575115501880646,9.760676383972168,-0.0036654045757020556,-0.004954156340941561,0.00507269613777451,-7.1025274888512975,-20.45591040513694,0,0.01650071144104004,2019-08-06 15:05:33:938
0.020590057596564293,-0.15222465991973877,9.897176742553711,-0.002599880065345157,-0.0017575828098708665,0.004007171627417612,-10.557746988220234,-23.62865689262666,0,0.020006656646728516,2019-08-06 15:05:33:942
0.04453755542635918,-0.16659316420555115,9.906756401062012,-0.00393178570329128,-0.0022903450650493154,-0.0013204513144783674,-13.941005949504639,-26.736069876586892,0,0.023385047912597656,2019-08-06 15:05:33:945
-0.000962689402513206,-0.19772490859031677,9.904361724853516,-0.0010015931047540657,-0.004155012958173888,0.003474409372239163,-10.061569039768873,-29.778299595324413,0,0.02650618553161621,2019-08-06 15:05:33:948
0.01819530874490738,-0.19293540716171265,9.83491325378418,-0.0018007365525403206,-0.0012248205546924172,0.0021425034742187147,-13.457975074675277,-32.759899992915415,0,0.030033111572265625,2019-08-06 15:05:33:952
0.01819530874490738,-0.12348766624927521,9.837308883666992,-0.0012679742973618717,-0.005220537468530785,0.002408884601807939,-16.785725107103357,-35.69008225059764,0,0.03334546089172363,2019-08-06 15:05:33:955
0.008616309612989426,-0.09235591441392899,9.918729782104492,-0.005263691601311728,-0.0006920582344953867,-0.0010540701868891429,-20.048893522576236,-38.56468584371037,0,0.03647565841674805,2019-08-06 15:05:33:958
0.09003780037164688,-0.19054065644741058,9.866044998168945,-0.0004688308170663259,-0.002023963937460091,0.0021425034742187147,-23.23706508013223,-41.371172991692355,0,0.03993558883666992,2019-08-06 15:05:33:962
-0.02969968505203724,-0.12348766624927521,9.806177139282227,-0.0010015931047540657,-0.00255672619263854,0.003474409372239163,-19.175304233951874,-44.12912794776368,0,0.0433497428894043,2019-08-06 15:05:33:965
0.07806405425071716,-0.16659316420555115,9.854071617126465,6.393147468507523e-05,-0.0017575828098708665,-0.0021195946972460415,-22.38241170661002,-46.827185586566195,0,0.046477556228637695,2019-08-06 15:05:33:968
0.027774307876825333,-0.16659316420555115,9.928308486938477,-0.0010015931047540657,-0.003622250702995438,0.002941646856986388,-25.53084317555437,-49.47121805909316,0,0.04999113082885742,2019-08-06 15:05:33:972
0.08524829894304276,-0.16180366277694702,9.88520336151123,-0.004198166830880505,-0.0017575828098708665,0.002941646856986388,-28.610013370599788,-52.06224807490502,0,0.0533452033996582,2019-08-06 15:05:33:975
0.06609030067920685,-0.1306719183921814,9.96423053741455,-0.0018007365525403206,-0.005753299723709235,0.0010769789638618162,-31.62920274563266,-54.60566023490974,0,0.05647134780883789,2019-08-06 15:05:33:978
0.06609030067920685,-0.12348766624927521,9.894782066345215,0.0016622183661939237,-0.004421394085763112,0.005339077265363735,-34.5880830689555,-57.09957817129164,0,0.06002330780029297,2019-08-06 15:05:33:982
0.11638004332780838,-0.12588241696357727,9.777440071105957,-0.00020244967322245603,-0.004421394085763112,0.003474409372239163,-37.481852294418985,-59.542796003130555,0,0.06336665153503418,2019-08-06 15:05:33:985
0.11398529261350632,-0.19054065644741058,9.830123901367188,-0.0018007365525403206,-0.005753299723709235,0.004806315010185286,-40.317917245294915,-61.92941471640461,0,0.06649661064147949,2019-08-06 15:05:33:988
0.07327455282211304,-0.19772490859031677,9.86365032196045,-0.0004688308170663259,-0.004954156340941561,0.002941646856986388,-43.102044611570605,-64.26776388883451,0,0.07009768486022949,2019-08-06 15:05:33:992
0.02537955716252327,-0.19772490859031677,9.78222942352295,-0.0007352119771648412,-0.004954156340941561,0.005871839520542184,-45.836124871464435,-66.5591153310943,0,0.07335400581359863,2019-08-06 15:05:33:995
0.06130080297589302,-0.19772490859031677,9.858860969543457,-0.0007352119771648412,-0.0028231073202277645,0.0018761223466294901,-48.51178138500306,-68.80482497227236,0,0.07648277282714844,2019-08-06 15:05:33:998
0.08285354822874069,-0.1498299092054367,9.858860969543457,-0.004730929346133278,-0.0033558695754062136,0.007470126286077531,-51.13125075779197,-71.01037731005717,0,0.08001184463500977,2019-08-06 15:05:34:002
0.09722204506397247,-0.16180366277694702,9.777440071105957,0.002727743006587985,-0.004954156340941561,0.008269269668845206,-53.696303519999084,-73.17171916385483,0,0.08334851264953613,2019-08-06 15:05:34:005
0.09243255108594894,-0.1761721521615982,9.751097679138184,-0.001534355424951096,-0.0017575828098708665,0.003208027984575613,-56.21120634046618,-75.28731406265666,0,0.08648037910461426,2019-08-06 15:05:34:008
0.10680104792118073,-0.12348766624927521,9.813361167907715,-0.0007352119771648412,-0.002023963937460091,0.004806315010185286,-58.6741116834098,-77.3670035543935,0,0.08999800682067871,2019-08-06 15:05:34:012
0.10919579863548279,-0.1761721521615982,9.86365032196045,-0.001534355424951096,-0.0033558695754062136,0.004539933882596061,-61.087312380614996,-79.39890992957764,0,0.09335041046142578,2019-08-06 15:05:34:015
0.0756693035364151,-0.1498299092054367,9.906756401062012,-0.001534355424951096,-0.0030894884478169893,0.004806315010185286,-63.45627111395656,-81.39333277823289,0,0.09647774696350098,2019-08-06 15:05:34:018
0.09003780037164688,-0.15940891206264496,9.78222942352295,-0.002333498937755932,-0.00255672619263854,0.0005442166761740764,-65.7760895635358,-83.34632949354508,0,0.10002446174621582,2019-08-06 15:05:34:022
0.06130080297589302,-0.16659316420555115,9.897176742553711,-0.003132642320523606,-0.004155012958173888,0.003208027984575613,-68.05269020453767,-85.25952805449238,0,0.10336828231811523,2019-08-06 15:05:34:025
0.04693230614066124,-0.16659316420555115,9.866044998168945,-0.0033990234481128304,-0.004421394085763112,0.008802032444172304,-70.28540803396538,-87.13439237228859,0,0.10649943351745605,2019-08-06 15:05:34:028
0.056511301547288895,-0.08756642043590546,9.90196704864502,-0.0018007365525403206,-0.004687775213352337,0.0042735527550068365,-72.47223753760447,-88.98121667895623,0,0.11000442504882812,2019-08-06 15:05:34:032
0.07327455282211304,-0.1378561556339264,9.79420280456543,6.393147468507523e-05,-0.0028231073202277645,0.006404601775720633,-74.61368951497646,-90.78547633686895,0,0.11335015296936035,2019-08-06 15:05:34:035
0.01819530874490738,-0.14504040777683258,9.882808685302734,-0.0007352119771648412,-0.0017575828098708665,0.005605458392952959,-76.71899564900022,-92.55282071301073,0,0.11649465560913086,2019-08-06 15:05:34:038
0.013405809178948402,-0.12827716767787933,9.798992156982422,-0.0004688308170663259,-0.007085205881804008,0.004539933882596061,-78.78165087914704,-94.28667169265186,0,0.12000656127929688,2019-08-06 15:05:34:042
0.0756693035364151,-0.12827716767787933,9.849282264709473,0.0005966937908184444,-0.0017575828098708665,0.005605458392952959,-80.7968846880667,-95.9861265809706,0,0.12334632873535156,2019-08-06 15:05:34:045
0.03495855629444122,-0.13306665420532227,9.830123901367188,-0.0020671176801295454,-0.00255672619263854,0.004539933882596061,-82.77642317655365,-97.65053043671784,0,0.12647151947021484,2019-08-06 15:05:34:048
0.04693230614066124,-0.1833564043045044,9.801386833190918,-0.0010015931047540657,-0.0012248205546924172,0.0018761223466294901,-84.7151693022135,-99.27589049466201,0,0.12993836402893066,2019-08-06 15:05:34:052
0.06609030067920685,-0.16419841349124908,9.858860969543457,-0.0012679742973618717,-0.0022903450650493154,0.0026752657293971638,-86.61274567258766,-100.87104654389186,0,0.1333484649658203,2019-08-06 15:05:34:055
0.10440629720687866,-0.16898790001869202,9.904361724853516,-0.003132642320523606,-0.004954156340941561,0.005871839520542184,-88.46753979439953,-102.43352467037151,0,0.13648247718811035,2019-08-06 15:05:34:058
0.04693230614066124,-0.16898790001869202,9.928308486938477,-0.0004688308170663259,-0.004954156340941561,0.002941646856986388,-90.29179417206139,-103.96525909254125,0,0.139998197555542,2019-08-06 15:05:34:062
0.06848505139350891,-0.18096165359020233,9.911545753479004,0.0005966937908184444,-0.004687775213352337,0.003208027984575613,-92.07715909766767,-105.46514669527795,0,0.14334702491760254,2019-08-06 15:05:34:065
0.08764304965734482,-0.11390866339206696,9.858860969543457,-0.0007352119771648412,-0.00255672619263854,0.003208027984575613,-93.82498087497243,-106.94247557781863,0,0.146470308303833,2019-08-06 15:05:34:068
0.03256380558013916,-0.22406715154647827,9.820545196533203,-0.002333498937755932,-0.004155012958173888,0.005871839520542184,-95.5438655441128,-108.37702693045586,0,0.14996790885925293,2019-08-06 15:05:34:072
0.07806405425071716,-0.2480146437883377,9.815755844116211,-0.0004688308170663259,-0.0030894884478169893,0.0042735527550068365,-97.22328574449476,-109.78044928376916,0,0.153364896774292,2019-08-06 15:05:34:075
0.06130080297589302,-0.17377740144729614,9.909151077270508,0.0019285994937831485,-0.0017575828098708665,0.0069373640308990825,-98.8714219911768,-111.1650856195576,0,0.15649771690368652,2019-08-06 15:05:34:078
0.02537955716252327,-0.19054065644741058,9.849282264709473,0.00033031263071992917,-0.004687775213352337,0.0010769789638618162,-100.49011825723697,-112.51968320575338,0,0.1600024700164795,2019-08-06 15:05:34:082
0.07327455282211304,-0.25040939450263977,9.851676940917969,-0.0004688308170663259,-0.003622250702995438,0.005339077265363735,-102.0711096424696,-113.8400805451785,0,0.1633622646331787,2019-08-06 15:05:34:085
0.049327053129673004,-0.17138265073299408,9.815755844116211,-0.0036654045757020556,-0.004687775213352337,0.0042735527550068365,-103.62310777315405,-115.14263125984927,0,0.16648197174072266,2019-08-06 15:05:34:088
0.08045879751443863,-0.15940891206264496,9.78222942352295,-0.002599880065345157,-0.005753299723709235,0.0018761223466294901,-105.14008632257952,-116.42059410752525,0,0.16999340057373047,2019-08-06 15:05:34:092
0.049327053129673004,-0.20490914583206177,9.90196704864502,-0.00393178570329128,-0.00042567707439687154,0.0021425034742187147,-106.63149606707519,-117.66773196410043,0,0.17334675788879395,2019-08-06 15:05:34:095
0.09482730180025101,-0.1953301578760147,9.827729225158691,-0.0028662611929343817,-0.00255672619263854,0.0042735527550068365,-108.08736095082469,-118.89110181101744,0,0.17647194862365723,2019-08-06 15:05:34:098
0.12356429547071457,-0.1498299092054367,9.878019332885742,0.0016622183661939237,-0.004155012958173888,0.003208027984575613,-109.51047126577,-120.09622346358167,0,0.17993927001953125,2019-08-06 15:05:34:102
0.1020115464925766,-0.17856690287590027,9.827729225158691,-0.0018007365525403206,-0.0017575828098708665,0.0018761223466294901,-110.90803116060823,-121.27313554221585,0,0.1833493709564209,2019-08-06 15:05:34:105
0.05411655455827713,-0.16659316420555115,9.75349235534668,-0.001534355424951096,-0.00042567707439687154,0.004539933882596061,-112.28343780618108,-122.4278325894837,0,0.1864774227142334,2019-08-06 15:05:34:108
0.06130080297589302,-0.1761721521615982,9.763071060180664,-0.002599880065345157,-0.004421394085763112,0.004806315010185286,-113.62970414504882,-123.55808885962668,0,0.18998169898986816,2019-08-06 15:05:34:112
0.04453755542635918,-0.2216724008321762,9.846887588500977,-0.00393178570329128,-0.0014912016822816417,0.005605458392952959,-114.95164539417846,-124.66039188042461,0,0.19334626197814941,2019-08-06 15:05:34:115
0.09961679577827454,-0.20730389654636383,9.839703559875488,-0.0020671176801295454,-0.0022903450650493154,0.005871839520542184,-116.2406093693333,-125.74268224960278,0,0.19647455215454102,2019-08-06 15:05:34:118
0.0756693035364151,-0.19054065644741058,9.846887588500977,-0.002333498937755932,-0.00255672619263854,0.00507269613777451,-117.50648147545111,-126.80519205101368,0,0.2000269889831543,2019-08-06 15:05:34:122
0.08045879751443863,-0.16419841349124908,9.815755844116211,0.00033031263071992917,-0.007617968136982457,0.002941646856986388,-118.74553113094903,-127.84998298536082,0,0.20336532592773438,2019-08-06 15:05:34:125
0.05411655455827713,-0.20490914583206177,9.767860412597656,-0.002599880065345157,-0.0022903450650493154,-0.0015868324420675922,-119.96386857701539,-128.8684901291001,0,0.20650148391723633,2019-08-06 15:05:34:128
0.10919579863548279,-0.1498299092054367,9.83491325378418,-0.0004688308170663259,-0.0033558695754062136,0.0037407904998283874,-121.15118042226474,-129.87356806903068,0,0.21015453338623047,2019-08-06 15:05:34:132
0.1020115464925766,-0.1570141613483429,9.681650161743164,-0.0036654045757020556,-0.005753299723709235,1.1454389502251989e-05,-122.31504760524327,-130.85685442678925,0,0.21336030960083008,2019-08-06 15:05:34:135
0.08285354822874069,-0.16419841349124908,9.856466293334961,-0.003132642320523606,-0.0030894884478169893,0.00507269613777451,-123.4585714592361,-131.82007892339712,0,0.21648955345153809,2019-08-06 15:05:34:138
0.04453755542635918,-0.18575115501880646,9.851676940917969,-0.004198166830880505,-0.004421394085763112,0.0021425034742187147,-124.58334571863753,-132.76124416367423,0,0.22000956535339355,2019-08-06 15:05:34:142
0.008616309612989426,-0.2096986472606659,9.791808128356934,-0.0004688308170663259,-0.006818824754214785,-0.0021195946972460415,-125.68939210321977,-133.6813945270432,0,0.22334837913513184,2019-08-06 15:05:34:145
0.027774307876825333,-0.1570141613483429,9.715176582336426,-0.0018007365525403206,-0.005220537468530785,0.0008105978362725917,-126.77140978933866,-134.5889314473639,0,0.22648167610168457,2019-08-06 15:05:34:148
0.03974805399775505,-0.18814590573310852,9.889992713928223,-0.00393178570329128,-0.00042567707439687154,0.0026752657293971638,-127.83129241671621,-135.47458217081544,0,0.22998547554016113,2019-08-06 15:05:34:152
0.011011059395968914,-0.21927765011787415,9.918729782104492,-0.002333498937755932,-0.004155012958173888,0.004806315010185286,-128.8726107712753,-136.33932127607744,0,0.23334455490112305,2019-08-06 15:05:34:155
0.08524829894304276,-0.14743515849113464,9.909151077270508,-0.002599880065345157,-0.0028231073202277645,0.0018761223466294901,-129.8848057861356,-137.19503079103293,0,0.2364654541015625,2019-08-06 15:05:34:158
0.06848505139350891,-0.20011965930461884,9.806177139282227,-0.0004688308170663259,-0.0028231073202277645,0.0018761223466294901,-130.8785441705272,-138.02765468867884,0,0.24001526832580566,2019-08-06 15:05:34:162
0.06609030067920685,-0.19772490859031677,9.84449291229248,-0.0004688308170663259,-0.0012248205546924172,0.0005442166761740764,-131.85304961042792,-138.84400084299972,0,0.24337077140808105,2019-08-06 15:05:34:165
0.06130080297589302,-0.1833564043045044,9.947466850280762,-0.0028662611929343817,-0.005220537468530785,0.0026752657293971638,-132.80800774621213,-139.64549642690375,0,0.246506929397583,2019-08-06 15:05:34:168
0.08524829894304276,-0.23364615440368652,9.880414009094238,-0.0028662611929343817,-0.004421394085763112,-0.0018532135696568165,-133.7410867495308,-140.4249269525253,0,0.2500278949737549,2019-08-06 15:05:34:172
0.08045879751443863,-0.18575115501880646,9.851676940917969,-0.0007352119771648412,-0.004687775213352337,0.0018761223466294901,-134.65603294813022,-141.1946879859689,0,0.25334668159484863,2019-08-06 15:05:34:175
0.0756693035364151,-0.20011965930461884,9.9139404296875,-0.0036654045757020556,-0.004421394085763112,0.0013433600914510408,-135.55338990786365,-141.94702278217895,0,0.2564733028411865,2019-08-06 15:05:34:178
-0.03688393533229828,-0.18096165359020233,9.856466293334961,-0.00020244967322245603,-0.0030894884478169893,0.004007171627417612,-129.24599541745312,-142.68700574880094,0,0.26001739501953125,2019-08-06 15:05:34:182
0.03495855629444122,-0.18575115501880646,9.851676940917969,0.0005966937908184444,-0.002023963937460091,0.0018761223466294901,-130.25662835494825,-143.41177450853232,0,0.263369083404541,2019-08-06 15:05:34:185
0.06130080297589302,-0.1761721521615982,9.90196704864502,-0.0018007365525403206,-0.004954156340941561,0.0010769789638618162,-131.24353488168347,-144.122838361287,0,0.26648545265197754,2019-08-06 15:05:34:188
0.008616309612989426,-0.1761721521615982,9.8229398727417,6.393147468507523e-05,-0.0012248205546924172,1.1454389502251989e-05,-132.21741650441265,-144.81984472543326,0,0.27001190185546875,2019-08-06 15:05:34:192
0.06369554996490479,-0.1498299092054367,9.810966491699219,-0.00393178570329128,-0.004687775213352337,0.0002778355485848519,-133.16475077864845,-145.50521282087263,0,0.2733471393585205,2019-08-06 15:05:34:195
0.03974805399775505,-0.11869816482067108,9.832518577575684,-0.0018007365525403206,-0.003622250702995438,0.0016097412190402653,-134.09618632934857,-146.18095902861145,0,0.27647948265075684,2019-08-06 15:05:34:198
0.056511301547288895,-0.16419841349124908,9.899572372436523,-0.0018007365525403206,-0.005220537468530785,1.1454389502251989e-05,-135.00669278667553,-146.8379802042432,0,0.27998805046081543,2019-08-06 15:05:34:202
0.020590057596564293,-0.18575115501880646,9.858860969543457,-0.0020671176801295454,-0.003622250702995438,0.0010769789638618162,-135.9034824619876,-147.47924300683218,0,0.28334736824035645,2019-08-06 15:05:34:205
0.08524829894304276,-0.18814590573310852,9.887598037719727,-0.0004688308170663259,-0.00255672619263854,0.0018761223466294901,-136.77508444834322,-148.10777345107815,0,0.28647375106811523,2019-08-06 15:05:34:208
0.049327053129673004,-0.20011965930461884,9.820545196533203,-0.0010015931047540657,-0.0017575828098708665,-0.0021195946972460415,-137.63348188276643,-148.72207344083637,0,0.28997135162353516,2019-08-06 15:05:34:212
0.06130080297589302,-0.21209339797496796,9.846887588500977,-0.00393178570329128,-0.004687775213352337,0.0005442166761740764,-138.47278453298324,-149.32220391718067,0,0.293367862701416,2019-08-06 15:05:34:215
0.08764304965734482,-0.24322514235973358,9.971414566040039,-0.0012679742973618717,-0.004687775213352337,0.0002778355485848519,-139.29243204037826,-149.90759074981418,0,0.29650259017944336,2019-08-06 15:05:34:218
-0.0033574390690773726,-0.11630341410636902,9.784624099731445,-0.0028662611929343817,-0.005753299723709235,0.0008105978362725917,-132.9058363152641,-150.49525074406176,0,0.300032377243042,2019-08-06 15:05:34:222
0.02537955716252327,-0.2216724008321762,9.772649765014648,-0.002333498937755932,-0.006019680851298459,-0.0005213078992014032,-133.8436080296399,-151.05891723506483,0,0.3033921718597412,2019-08-06 15:05:34:225
0.037353307008743286,-0.16659316420555115,9.861255645751953,-0.0028662611929343817,-0.007351587009393233,-0.0010540701868891429,-134.761113805673,-151.6178823389291,0,0.30649662017822266,2019-08-06 15:05:34:228
0.049327053129673004,-0.18096165359020233,9.734333992004395,-0.0007352119771648412,-0.003888631830584663,0.0021425034742187147,-135.65931855979142,-152.16407964927205,0,0.31000614166259766,2019-08-06 15:05:34:232
0.037353307008743286,-0.1378561556339264,9.875624656677246,-0.0033990234481128304,0.0003734663733893835,-0.00025492675535753324,-136.5418679180193,-152.70416599048008,0,0.31334376335144043,2019-08-06 15:05:34:235
0.08285354822874069,-0.16180366277694702,9.882808685302734,-0.002333498937755932,-0.00255672619263854,-0.0015868324420675922,-137.40097482034312,-153.23091329277594,0,0.31647181510925293,2019-08-06 15:05:34:238
0.01819530874490738,-0.16898790001869202,9.861255645751953,-0.0004688308170663259,-0.0022903450650493154,1.1454389502251989e-05,-138.2503873288738,-153.74656705090723,0,0.31999921798706055,2019-08-06 15:05:34:242
0.08285354822874069,-0.19054065644741058,9.84449291229248,-0.0028662611929343817,-0.0028231073202277645,-0.0007876890592999184,-139.07520372593606,-154.2489193047062,0,0.32335400581359863,2019-08-06 15:05:34:245
0.07087980210781097,-0.09714541584253311,9.791808128356934,-0.002333498937755932,-0.002023963937460091,-0.0005213078992014032,-139.88504952285967,-154.75216286035572,0,0.3264808654785156,2019-08-06 15:05:34:248
0.07087980210781097,-0.1833564043045044,9.897176742553711,0.0005966937908184444,-0.0030894884478169893,-0.0010540701868891429,-140.6785324234662,-155.23601039148386,0,0.32999515533447266,2019-08-06 15:05:34:252
0.06130080297589302,-0.15940891206264496,9.839703559875488,6.393147468507523e-05,-0.0030894884478169893,0.0016097412190402653,-141.45724136260012,-155.7127393428999,0,0.3333473205566406,2019-08-06 15:05:34:255
0.02537955716252327,-0.15222465991973877,9.856466293334961,-0.0018007365525403206,-0.0022903450650493154,-0.00025492675535753324,-142.22474396909286,-156.1804722648155,0,0.336472749710083,2019-08-06 15:05:34:258
0.1211695447564125,-0.16659316420555115,9.868440628051758,-0.0018007365525403206,-0.004954156340941561,-0.0021195946972460415,-142.96520846279213,-156.63716696968297,0,0.3399641513824463,2019-08-06 15:05:34:262
0.09722204506397247,-0.17138265073299408,9.892387390136719,-0.002599880065345157,-0.004954156340941561,-0.0039842627204077765,-143.69369542410652,-157.08407588597095,0,0.3433692455291748,2019-08-06 15:05:34:265
0.10919579863548279,-0.18814590573310852,9.959440231323242,-0.002333498937755932,-0.006818824754214785,-0.0021195946972460415,-144.40605793125556,-157.52033847782505,0,0.34650397300720215,2019-08-06 15:05:34:268
0.14511704444885254,-0.1953301578760147,9.868440628051758,-0.0010015931047540657,-0.005220537468530785,-0.0018532135696568165,-145.09997455896502,-157.94703963493137,0,0.3502993583679199,2019-08-06 15:05:34:272
0.10680104792118073,-0.1761721521615982,9.870835304260254,-0.0004688308170663259,-0.004421394085763112,0.0005442166761740764,-145.7848205769944,-158.36756880530226,0,0.3533458709716797,2019-08-06 15:05:34:275
0.13074854016304016,-0.22406715154647827,9.813361167907715,-0.001534355424951096,-0.003888631830584663,0.0002778355485848519,-146.45317344926067,-158.77378755460796,0,0.3564784526824951,2019-08-06 15:05:34:278
0.06369554996490479,-0.19054065644741058,9.861255645751953,-0.002333498937755932,-0.0030894884478169893,0.0013433600914510408,-147.11609997714928,-159.1757134497865,0,0.3599858283996582,2019-08-06 15:05:34:282
0.1355380415916443,-0.13546140491962433,9.849282264709473,-0.0004688308170663259,-0.003622250702995438,0.0002778355485848519,-147.7573263459607,-159.57635144719046,0,0.3633460998535156,2019-08-06 15:05:34:285
0.07087980210781097,-0.21209339797496796,9.889992713928223,0.0021949807514095357,-0.003622250702995438,1.1454389502251989e-05,-148.39333253516145,-159.96063843742309,0,0.3664674758911133,2019-08-06 15:05:34:288
0.08764304965734482,-0.20011965930461884,9.787018775939941,-0.0007352119771648412,-0.0028231073202277645,0.0008105978362725917,-149.01465463124916,-160.33785468463293,0,0.3699359893798828,2019-08-06 15:05:34:292
0.05890605226159096,-0.19772490859031677,9.791808128356934,-0.0028662611929343817,-0.0033558695754062136,-0.0007876890592999184,-149.62682454065995,-160.70741183597013,0,0.3733506202697754,2019-08-06 15:05:34:295
0.09961679577827454,-0.19772490859031677,9.842098236083984,-0.002599880065345157,-0.0028231073202277645,-0.0015868324420675922,-150.22219402278196,-161.06978876648355,0,0.3764798641204834,2019-08-06 15:05:34:298
0.09482730180025101,-0.2096986472606659,9.810966491699219,-0.0010015931047540657,-0.003888631830584663,-0.0026523570824616527,-150.80590737789348,-161.42370638984488,0,0.37999415397644043,2019-08-06 15:05:34:302
0.09482730180025101,-0.2695674002170563,9.83491325378418,0.0005966937908184444,-0.005753299723709235,0.0013433600914510408,-151.37765708604107,-161.76394385160134,0,0.3833487033843994,2019-08-06 15:05:34:305
0.049327053129673004,-0.16180366277694702,9.904361724853516,-0.0007352119771648412,-0.004954156340941561,0.004007171627417612,-151.94352759581807,-162.1098172530223,0,0.3864738941192627,2019-08-06 15:05:34:308
0.11638004332780838,-0.18814590573310852,9.813361167907715,-0.002599880065345157,-0.003622250702995438,0.002941646856986388,-152.49035620771616,-162.4451428227842,0,0.3899729251861572,2019-08-06 15:05:34:312
0.0756693035364151,-0.21927765011787415,9.84449291229248,-0.004198166830880505,-0.0012248205546924172,0.002408884601807939,-153.03150766518968,-162.7699193624403,0,0.3933689594268799,2019-08-06 15:05:34:315
0.056511301547288895,-0.19293540716171265,9.827729225158691,-0.0028662611929343817,-0.005753299723709235,1.1454389502251989e-05,-153.5632696042532,-163.0915200148204,0,0.39652252197265625,2019-08-06 15:05:34:318
0.09243255108594894,-0.16659316420555115,9.878019332885742,-0.002333498937755932,-0.0028231073202277645,0.002941646856986388,-154.08071468523664,-163.40989682817164,0,0.4000997543334961,2019-08-06 15:05:34:322
0.08764304965734482,-0.21927765011787415,9.775045394897461,-0.0004688308170663259,-0.003622250702995438,0.0008105978362725917,-154.58816408902695,-163.7159118524281,0,0.40335607528686523,2019-08-06 15:05:34:325
0.10440629720687866,-0.16180366277694702,9.830123901367188,-0.0004688308170663259,-0.002023963937460091,0.003208027984575613,-155.08387521369414,-164.0226512859574,0,0.4064817428588867,2019-08-06 15:05:34:328
0.06130080297589302,-0.12588241696357727,9.83491325378418,-0.00393178570329128,-0.007351587009393233,0.0042735527550068365,-155.57359650020177,-164.32675164688837,0,0.4100158214569092,2019-08-06 15:05:34:332
0.06369554996490479,-0.13306665420532227,9.810966491699219,-0.00393178570329128,-0.0009584393620846114,0.0005442166761740764,-156.05450557892675,-164.62393913566467,0,0.41335105895996094,2019-08-06 15:05:34:335
0.08524829894304276,-0.13546140491962433,9.882808685302734,-0.0007352119771648412,-0.004155012958173888,0.0018761223466294901,-156.52280129761985,-164.91562539056815,0,0.41647934913635254,2019-08-06 15:05:34:338
0.06130080297589302,-0.16659316420555115,9.878019332885742,-0.0018007365525403206,-0.00255672619263854,0.0026752657293971638,-156.98472972456653,-165.19763359236916,0,0.41999244689941406,2019-08-06 15:05:34:342
0.11159054934978485,-0.14264565706253052,9.875624656677246,-0.0012679742973618717,-0.006818824754214785,0.0016097412190402653,-157.43080365370813,-165.47689152235114,0,0.42334508895874023,2019-08-06 15:05:34:345
0.05411655455827713,-0.12588241696357727,9.928308486938477,-0.0007352119771648412,-0.006286061978887684,0.0002778355485848519,-157.87483756528104,-165.7526961232267,0,0.42647290229797363,2019-08-06 15:05:34:348
0.08764304965734482,-0.1306719183921814,9.94267749786377,0.004059648644534107,-0.0017575828098708665,0.003474409372239163,-158.3068944958454,-166.02338092870062,0,0.4299740791320801,2019-08-06 15:05:34:352
0.03974805399775505,-0.17856690287590027,9.887598037719727,6.393147468507523e-05,-0.005753299723709235,0.0005442166761740764,-158.7350537520559,-166.28223286767462,0,0.4333677291870117,2019-08-06 15:05:34:355
0.003826810047030449,-0.18096165359020233,9.90196704864502,-0.0033990234481128304,-0.0030894884478169893,0.007736507413666756,-159.15936564833828,-166.53504987588795,0,0.436504602432251,2019-08-06 15:05:34:358
0.10919579863548279,-0.1306719183921814,9.803781509399414,0.0011294561110154748,-0.008417111519750132,0.005871839520542184,-159.56175176611993,-166.78929943780005,0,0.44002485275268555,2019-08-06 15:05:34:362
0.04453755542635918,-0.21927765011787415,9.775045394897461,-0.0010015931047540657,-0.0030894884478169893,0.002408884601807939,-159.96470292396026,-167.0276199612256,0,0.44344186782836914,2019-08-06 15:05:34:365
0.037353307008743286,-0.1953301578760147,9.83491325378418,-0.0033990234481128304,-0.006552443626625559,0.007203745158488308,-160.35991632042402,-167.26372010405137,0,0.44654130935668945,2019-08-06 15:05:34:368
0.02537955716252327,-0.21448814868927002,9.899572372436523,0.0011294561110154748,-0.004421394085763112,0.00507269613777451,-160.7489410187161,-167.49383608861322,0,0.4499216079711914,2019-08-06 15:05:34:372
0.056511301547288895,-0.15222465991973877,9.825334548950195,0.0013958372386046994,-0.004155012958173888,0.004806315010185286,-161.1265695600315,-167.72647641109717,0,0.45335865020751953,2019-08-06 15:05:34:375
0.06609030067920685,-0.19054065644741058,9.846887588500977,0.0005966937908184444,-0.004155012958173888,0.004007171627417612,-161.49561712500525,-167.94988062467397,0,0.45648765563964844,2019-08-06 15:05:34:378
0.09243255108594894,-0.16180366277694702,9.815755844116211,-0.001534355424951096,-0.0017575828098708665,0.005605458392952959,-161.85458039614093,-168.17170387065966,0,0.4598710536956787,2019-08-06 15:05:34:382
0.04693230614066124,-0.20490914583206177,9.813361167907715,0.0016622183661939237,-0.0009584393620846114,0.0021425034742187147,-162.2118208236385,-168.38467131829134,0,0.46335840225219727,2019-08-06 15:05:34:385
0.09722204506397247,-0.1833564043045044,9.897176742553711,-0.0007352119771648412,-0.0009584393620846114,0.007203745158488308,-162.5561594235545,-168.59562146948772,0,0.4664945602416992,2019-08-06 15:05:34:388
0.07087980210781097,-0.1570141613483429,9.842098236083984,-0.0007352119771648412,-0.0033558695754062136,0.003474409372239163,-162.89615771364882,-168.80529225683662,0,0.4698173999786377,2019-08-06 15:05:34:392
0.03974805399775505,-0.2096986472606659,9.887598037719727,-0.004198166830880505,-0.0030894884478169893,0.006138220648131409,-163.23301097143948,-169.0040487192531,0,0.4733743667602539,2019-08-06 15:05:34:395
0.06609030067920685,-0.18096165359020233,9.76546573638916,-0.0010015931047540657,-0.0030894884478169893,0.006138220648131409,-163.5600532860801,-169.2025596581457,0,0.4765005111694336,2019-08-06 15:05:34:398
0.06848505139350891,-0.16419841349124908,9.866044998168945,0.000863074918407669,-0.004954156340941561,0.004806315010185286,-163.87996112014676,-169.39960221841258,0,0.47986841201782227,2019-08-06 15:05:34:402
0.04453755542635918,-0.15222465991973877,9.760676383972168,-0.001534355424951096,-0.0017575828098708665,0.004806315010185286,-164.19678806869447,-169.59343898756103,0,0.4833652973175049,2019-08-06 15:05:34:405
0.04693230614066124,-0.20490914583206177,9.715176582336426,-0.0012679742973618717,-0.006286061978887684,0.0042735527550068365,-164.50621221556113,-169.77718176084161,0,0.4864943027496338,2019-08-06 15:05:34:408
0.022984808310866356,-0.18575115501880646,9.813361167907715,-0.004198166830880505,-0.004421394085763112,0.004007171627417612,-164.81257973870842,-169.9591677119259,0,0.48981451988220215,2019-08-06 15:05:34:412
0.04453755542635918,-0.1498299092054367,9.772649765014648,-0.0020671176801295454,-0.0014912016822816417,0.007470126286077531,-165.11080747512764,-170.14200349624264,0,0.493377685546875,2019-08-06 15:05:34:415
-0.000962689402513206,-0.15940891206264496,9.727149963378906,-0.0018007365525403206,-0.004155012958173888,0.00507269613777451,-158.2079767865487,-170.3200703126718,0,0.49649786949157715,2019-08-06 15:05:34:418
0.056511301547288895,-0.14743515849113464,9.866044998168945,-0.0020671176801295454,-0.00255672619263854,0.003474409372239163,-158.63676806383017,-170.4961533463865,0,0.4998805522918701,2019-08-06 15:05:34:422
0.049327053129673004,-0.22406715154647827,9.868440628051758,-0.0010015931047540657,-0.0006920582344953867,0.006670982903309857,-159.05816999113014,-170.66002095246475,0,0.5033531188964844,2019-08-06 15:05:34:425
0.08764304965734482,-0.18575115501880646,9.854071617126465,-0.0012679742973618717,-0.004954156340941561,-0.0013204513144783674,-159.46594469876948,-170.82499962037113,0,0.5064816474914551,2019-08-06 15:05:34:428
0.09003780037164688,-0.25040939450263977,9.851676940917969,-0.0012679742973618717,-0.0022903450650493154,0.004806315010185286,-159.8657161417386,-170.9791371215963,0,0.5098800659179688,2019-08-06 15:05:34:432
0.037353307008743286,-0.12109291553497314,9.801386833190918,-0.0018007365525403206,-0.006019680851298459,0.004806315010185286,-160.2628606651479,-171.1450464771209,0,0.5133535861968994,2019-08-06 15:05:34:435
0.08285354822874069,-0.18575115501880646,9.861255645751953,-0.0018007365525403206,-0.004155012958173888,0.006670982903309857,-160.6472457161952,-171.3002467045313,0,0.5164828300476074,2019-08-06 15:05:34:438
0.07806405425071716,-0.1953301578760147,9.894782066345215,0.0011294561110154748,-0.002023963937460091,0.005605458392952959,-161.0248751997118,-171.451838454354,0,0.5198721885681152,2019-08-06 15:05:34:442
0.08045879751443863,-0.17856690287590027,9.854071617126465,-0.001534355424951096,-0.004687775213352337,0.0037407904998283874,-161.39410554312053,-171.6017388823322,0,0.5233519077301025,2019-08-06 15:05:34:445
0.05890605226159096,-0.19293540716171265,9.878019332885742,-0.003132642320523606,-0.0022903450650493154,0.004007171627417612,-161.75898759272468,-171.74677474061298,0,0.5264811515808105,2019-08-06 15:05:34:448
0.08285354822874069,-0.14504040777683258,9.866044998168945,-0.00393178570329128,-0.005220537468530785,0.002408884601807939,-162.11318012876004,-171.89423770351394,0,0.5299086570739746,2019-08-06 15:05:34:452
0.07806405425071716,-0.14504040777683258,9.851676940917969,-0.003132642320523606,-0.006286061978887684,0.006138220648131409,-162.46061550079813,-172.03887502225942,0,0.5333681106567383,2019-08-06 15:05:34:455
0.013405809178948402,-0.18575115501880646,9.825334548950195,0.000863074918407669,-0.0012248205546924172,0.005339077265363735,-162.80962446473606,-172.17658785369224,0,0.5364975929260254,2019-08-06 15:05:34:458
0.020590057596564293,-0.14025090634822845,9.906756401062012,-0.001534355424951096,-0.0028231073202277645,0.0042735527550068365,-163.15054506443994,-172.31655973438507,0,0.5396850109100342,2019-08-06 15:05:34:461
0.05890605226159096,-0.15461941063404083,9.775045394897461,-0.0012679742973618717,-0.00042567707439687154,0.0002778355485848519,-163.48053948261278,-172.4518382651515,0,0.5434205532073975,2019-08-06 15:05:34:465
0.0014320602640509605,-0.1378561556339264,9.775045394897461,-0.0012679742973618717,-0.0009584393620846114,0.0010769789638618162,-163.81059216651641,-172.58641876308437,0,0.5465543270111084,2019-08-06 15:05:34:468
0.06848505139350891,-0.12588241696357727,9.796597480773926,6.393147468507523e-05,-0.005220537468530785,0.0013433600914510408,-164.12543900269162,-172.7199780319035,0,0.5497293472290039,2019-08-06 15:05:34:472
0.04693230614066124,-0.19293540716171265,9.866044998168945,0.000863074918407669,-0.005753299723709235,1.1454389502251989e-05,-164.43629862908867,-172.84334948069198,0,0.5533838272094727,2019-08-06 15:05:34:475
0.06609030067920685,-0.17138265073299408,9.868440628051758,0.0016622183661939237,-0.004687775213352337,0.0005442166761740764,-164.73907424216068,-172.9668759131571,0,0.5565149784088135,2019-08-06 15:05:34:478
0.08285354822874069,-0.1306719183921814,9.949861526489258,-0.005263691601311728,-0.004954156340941561,0.003474409372239163,-165.0338820639924,-173.09156687268558,0,0.5596380233764648,2019-08-06 15:05:34:481
-0.05125243216753006,-0.11151391267776489,9.894782066345215,0.000863074918407669,-0.008417111519750132,-0.0013204513144783674,-158.13758446555943,-173.21698113904756,0,0.5629291534423828,2019-08-06 15:05:34:485
-0.000962689402513206,-0.15940891206264496,9.784624099731445,0.0013958372386046994,-0.003622250702995438,0.002408884601807939,-151.3742549019372,-173.33424029712626,0,0.5663247108459473,2019-08-06 15:05:34:488
0.015800558030605316,-0.14504040777683258,9.899572372436523,-0.001534355424951096,-0.007085205881804008,0.0018761223466294901,-151.94360219667266,-173.45047778719356,0,0.5696895122528076,2019-08-06 15:05:34:491
0.027774307876825333,-0.18575115501880646,9.851676940917969,-0.001534355424951096,-0.006286061978887684,0.0016097412190402653,-152.50018415347273,-173.5595437389278,0,0.5734162330627441,2019-08-06 15:05:34:495
0.04693230614066124,-0.18096165359020233,9.839703559875488,-0.0028662611929343817,-0.006818824754214785,0.003474409372239163,-153.0435142758438,-173.666776087927,0,0.5765519142150879,2019-08-06 15:05:34:498
-0.000962689402513206,-0.16419841349124908,9.892387390136719,-0.0020671176801295454,-0.003888631830584663,-0.0023859759548724283,-146.38207183165667,-173.7740584489421,0,0.5796830654144287,2019-08-06 15:05:34:501
-0.034489184617996216,-0.1953301578760147,9.866044998168945,-0.0007352119771648412,-0.0009584393620846114,0.0005442166761740764,-139.85821853385494,-173.8757261747623,0,0.5837278366088867,2019-08-06 15:05:34:506
0.049327053129673004,-0.18096165359020233,9.851676940917969,-0.0010015931047540657,-0.003888631830584663,0.0016097412190402653,-140.65457549928945,-173.97697423988467,0,0.5871222019195557,2019-08-06 15:05:34:509
0.022984808310866356,-0.14025090634822845,9.86365032196045,0.0005966937908184444,-0.0028231073202277645,-0.0039842627204077765,-141.43825290346047,-174.08126065302844,0,0.5906600952148438,2019-08-06 15:05:34:512
0.11159054934978485,-0.1498299092054367,9.810966491699219,6.393147468507523e-05,-0.003888631830584663,0.005605458392952959,-142.19574451926175,-174.18214842340225,0,0.5939126014709473,2019-08-06 15:05:34:516
0.10680104792118073,-0.11630341410636902,9.830123901367188,0.0021949807514095357,-0.00255672619263854,-0.0015868324420675922,-142.93883659447724,-174.28541501214633,0,0.5976986885070801,2019-08-06 15:05:34:519
0.015800558030605316,-0.14025090634822845,9.84449291229248,-0.0028662611929343817,-0.004954156340941561,1.1454389502251989e-05,-143.67756645098538,-174.38300388125768,0,0.6000504493713379,2019-08-06 15:05:34:522
0.09722204506397247,-0.16180366277694702,9.849282264709473,-0.001534355424951096,-0.003622250702995438,0.0010769789638618162,-144.39192336897332,-174.47618968981942,0,0.6038894653320312,2019-08-06 15:05:34:526
0.05890605226159096,-0.17856690287590027,9.83491325378418,6.393147468507523e-05,-0.0014912016822816417,0.0002778355485848519,-145.09693403424112,-174.565874773035,0,0.607323169708252,2019-08-06 15:05:34:529
0.06609030067920685,-0.17138265073299408,9.815755844116211,0.000863074918407669,-0.006552443626625559,-0.0023859759548724283,-145.7861743188819,-174.6546973044797,0,0.610328197479248,2019-08-06 15:05:34:532
0.09722204506397247,-0.19772490859031677,9.808571815490723,6.393147468507523e-05,-0.009482635509958379,0.002941646856986388,-146.45745230400684,-174.7385177469021,0,0.6134095191955566,2019-08-06 15:05:34:535
0.0756693035364151,-0.20011965930461884,9.911545753479004,0.00033031263071992917,-0.0030894884478169893,-0.00025492675535753324,-147.11899592420608,-174.82067362918215,0,0.6166322231292725,2019-08-06 15:05:34:538
0.020590057596564293,-0.13306665420532227,9.842098236083984,6.393147468507523e-05,-0.004954156340941561,-0.0047834061031754496,-147.77338855443105,-174.9087788615214,0,0.6196165084838867,2019-08-06 15:05:34:541
0.037353307008743286,-0.11630341410636902,9.830123901367188,0.0005966937908184444,-0.0009584393620846114,-0.0013204513144783674,-148.4133638881902,-174.99717232954035,0,0.6233806610107422,2019-08-06 15:05:34:545
-0.017725937068462372,-0.1378561556339264,9.739123344421387,-0.0007352119771648412,-0.0009584393620846114,-0.0013204513144783674,-141.8470195919204,-175.08088488247196,0,0.6264033317565918,2019-08-06 15:05:34:548
-0.03927868604660034,-0.1498299092054367,9.870835304260254,-0.00020244967322245603,-0.006286061978887684,-0.003717881592818551,-135.41348854559766,-175.1618375554647,0,0.6296629905700684,2019-08-06 15:05:34:551
0.07327455282211304,-0.16659316420555115,9.810966491699219,6.393147468507523e-05,-0.002023963937460091,-0.0015868324420675922,-136.29623288992468,-175.2391581896988,0,0.6334257125854492,2019-08-06 15:05:34:555
0.042142804712057114,-0.18096165359020233,9.849282264709473,-0.002599880065345157,-0.00255672619263854,-0.005049787230764674,-137.16497098013403,-175.31288189346398,0,0.6364500522613525,2019-08-06 15:05:34:558
0.015800558030605316,-0.20011965930461884,9.827729225158691,-0.001534355424951096,-0.0017575828098708665,-0.0013204513144783674,-138.01951364148476,-175.3830179879182,0,0.6396477222442627,2019-08-06 15:05:34:561
0.015800558030605316,-0.12109291553497314,9.86365032196045,-0.0018007365525403206,-0.0033558695754062136,0.0018761223466294901,-138.8565798830226,-175.460910465332,0,0.6434042453765869,2019-08-06 15:05:34:565
0.027774307876825333,-0.17138265073299408,9.86365032196045,0.000863074918407669,-0.0014912016822816417,-0.004250643847997001,-139.67596650988705,-175.531931414044,0,0.6464507579803467,2019-08-06 15:05:34:568
0.05172180384397507,-0.21448814868927002,9.854071617126465,-0.0018007365525403206,-0.00255672619263854,-0.0013204513144783674,-140.47597787184438,-175.59603395189248,0,0.6496181488037109,2019-08-06 15:05:34:571
0.06848505139350891,-0.1833564043045044,9.801386833190918,-0.00020244967322245603,-0.002023963937460091,-0.0015868324420675922,-141.25802307270442,-175.6626360475301,0,0.6533889770507812,2019-08-06 15:05:34:575
0.11638004332780838,-0.21209339797496796,9.796597480773926,-0.001534355424951096,-0.0022903450650493154,0.0018761223466294901,-142.01886229247674,-175.72431861247085,0,0.6564052104949951,2019-08-06 15:05:34:578
-0.000962689402513206,-0.1953301578760147,9.870835304260254,-0.0004688308170663259,-0.004421394085763112,-0.0018532135696568165,-135.57780484461227,-175.7870751400499,0,0.659595251083374,2019-08-06 15:05:34:581
0.08045879751443863,-0.17138265073299408,9.832518577575684,-0.0010015931047540657,-0.003888631830584663,0.0005442166761740764,-136.45604731221985,-175.85114971761644,0,0.663372278213501,2019-08-06 15:05:34:585
0.042142804712057114,-0.18814590573310852,9.825334548950195,0.00033031263071992917,-0.0009584393620846114,-0.0021195946972460415,-137.32184893799956,-175.91224216877154,0,0.6663899421691895,2019-08-06 15:05:34:588
0.07087980210781097,-0.24083039164543152,9.916335105895996,-0.004730929346133278,-0.0033558695754062136,-0.0007876890592999184,-138.16660828910966,-175.9653085733686,0,0.6696434020996094,2019-08-06 15:05:34:591
0.037353307008743286,-0.23364615440368652,9.878019332885742,0.00033031263071992917,-0.004421394085763112,-0.0023859759548724283,-138.99800996114618,-176.01897265414505,0,0.6734013557434082,2019-08-06 15:05:34:595
0.09482730180025101,-0.18575115501880646,9.79420280456543,-0.002599880065345157,-0.0022903450650493154,-0.003717881592818551,-139.8065671410689,-176.07642233603903,0,0.6764202117919922,2019-08-06 15:05:34:598
0.04453755542635918,-0.18096165359020233,9.839703559875488,-0.002599880065345157,-0.009749017157696254,0.0010769789638618162,-140.6034656205133,-176.13334615932231,0,0.679678201675415,2019-08-06 15:05:34:601
0.037353307008743286,-0.19054065644741058,9.825334548950195,-0.0004688308170663259,-0.005220537468530785,0.0005442166761740764,-141.3859370966668,-176.18836048609782,0,0.6834402084350586,2019-08-06 15:05:34:605
0.09003780037164688,-0.15940891206264496,9.892387390136719,0.00033031263071992917,-0.005753299723709235,-0.0021195946972460415,-142.14681252223914,-176.24618529790186,0,0.68646240234375,2019-08-06 15:05:34:608
0.011011059395968914,-0.18096165359020233,9.827729225158691,6.393147468507523e-05,-0.004155012958173888,0.0008105978362725917,-142.9018490227865,-176.30017524156824,0,0.6896486282348633,2019-08-06 15:05:34:611
0.022984808310866356,-0.14025090634822845,9.842098236083984,-0.0033990234481128304,-0.0014912016822816417,0.0002778355485848519,-143.6407844377073,-176.35704225083643,0,0.6938464641571045,2019-08-06 15:05:34:616
0.042142804712057114,-0.17377740144729614,9.866044998168945,-0.00020244967322245603,-0.0014912016822816417,0.0002778355485848519,-144.36279288246752,-176.40968153189158,0,0.6972038745880127,2019-08-06 15:05:34:619
-0.008146938867866993,-0.18814590573310852,9.894782066345215,-0.00020244967322245603,-0.005753299723709235,0.0010769789638618162,-137.87568205177104,-176.4596732357008,0,0.6996755599975586,2019-08-06 15:05:34:621
0.027774307876825333,-0.16659316420555115,9.916335105895996,-0.002599880065345157,-0.004687775213352337,0.004007171627417612,-138.7139708967358,-176.51068241042017,0,0.7034289836883545,2019-08-06 15:05:34:625
0.05172180384397507,-0.18096165359020233,9.78222942352295,-0.0033990234481128304,-0.0022903450650493154,0.0008105978362725917,-139.5332445690852,-176.55869683853035,0,0.7064471244812012,2019-08-06 15:05:34:628
0.08045879751443863,-0.12109291553497314,9.837308883666992,-0.0028662611929343817,-0.004954156340941561,0.0008105978362725917,-140.33231003619628,-176.61289866264272,0,0.7096734046936035,2019-08-06 15:05:34:631
-0.010541687719523907,-0.15222465991973877,9.945072174072266,-0.003132642320523606,-0.0017575828098708665,0.003474409372239163,-133.92650718319774,-176.66244024324766,0,0.7134358882904053,2019-08-06 15:05:34:635
0.05890605226159096,-0.15461941063404083,9.906756401062012,-0.00020244967322245603,-0.0028231073202277645,-0.0007876890592999184,-134.84068460773227,-176.71127370774303,0,0.7164566516876221,2019-08-06 15:05:34:638
-0.005752188619226217,-0.1761721521615982,9.83491325378418,-0.00020244967322245603,-0.003888631830584663,0.0010769789638618162,-128.5438430373433,-176.75648737413837,0,0.719653844833374,2019-08-06 15:05:34:641
0.04693230614066124,-0.12109291553497314,9.79420280456543,-0.004464548218544054,-0.00042567707439687154,0.0026752657293971638,-129.56738521563173,-176.80624712060234,0,0.7234172821044922,2019-08-06 15:05:34:645
0.12356429547071457,-0.14504040777683258,9.84449291229248,6.393147468507523e-05,-0.0028231073202277645,0.0021425034742187147,-130.56117542435425,-176.85325131564747,0,0.7264437675476074,2019-08-06 15:05:34:648
0.022984808310866356,-0.16419841349124908,9.837308883666992,-0.0033990234481128304,-0.00042567707439687154,0.0013433600914510408,-131.54719671605477,-176.89644006031008,0,0.7296979427337646,2019-08-06 15:05:34:651
0.06130080297589302,-0.1570141613483429,9.820545196533203,-0.0004688308170663259,-0.0022903450650493154,0.003208027984575613,-132.50861652173776,-176.94009257955287,0,0.733457088470459,2019-08-06 15:05:34:655
0.006221559830009937,-0.14264565706253052,9.906756401062012,0.000863074918407669,-0.0030894884478169893,0.0013433600914510408,-133.45720014567516,-176.98493852426884,0,0.7364799976348877,2019-08-06 15:05:34:658
0.042142804712057114,-0.12109291553497314,9.770255088806152,-0.0033990234481128304,-0.0033558695754062136,0.0013433600914510408,-134.382512077015,-177.03042889748767,0,0.7396712303161621,2019-08-06 15:05:34:661
0.03495855629444122,-0.16180366277694702,9.95465087890625,-0.0004688308170663259,-0.0030894884478169893,0.003208027984575613,-135.29017953462062,-177.07109629044254,0,0.7434649467468262,2019-08-06 15:05:34:665
0.06848505139350891,-0.1043296679854393,9.854071617126465,-0.002599880065345157,-0.00255672619263854,0.003474409372239163,-136.17597900140706,-177.1171021199293,0,0.7464814186096191,2019-08-06 15:05:34:668
0.030169056728482246,-0.12109291553497314,9.777440071105957,0.0016622183661939237,-0.005753299723709235,0.0018761223466294901,-137.0478931643321,-177.16086643304422,0,0.749671220779419,2019-08-06 15:05:34:671
0.09243255108594894,-0.18575115501880646,9.88520336151123,-0.004464548218544054,-0.0014912016822816417,0.003474409372239163,-137.89590646135844,-177.19517837176502,0,0.7534232139587402,2019-08-06 15:05:34:675
0.1020115464925766,-0.15461941063404083,9.870835304260254,-0.00020244967322245603,-0.003622250702995438,0.0037407904998283874,-138.7255307186153,-177.2332919476937,0,0.7564489841461182,2019-08-06 15:05:34:678
0.056511301547288895,-0.12588241696357727,9.909151077270508,-0.0012679742973618717,-0.00015929593055300162,0.003208027984575613,-139.54445629305602,-177.273840386827,0,0.7596681118011475,2019-08-06 15:05:34:681
0.037353307008743286,-0.17377740144729614,9.882808685302734,-0.0004688308170663259,0.0003734663733893835,0.0016097412190402653,-140.34931487165363,-177.3081171568249,0,0.7634265422821045,2019-08-06 15:05:34:685
0.056511301547288895,-0.15222465991973877,9.875624656677246,-0.005530072728900952,-0.0030894884478169893,0.0008105978362725917,-141.13524689137856,-177.34335406264142,0,0.7664499282836914,2019-08-06 15:05:34:688
0.020590057596564293,-0.1378561556339264,9.760676383972168,-0.0020671176801295454,-0.0030894884478169893,0.002941646856986388,-141.90957002765353,-177.379932479649,0,0.7696471214294434,2019-08-06 15:05:34:691
0.1211695447564125,-0.14504040777683258,9.868440628051758,-0.001534355424951096,-0.004954156340941561,-0.0007876890592999184,-142.65626139811337,-177.4151685419642,0,0.773413896560669,2019-08-06 15:05:34:695
0.011011059395968914,-0.1953301578760147,9.741518020629883,-0.0012679742973618717,-0.0014912016822816417,0.0008105978362725917,-143.40158774584089,-177.44367587395436,0,0.776437520980835,2019-08-06 15:05:34:698
0.011011059395968914,-0.1498299092054367,9.78222942352295,-0.004198166830880505,-0.006552443626625559,-0.0029187382100508774,-144.13106604827968,-177.47648337293376,0,0.7796993255615234,2019-08-06 15:05:34:701
0.03256380558013916,-0.15222465991973877,9.911545753479004,-0.0028662611929343817,-0.0033558695754062136,-0.00025492675535753324,-144.84397160501703,-177.50875079514742,0,0.7834582328796387,2019-08-06 15:05:34:705
0.027774307876825333,-0.12588241696357727,9.911545753479004,-0.004198166830880505,-0.004687775213352337,0.003208027984575613,-145.54308564359548,-177.54331040979375,0,0.786480188369751,2019-08-06 15:05:34:708
0.030169056728482246,-0.19054065644741058,9.899572372436523,-0.0020671176801295454,-0.0030894884478169893,0.0013433600914510408,-146.22817257048132,-177.57001693499646,0,0.7897036075592041,2019-08-06 15:05:34:711
0.0756693035364151,-0.19293540716171265,9.810966491699219,-0.0012679742973618717,-0.004155012958173888,-0.0007876890592999184,-146.89389313775064,-177.5958168052383,0,0.7934670448303223,2019-08-06 15:05:34:715
0.013405809178948402,-0.12827716767787933,9.789413452148438,0.00033031263071992917,-0.005220537468530785,-0.0005213078992014032,-147.55355880631123,-177.62894177426608,0,0.7964937686920166,2019-08-06 15:05:34:718
0.07806405425071716,-0.18575115501880646,9.899572372436523,-0.002599880065345157,-0.00255672619263854,0.0008105978362725917,-148.1929899973038,-177.65439463245508,0,0.7997090816497803,2019-08-06 15:05:34:721
0.011011059395968914,-0.18096165359020233,9.866044998168945,0.0019285994937831485,-0.0022903450650493154,0.0005442166761740764,-148.8273157932742,-177.68074178860198,0,0.8038730621337891,2019-08-06 15:05:34:726
0.03974805399775505,-0.12827716767787933,9.818150520324707,-0.0028662611929343817,-0.0033558695754062136,0.0005442166761740764,-149.44548243150854,-177.71160267527512,0,0.8073115348815918,2019-08-06 15:05:34:729
0.09482730180025101,-0.25040939450263977,9.849282264709473,-0.0020671176801295454,-0.004421394085763112,-0.00025492675535753324,-150.04490035298466,-177.7279437398159,0,0.8098897933959961,2019-08-06 15:05:34:732
0.07327455282211304,-0.14504040777683258,9.856466293334961,-0.0018007365525403206,-0.003888631830584663,1.1454389502251989e-05,-150.63468241318,-177.75615263953907,0,0.8135590553283691,2019-08-06 15:05:34:735
0.05890605226159096,-0.16180366277694702,9.892387390136719,0.00033031263071992917,-0.0033558695754062136,-0.0007876890592999184,-151.21450644510935,-177.78235307320932,0,0.8170554637908936,2019-08-06 15:05:34:739
0.1283537894487381,-0.15461941063404083,9.851676940917969,-0.0012679742973618717,-0.0033558695754062136,0.0005442166761740764,-151.77464160769784,-177.80847862563738,0,0.8204829692840576,2019-08-06 15:05:34:742
0.10440629720687866,-0.16898790001869202,9.858860969543457,0.0005966937908184444,-0.008417111519750132,-0.00025492675535753324,-152.32558056528933,-177.8327707747751,0,0.8235156536102295,2019-08-06 15:05:34:745
0.04693230614066124,-0.1761721521615982,9.928308486938477,-0.004198166830880505,-0.004155012958173888,0.0010769789638618162,-152.87290219277634,-177.85502616699225,0,0.8267300128936768,2019-08-06 15:05:34:749
0.08045879751443863,-0.18575115501880646,9.763071060180664,-0.007394740622025524,-0.0028231073202277645,0.00507269613777451,-153.40551541104446,-177.87485501483775,0,0.8297915458679199,2019-08-06 15:05:34:752
0.06130080297589302,-0.17856690287590027,9.878019332885742,-0.0007352119771648412,-0.004421394085763112,-0.00025492675535753324,-153.92933685300682,-177.89648608660758,0,0.8336465358734131,2019-08-06 15:05:34:755
0.03495855629444122,-0.18814590573310852,9.868440628051758,0.00033031263071992917,-0.002023963937460091,0.0002778355485848519,-154.44629672799348,-177.91677596474491,0,0.8371138572692871,2019-08-06 15:05:34:759
0.056511301547288895,-0.2216724008321762,9.88520336151123,-0.004198166830880505,-0.006286061978887684,0.0016097412190402653,-154.94965762877735,-177.93197171896264,0,0.8404068946838379,2019-08-06 15:05:34:762
0.01819530874490738,-0.21448814868927002,9.839703559875488,-0.0028662611929343817,-0.004155012958173888,0.0026752657293971638,-155.4478385037141,-177.94786960798953,0,0.8434371948242188,2019-08-06 15:05:34:765
0.10919579863548279,-0.23364615440368652,9.86365032196045,-0.0018007365525403206,-0.004954156340941561,0.0005442166761740764,-155.9252977647283,-177.96144668392685,0,0.8466675281524658,2019-08-06 15:05:34:768
0.03495855629444122,-0.20490914583206177,9.880414009094238,-0.003132642320523606,-0.007085205881804008,0.0010769789638618162,-156.40141222407146,-177.9778701963929,0,0.8499984741210938,2019-08-06 15:05:34:772
0.0756693035364151,-0.1498299092054367,9.899572372436523,-0.0010015931047540657,-0.003622250702995438,0.0008105978362725917,-156.86392611417006,-178.00077741433435,0,0.8534352779388428,2019-08-06 15:05:34:775
0.07087980210781097,-0.20011965930461884,9.820545196533203,-0.0036654045757020556,-0.005753299723709235,0.0037407904998283874,-157.31733484758774,-178.0167500204119,0,0.8566615581512451,2019-08-06 15:05:34:778
0.04453755542635918,-0.21448814868927002,9.806177139282227,-0.003132642320523606,-0.007617968136982457,0.0021425034742187147,-157.76449369986437,-178.0308242165915,0,0.8596773147583008,2019-08-06 15:05:34:781
0.09003780037164688,-0.24322514235973358,9.923519134521484,-0.001534355424951096,-0.004421394085763112,0.0042735527550068365,-158.1978714057384,-178.0418023127879,0,0.8634459972381592,2019-08-06 15:05:34:785
0.07087980210781097,-0.1953301578760147,9.882808685302734,-0.0007352119771648412,-0.004155012958173888,0.0005442166761740764,-158.62498943233803,-178.05819565627993,0,0.8664727210998535,2019-08-06 15:05:34:788
0.0756693035364151,-0.22406715154647827,9.818150520324707,0.0005966937908184444,-0.0030894884478169893,0.004007171627417612,-159.043094049335,-178.07099345800563,0,0.8697245121002197,2019-08-06 15:05:34:792
0.06848505139350891,-0.20730389654636383,9.870835304260254,-0.00393178570329128,-0.003888631830584663,0.005339077265363735,-159.45342591276636,-178.08464562006944,0,0.8736443519592285,2019-08-06 15:05:34:795
0.11638004332780838,-0.26477789878845215,9.813361167907715,0.0005966937908184444,-0.00255672619263854,0.002941646856986388,-159.8502704885143,-178.09215800024526,0,0.8771114349365234,2019-08-06 15:05:34:799
0.01819530874490738,-0.25759363174438477,9.79420280456543,0.0005966937908184444,-0.005220537468530785,0.0018761223466294901,-160.25017290215692,-178.10029360015432,0,0.8803977966308594,2019-08-06 15:05:34:802
0.09961679577827454,-0.16180366277694702,9.820545196533203,-0.002599880065345157,-0.004421394085763112,0.004007171627417612,-160.63279304800213,-178.11896653409363,0,0.8834307193756104,2019-08-06 15:05:34:805
0.08524829894304276,-0.1953301578760147,9.949861526489258,-0.0033990234481128304,-0.003888631830584663,0.00800288854125598,-161.00961439547748,-178.13347781716521,0,0.8866598606109619,2019-08-06 15:05:34:808
0.05172180384397507,-0.21448814868927002,9.84449291229248,-0.0010015931047540657,-0.004687775213352337,0.004539933882596061,-161.3825895944477,-178.1456719218023,0,0.8897449970245361,2019-08-06 15:05:34:812
0.11877479404211044,-0.21448814868927002,9.796597480773926,-0.002599880065345157,-0.004954156340941561,0.002941646856986388,-161.73989733377013,-178.15707120583954,0,0.8938717842102051,2019-08-06 15:05:34:816
0.13074854016304016,-0.22406715154647827,9.861255645751953,-0.0028662611929343817,-0.006818824754214785,0.003208027984575613,-162.08853451333474,-178.16731996883914,0,0.8974559307098389,2019-08-06 15:05:34:819
0.09003780037164688,-0.17377740144729614,9.949861526489258,-0.0018007365525403206,-0.004155012958173888,0.0042735527550068365,-162.4358579949442,-178.18372930084863,0,0.8997557163238525,2019-08-06 15:05:34:822
0.12356429547071457,-0.2096986472606659,9.798992156982422,-0.0036654045757020556,-0.005753299723709235,0.005339077265363735,-162.77151731455027,-178.19478762831898,0,0.9033911228179932,2019-08-06 15:05:34:825
0.06609030067920685,-0.2360409051179886,9.839703559875488,-0.0007352119771648412,-0.003622250702995438,0.0013433600914510408,-163.10773470934149,-178.20327514431995,0,0.9066145420074463,2019-08-06 15:05:34:828
0.07087980210781097,-0.2288566529750824,9.923519134521484,0.003260505261766434,-0.0022903450650493154,0.006404601775720633,-163.43700507279,-178.21334273097318,0,0.909649133682251,2019-08-06 15:05:34:831
0.06369554996490479,-0.16659316420555115,9.763071060180664,-0.00020244967322245603,-0.0017575828098708665,0.00906841305161288,-163.7604179918082,-178.22948159343755,0,0.9134082794189453,2019-08-06 15:05:34:835
0.1211695447564125,-0.21209339797496796,9.808571815490723,-0.0012679742973618717,-0.004155012958173888,0.004806315010185286,-164.07034966058754,-178.23990232891882,0,0.916428804397583,2019-08-06 15:05:34:838
0.04693230614066124,-0.20011965930461884,9.866044998168945,0.00033031263071992917,-0.0014912016822816417,0.003474409372239163,-164.38322397908556,-178.25192337827744,0,0.9196255207061768,2019-08-06 15:05:34:841
0.05172180384397507,-0.18096165359020233,9.839703559875488,0.000863074918407669,-0.0054869185961200105,0.00507269613777451,-164.6883756145688,-178.2659953352868,0,0.9233922958374023,2019-08-06 15:05:34:845
0.09961679577827454,-0.20730389654636383,9.894782066345215,-0.00393178570329128,-0.004155012958173888,0.004007171627417612,-164.9823667182803,-178.27600379756535,0,0.9264147281646729,2019-08-06 15:05:34:848
0.027774307876825333,-0.19772490859031677,9.911545753479004,-0.0028662611929343817,-0.004155012958173888,0.006138220648131409,-165.278746351749,-178.28710133534892,0,0.929680585861206,2019-08-06 15:05:34:851
-0.012936437502503395,-0.17856690287590027,9.87322998046875,0.0011294561110154748,-0.007351587009393233,0.004539933882596061,-158.37311718741762,-178.30087558273843,0,0.9334492683410645,2019-08-06 15:05:34:855
0.05172180384397507,-0.14743515849113464,9.808571815490723,0.0016622183661939237,-0.004421394085763112,0.005605458392952959,-158.79886205412527,-178.31791688845348,0,0.9364714622497559,2019-08-06 15:05:34:858
0.06609030067920685,-0.19293540716171265,9.899572372436523,0.000863074918407669,-0.0054869185961200105,0.006404601775720633,-159.2142465992989,-178.32938374914644,0,0.9396786689758301,2019-08-06 15:05:34:861
0.056511301547288895,-0.19772490859031677,9.818150520324707,-0.00020244967322245603,-0.004155012958173888,0.0026752657293971638,-159.6224441702804,-178.33967700949208,0,0.9436302185058594,2019-08-06 15:05:34:865
0.10440629720687866,-0.14504040777683258,9.854071617126465,-0.0049973104737225035,-0.0028231073202277645,0.006670982903309857,-160.01731109162594,-178.35505626403295,0,0.9470582008361816,2019-08-06 15:05:34:869
0.011011059395968914,-0.1833564043045044,9.87322998046875,-0.004730929346133278,-0.00255672619263854,0.0042735527550068365,-160.41521685103933,-178.36580694830718,0,0.9503324031829834,2019-08-06 15:05:34:872
0.06369554996490479,-0.14504040777683258,9.928308486938477,-0.0007352119771648412,-0.0006920582344953867,0.005871839520542184,-160.79944210815134,-178.38162534029203,0,0.95339035987854,2019-08-06 15:05:34:875
0.07087980210781097,-0.22646190226078033,9.796597480773926,-0.0010015931047540657,-0.007351587009393233,0.002941646856986388,-161.173831259243,-178.38732674958445,0,0.9566154479980469,2019-08-06 15:05:34:878
0.09243255108594894,-0.14264565706253052,9.906756401062012,0.0024613618789987605,-0.006286061978887684,0.004806315010185286,-161.5385919986462,-178.4035009781209,0,0.9596505165100098,2019-08-06 15:05:34:881
0.13074854016304016,-0.14504040777683258,9.870835304260254,0.0024613618789987605,-0.004954156340941561,0.005605458392952959,-161.89159694206256,-178.4191136461305,0,0.9634084701538086,2019-08-06 15:05:34:885
0.05411655455827713,-0.13546140491962433,9.842098236083984,-0.0010015931047540657,-0.00255672619263854,0.0005442166761740764,-162.24703047857892,-178.43479065704045,0,0.9664301872253418,2019-08-06 15:05:34:888
0.08764304965734482,-0.14264565706253052,9.83491325378418,-0.00020244967322245603,-0.0022903450650493154,0.0042735527550068365,-162.59146285159431,-178.449438908996,0,0.9696614742279053,2019-08-06 15:05:34:891
0.02537955716252327,-0.16180366277694702,9.916335105895996,-0.001534355424951096,-0.00255672619263854,0.005871839520542184,-162.93615995448846,-178.46142945800764,0,0.9734287261962891,2019-08-06 15:05:34:895
0.07327455282211304,-0.1953301578760147,9.818150520324707,0.000863074918407669,-0.0012248205546924172,0.002941646856986388,-163.26867668820336,-178.4695527228564,0,0.9764540195465088,2019-08-06 15:05:34:898
0.008616309612989426,-0.12827716767787933,9.846887588500977,-0.0004688308170663259,-0.0033558695754062136,0.002408884601807939,-163.60168370699876,-178.4851483039157,0,0.979727029800415,2019-08-06 15:05:34:902
-0.000962689402513206,-0.15940891206264496,9.875624656677246,-0.0010015931047540657,-0.005220537468530785,0.005339077265363735,-156.72854952698722,-178.4967174011837,0,0.9838624000549316,2019-08-06 15:05:34:906
-0.000962689402513206,-0.16659316420555115,9.880414009094238,-0.003132642320523606,-0.005220537468530785,0.0021425034742187147,-149.9930811415035,-178.5068581690571,0,0.9873046875,2019-08-06 15:05:34:909
0.04693230614066124,-0.16180366277694702,9.79420280456543,0.0019285994937831485,-0.0030894884478169893,-0.0021195946972460415,-150.58730809088064,-178.51805424542968,0,0.9897282123565674,2019-08-06 15:05:34:912
0.037353307008743286,-0.13546140491962433,9.820545196533203,0.000863074918407669,-0.0033558695754062136,0.003208027984575613,-151.17051649190876,-178.53206442720935,0,0.9933733940124512,2019-08-06 15:05:34:915
0.03256380558013916,-0.1498299092054367,9.878019332885742,-0.0018007365525403206,-0.0014912016822816417,-0.0007876890592999184,-151.7430590388038,-178.54371774530875,0,0.9965922832489014,2019-08-06 15:05:34:918
0.05411655455827713,-0.15222465991973877,9.779834747314453,-0.0004688308170663259,-0.0054869185961200105,0.0026752657293971638,-152.30093766347022,-178.5549299205456,0,0.9995763301849365,2019-08-06 15:05:34:921
0.030169056728482246,-0.12109291553497314,9.796597480773926,-0.00393178570329128,-0.00042567707439687154,-0.0005213078992014032,-152.8512997574296,-178.56883396527553,0,1.0033528804779053,2019-08-06 15:05:34:925
0.011011059395968914,-0.18096165359020233,9.803781509399414,-0.0036654045757020556,-0.0033558695754062136,-0.0007876890592999184,-153.39241739236627,-178.57568611747308,0,1.0063743591308594,2019-08-06 15:05:34:928
0.011011059395968914,-0.1498299092054367,9.813361167907715,-0.00020244967322245603,-0.004954156340941561,-0.0018532135696568165,-153.9223911740337,-178.58664151701564,0,1.0095813274383545,2019-08-06 15:05:34:931
0.01819530874490738,-0.14504040777683258,9.791808128356934,-0.00393178570329128,-0.005753299723709235,0.0005442166761740764,-154.4405939894266,-178.59710239490238,0,1.0133578777313232,2019-08-06 15:05:34:935
0.09003780037164688,-0.14504040777683258,9.854071617126465,-0.0010015931047540657,-0.004954156340941561,0.0002778355485848519,-154.94047186792355,-178.60812516890803,0,1.0163781642913818,2019-08-06 15:05:34:938
0.03974805399775505,-0.1570141613483429,9.801386833190918,-0.0004688308170663259,-0.0033558695754062136,0.0016097412190402653,-155.43641538588628,-178.61752332178074,0,1.0195622444152832,2019-08-06 15:05:34:941
-0.0033574390690773726,-0.18575115501880646,9.854071617126465,-0.00020244967322245603,-0.0033558695754062136,-0.0010540701868891429,-148.72736849403216,-178.6235319100267,0,1.023324966430664,2019-08-06 15:05:34:945
0.08045879751443863,-0.15461941063404083,9.892387390136719,-0.0020671176801295454,-0.004155012958173888,-0.0023859759548724283,-149.3427942098146,-178.63280021345952,0,1.0263550281524658,2019-08-06 15:05:34:948
0.05890605226159096,-0.16180366277694702,9.957045555114746,0.0013958372386046994,-0.0014912016822816417,-0.0031851193376401022,-149.94888729267558,-178.6417789973949,0,1.029601812362671,2019-08-06 15:05:34:951
0.022984808310866356,-0.12109291553497314,9.894782066345215,0.00033031263071992917,-0.005753299723709235,-0.0005213078992014032,-150.54602713654467,-178.65499041085795,0,1.0333800315856934,2019-08-06 15:05:34:955
0.015800558030605316,-0.16180366277694702,9.875624656677246,0.00033031263071992917,-0.0030894884478169893,-0.0023859759548724283,-151.1327483294789,-178.6631735501354,0,1.0364055633544922,2019-08-06 15:05:34:958
0.027774307876825333,-0.15222465991973877,9.866044998168945,-0.0012679742973618717,-0.005753299723709235,0.0010769789638618162,-151.70577138004288,-178.67198941631557,0,1.0397984981536865,2019-08-06 15:05:34:962
0.11638004332780838,-0.16659316420555115,9.935493469238281,-0.00020244967322245603,-0.004687775213352337,0.0002778355485848519,-152.25716482363498,-178.67929114833478,0,1.0438597202301025,2019-08-06 15:05:34:966
0.011011059395968914,-0.15222465991973877,9.897176742553711,-0.002333498937755932,-0.0030894884478169893,-0.0005213078992014032,-152.81014970266102,-178.68763095730284,0,1.0473008155822754,2019-08-06 15:05:34:969
0.1211695447564125,-0.12348766624927521,9.779834747314453,6.393147468507523e-05,-0.006552443626625559,0.002408884601807939,-153.3388566947835,-178.6994186156007,0,1.0497283935546875,2019-08-06 15:05:34:972
0.08764304965734482,-0.19772490859031677,9.878019332885742,-0.0010015931047540657,-0.0017575828098708665,-0.00025492675535753324,-153.8615539065122,-178.7022914691621,0,1.053363561630249,2019-08-06 15:05:34:975
0.08764304965734482,-0.19054065644741058,9.894782066345215,0.00033031263071992917,-0.006019680851298459,-0.0021195946972460415,-154.37308482381823,-178.70624155484398,0,1.0565834045410156,2019-08-06 15:05:34:978
0.07327455282211304,-0.15461941063404083,9.851676940917969,-0.00020244967322245603,-0.004155012958173888,0.0002778355485848519,-154.87640208742928,-178.71409934824698,0,1.0595757961273193,2019-08-06 15:05:34:981
0.013405809178948402,-0.22406715154647827,9.760676383972168,-0.0020671176801295454,-0.003622250702995438,-0.0005213078992014032,-155.37653401925812,-178.71307898631,0,1.063342809677124,2019-08-06 15:05:34:985
0.04693230614066124,-0.14743515849113464,9.784624099731445,-0.002333498937755932,-0.0030894884478169893,-0.0015868324420675922,-155.86298255790675,-178.72115592660958,0,1.0663657188415527,2019-08-06 15:05:34:988
0.06609030067920685,-0.10672441124916077,9.866044998168945,-0.0007352119771648412,-0.0030894884478169893,-0.0007876890592999184,-156.33748431487393,-178.73420367065538,0,1.069608211517334,2019-08-06 15:05:34:991
0.07327455282211304,-0.15222465991973877,9.858860969543457,0.0011294561110154748,-0.004155012958173888,-0.0034515004652293266,-156.8013370745626,-178.74206706313575,0,1.0733838081359863,2019-08-06 15:05:34:995
0.10680104792118073,-0.19293540716171265,9.755887031555176,-0.0033990234481128304,-0.002023963937460091,0.0016097412190402653,-157.25242275266416,-178.74399008029843,0,1.0764050483703613,2019-08-06 15:05:34:998
0.11159054934978485,-0.19054065644741058,9.868440628051758,-0.0012679742973618717,-0.00015929593055300162,0.0018761223466294901,-157.69438853305604,-178.74676066260344,0,1.0795924663543701,2019-08-06 15:05:35:001
0.10919579863548279,-0.16659316420555115,9.887598037719727,6.393147468507523e-05,-0.0009584393620846114,-0.00025492675535753324,-158.1276424760327,-178.75253367240563,0,1.083376407623291,2019-08-06 15:05:35:005
0.06130080297589302,-0.1306719183921814,9.92591381072998,0.00033031263071992917,0.00010708522141819095,1.1454389502251989e-05,-158.55803095473294,-178.7624544194379,0,1.08640718460083,2019-08-06 15:05:35:008
0.08045879751443863,-0.19054065644741058,9.813361167907715,-0.0012679742973618717,-0.005220537468530785,0.0016097412190402653,-158.9765432658519,-178.76473213823206,0,1.0895867347717285,2019-08-06 15:05:35:011
0.07327455282211304,-0.15940891206264496,9.92591381072998,-0.004730929346133278,-0.0012248205546924172,0.0013433600914510408,-159.3882942975353,-178.77003565220076,0,1.0933518409729004,2019-08-06 15:05:35:015
0.10919579863548279,-0.18814590573310852,9.770255088806152,6.393147468507523e-05,-0.004421394085763112,0.002408884601807939,-159.7869534452888,-178.77258186753832,0,1.0964467525482178,2019-08-06 15:05:35:018
0.08764304965734482,-0.18814590573310852,9.86365032196045,-0.001534355424951096,-0.006286061978887684,-0.0023859759548724283,-160.1799156181828,-178.7750022582892,0,1.099611520767212,2019-08-06 15:05:35:021
0.06130080297589302,-0.2096986472606659,9.767860412597656,-0.001534355424951096,-0.0033558695754062136,0.002408884601807939,-160.56841504476157,-178.77458019998176,0,1.103384017944336,2019-08-06 15:05:35:025
0.07806405425071716,-0.22646190226078033,9.813361167907715,-0.0004688308170663259,-0.0017575828098708665,0.004007171627417612,-160.94763311437197,-178.7725695692421,0,1.1064057350158691,2019-08-06 15:05:35:028
0.05890605226159096,-0.17856690287590027,9.930704116821289,-0.0007352119771648412,-0.007617968136982457,0.002408884601807939,-161.32052477729368,-178.77638424316237,0,1.109581708908081,2019-08-06 15:05:35:031
0.07087980210781097,-0.15222465991973877,9.734333992004395,-0.00393178570329128,-0.004687775213352337,0.0010769789638618162,-161.6847789876767,-178.78210665077285,0,1.1133487224578857,2019-08-06 15:05:35:035
0.09722204506397247,-0.20011965930461884,9.837308883666992,-0.0012679742973618717,-0.0012248205546924172,0.003474409372239163,-162.0395508551274,-178.78294128521978,0,1.1163709163665771,2019-08-06 15:05:35:038
0.049327053129673004,-0.15222465991973877,9.818150520324707,-0.0020671176801295454,-0.006552443626625559,0.006138220648131409,-162.3918129127329,-178.78914177980369,0,1.1196048259735107,2019-08-06 15:05:35:041
0.05172180384397507,-0.21688289940357208,9.758281707763672,-0.004464548218544054,-0.004687775213352337,0.003208027984575613,-162.73690168141957,-178.78694091210374,0,1.1234090328216553,2019-08-06 15:05:35:045
0.07087980210781097,-0.14504040777683258,9.830123901367188,-0.0007352119771648412,-0.003622250702995438,0.0042735527550068365,-163.07328734603232,-178.79417109897594,0,1.126427173614502,2019-08-06 15:05:35:048
0.1618802845478058,-0.18814590573310852,9.827729225158691,-0.0018007365525403206,-0.0028231073202277645,0.004806315010185286,-163.392436454088,-178.79602618949156,0,1.1296544075012207,2019-08-06 15:05:35:051
-0.010541687719523907,-0.2096986472606659,9.815755844116211,0.0013958372386046994,-0.003888631830584663,0.005339077265363735,-156.5249879094655,-178.79592675351958,0,1.133457899093628,2019-08-06 15:05:35:055
0.07806405425071716,-0.1953301578760147,9.775045394897461,-0.002599880065345157,0.00010708522141819095,0.0037407904998283874,-156.98535518235246,-178.79667153818514,0,1.136481761932373,2019-08-06 15:05:35:058
0.10919579863548279,-0.16419841349124908,9.813361167907715,-0.0012679742973618717,-0.0030894884478169893,0.0069373640308990825,-157.43234468884262,-178.8013393230686,0,1.13966965675354,2019-08-06 15:05:35:061
0.03256380558013916,-0.15940891206264496,9.851676940917969,-0.004730929346133278,-0.004687775213352337,0.0042735527550068365,-157.87892080469118,-178.80577382578505,0,1.143428087234497,2019-08-06 15:05:35:065
0.05172180384397507,-0.19293540716171265,9.787018775939941,-0.00020244967322245603,-0.0028231073202277645,0.006404601775720633,-158.31480751498538,-178.80703702864338,0,1.1464502811431885,2019-08-06 15:05:35:068
0.1020115464925766,-0.17856690287590027,9.854071617126465,-0.003132642320523606,-0.0017575828098708665,0.0037407904998283874,-158.73633137241453,-178.8095671238935,0,1.1496689319610596,2019-08-06 15:05:35:071
0.07087980210781097,-0.25040939450263977,9.961835861206055,0.0011294561110154748,-0.0054869185961200105,0.005605458392952959,-159.1522914015185,-178.80481592107947,0,1.1534345149993896,2019-08-06 15:05:35:075
0.042142804712057114,-0.23364615440368652,9.892387390136719,-0.0012679742973618717,-0.007884349264571683,0.005339077265363735,-159.56302570774096,-178.80144429783206,0,1.1564571857452393,2019-08-06 15:05:35:078
0.10440629720687866,-0.16419841349124908,9.875624656677246,-0.002333498937755932,-0.003622250702995438,0.008269269668845206,-159.95900628680312,-178.8059491868508,0,1.1596264839172363,2019-08-06 15:05:35:081
0.04453755542635918,-0.16659316420555115,9.787018775939941,-0.0010015931047540657,-0.0014912016822816417,0.004806315010185286,-160.354296450406,-178.81011487061244,0,1.1633892059326172,2019-08-06 15:05:35:085
0.08045879751443863,-0.1833564043045044,9.746308326721191,-0.0036654045757020556,-0.0009584393620846114,0.004007171627417612,-160.73758840992755,-178.81173589254425,0,1.166407585144043,2019-08-06 15:05:35:088
0.12356429547071457,-0.12588241696357727,9.770255088806152,0.0013958372386046994,-0.0017575828098708665,0.00906841305161288,-161.10802016825312,-178.82099572962704,0,1.1696994304656982,2019-08-06 15:05:35:091
0.07087980210781097,-0.17377740144729614,9.813361167907715,-0.003132642320523606,-0.0030894884478169893,0.009867556954529203,-161.4769299329252,-178.82362338362307,0,1.1734652519226074,2019-08-06 15:05:35:095
0.08285354822874069,-0.13546140491962433,9.842098236083984,0.0016622183661939237,-0.004155012958173888,0.007736507413666756,-161.83704078018906,-178.83166183223193,0,1.176483392715454,2019-08-06 15:05:35:098
0.037353307008743286,-0.1498299092054367,9.803781509399414,-0.0010015931047540657,-0.003622250702995438,0.005605458392952959,-162.19526116849036,-178.83733105143529,0,1.1797912120819092,2019-08-06 15:05:35:102
0.09482730180025101,-0.10193491727113724,9.868440628051758,-0.0033990234481128304,-0.003888631830584663,0.008269269668845206,-162.53945388700873,-178.84796932304675,0,1.1838724613189697,2019-08-06 15:05:35:106
0.12356429547071457,-0.20011965930461884,9.830123901367188,-0.0033990234481128304,-0.005220537468530785,0.0069373640308990825,-162.87325401227167,-178.84702891225325,0,1.1873092651367188,2019-08-06 15:05:35:109
0.030169056728482246,-0.15940891206264496,9.772649765014648,-0.0028662611929343817,-0.004421394085763112,0.004007171627417612,-163.21165127085982,-178.85100907068025,0,1.1897265911102295,2019-08-06 15:05:35:112
0.06609030067920685,-0.20490914583206177,9.84449291229248,-0.007128359494436299,-0.005753299723709235,0.0069373640308990825,-163.5385504691984,-178.84868489518516,0,1.1933634281158447,2019-08-06 15:05:35:115
0.07327455282211304,-0.15461941063404083,9.789413452148438,-0.002599880065345157,-0.004155012958173888,0.006138220648131409,-163.85845009176785,-178.85314277413121,0,1.1965878009796143,2019-08-06 15:05:35:118
0.06369554996490479,-0.19054065644741058,9.839703559875488,-0.0007352119771648412,-0.00255672619263854,0.0037407904998283874,-164.17343458368254,-178.85376935617313,0,1.1995742321014404,2019-08-06 15:05:35:121
0.07806405425071716,-0.14025090634822845,9.880414009094238,-0.0018007365525403206,-0.0030894884478169893,0.0037407904998283874,-164.48025777292648,-178.8600474580568,0,1.2033474445343018,2019-08-06 15:05:35:125
0.06609030067920685,-0.20730389654636383,9.899572372436523,-0.0018007365525403206,-0.004954156340941561,0.006404601775720633,-164.78216121487898,-178.85854795568014,0,1.206371784210205,2019-08-06 15:05:35:128
0.08285354822874069,-0.16898790001869202,9.878019332885742,0.00033031263071992917,-0.003888631830584663,0.004007171627417612,-165.07620049249974,-178.8618351781126,0,1.2096059322357178,2019-08-06 15:05:35:131
0.07806405425071716,-0.13306665420532227,9.803781509399414,-0.0036654045757020556,-0.003622250702995438,0.0037407904998283874,-165.3647835120597,-178.86826812668846,0,1.2133851051330566,2019-08-06 15:05:35:135
0.13793279230594635,-0.20011965930461884,9.791808128356934,-0.0036654045757020556,-0.004954156340941561,0.0026752657293971638,-165.64050621300612,-178.86686441956567,0,1.216407299041748,2019-08-06 15:05:35:138
0.13074854016304016,-0.13306665420532227,9.830123901367188,-0.004198166830880505,-0.0009584393620846114,0.0069373640308990825,-165.91228318803545,-178.8732619730002,0,1.2196071147918701,2019-08-06 15:05:35:141
0.042142804712057114,-0.1570141613483429,9.849282264709473,-0.0012679742973618717,-0.0009584393620846114,0.004539933882596061,-166.1889311292449,-178.8772614754123,0,1.2233850955963135,2019-08-06 15:05:35:145
0.020590057596564293,-0.15461941063404083,9.909151077270508,-0.004730929346133278,-0.005220537468530785,0.0013433600914510408,-166.46188189409503,-178.88103106282665,0,1.2264196872711182,2019-08-06 15:05:35:148
0.12356429547071457,-0.16180366277694702,9.878019332885742,-0.0028662611929343817,-0.0017575828098708665,0.007470126286077531,-166.7179972504051,-178.88413060622577,0,1.2295961380004883,2019-08-06 15:05:35:151
0.037353307008743286,-0.16419841349124908,9.880414009094238,0.0005966937908184444,-0.003622250702995438,0.002941646856986388,-166.97853533998256,-178.887533071496,0,1.2333810329437256,2019-08-06 15:05:35:155
0.04453755542635918,-0.17377740144729614,9.830123901367188,-0.0028662611929343817,-0.006019680851298459,0.002408884601807939,-167.23275181320636,-178.88904080700584,0,1.2364017963409424,2019-08-06 15:05:35:158
0.037353307008743286,-0.19293540716171265,9.832518577575684,-0.002333498937755932,-0.005220537468530785,0.004539933882596061,-167.48280163116488,-178.8883565116742,0,1.2396149635314941,2019-08-06 15:05:35:161
0.06369554996490479,-0.16898790001869202,9.961835861206055,-0.002333498937755932,-0.003622250702995438,0.004007171627417612,-167.7250509459979,-178.89065783485572,0,1.2433900833129883,2019-08-06 15:05:35:165
0.02537955716252327,-0.17138265073299408,9.767860412597656,0.000863074918407669,-0.004155012958173888,0.0021425034742187147,-167.96686750098107,-178.8928874506239,0,1.2464120388031006,2019-08-06 15:05:35:168
0.006221559830009937,-0.1570141613483429,9.772649765014648,-0.00020244967322245603,-0.007617968136982457,-0.0007876890592999184,-168.2054389495192,-178.8965840248682,0,1.2495954036712646,2019-08-06 15:05:35:171
0.022984808310866356,-0.12348766624927521,9.84449291229248,0.00033031263071992917,-0.0012248205546924172,0.003474409372239163,-168.43839491271245,-178.90434898684464,0,1.2533729076385498,2019-08-06 15:05:35:175
0.04693230614066124,-0.20730389654636383,9.796597480773926,-0.0012679742973618717,-0.005753299723709235,0.003208027984575613,-168.663161807817,-178.90180212808653,0,1.2563927173614502,2019-08-06 15:05:35:178
-0.008146938867866993,-0.1498299092054367,9.784624099731445,-0.003132642320523606,-0.004687775213352337,0.0010769789638618162,-161.68998828951302,-178.90564264702667,0,1.2596766948699951,2019-08-06 15:05:35:181
0.030169056728482246,-0.15940891206264496,9.88520336151123,-0.001534355424951096,-0.0028231073202277645,0.0002778355485848519,-162.05209405627028,-178.90872776282885,0,1.263444185256958,2019-08-06 15:05:35:185
-0.015331187285482883,-0.15222465991973877,9.882808685302734,-0.0020671176801295454,-0.004687775213352337,0.0016097412190402653,-155.21203502563128,-178.91255361675897,0,1.2664637565612793,2019-08-06 15:05:35:188
0.020590057596564293,-0.1043296679854393,9.810966491699219,-0.002599880065345157,-0.0054869185961200105,-0.0010540701868891429,-155.70439940376207,-178.92164825250563,0,1.2696771621704102,2019-08-06 15:05:35:191
0.08045879751443863,-0.14264565706253052,9.849282264709473,-0.0028662611929343817,-0.0033558695754062136,0.0026752657293971638,-156.18023322131302,-178.92600757791533,0,1.273484468460083,2019-08-06 15:05:35:195
0.013405809178948402,-0.18575115501880646,9.803781509399414,-0.0036654045757020556,-0.0028231073202277645,-0.0007876890592999184,-156.6545822095225,-178.92515604362669,0,1.2765088081359863,2019-08-06 15:05:35:198
-0.03927868604660034,-0.14504040777683258,9.810966491699219,-0.0033990234481128304,-0.0033558695754062136,0.0010769789638618162,-149.92547366143583,-178.9291011318825,0,1.2797174453735352,2019-08-06 15:05:35:201
0.037353307008743286,-0.14504040777683258,9.904361724853516,0.000863074918407669,-0.0054869185961200105,-0.0018532135696568165,-150.52143462018702,-178.93392940873335,0,1.2836380004882812,2019-08-06 15:05:35:205
0.042142804712057114,-0.19772490859031677,9.83491325378418,-0.006861978366847076,-0.003622250702995438,0.0008105978362725917,-151.10538984104207,-178.93087884223033,0,1.2871084213256836,2019-08-06 15:05:35:209
0.027774307876825333,-0.1498299092054367,9.849282264709473,-0.0018007365525403206,-0.003622250702995438,-0.0029187382100508774,-151.67937981453122,-178.93449714319263,0,1.2904067039489746,2019-08-06 15:05:35:212
0.0014320602640509605,-0.1306719183921814,9.918729782104492,-0.002599880065345157,-0.006818824754214785,0.0010769789638618162,-152.24446626833577,-178.94026900801938,0,1.2934377193450928,2019-08-06 15:05:35:215
0.030169056728482246,-0.18575115501880646,9.858860969543457,-0.0010015931047540657,-0.00255672619263854,-0.0005213078992014032,-152.79560632278393,-178.93969416608698,0,1.2966699600219727,2019-08-06 15:05:35:218
0.030169056728482246,-0.18096165359020233,9.832518577575684,-0.0012679742973618717,-0.0054869185961200105,0.0002778355485848519,-153.33524658045843,-178.93959748021777,0,1.2996938228607178,2019-08-06 15:05:35:221
0.06130080297589302,-0.17138265073299408,9.820545196533203,-0.004198166830880505,-0.0033558695754062136,-0.0015868324420675922,-153.86068039286036,-178.93992344108216,0,1.3034534454345703,2019-08-06 15:05:35:225
0.08764304965734482,-0.16419841349124908,9.784624099731445,-0.0028662611929343817,-0.006019680851298459,-0.0013204513144783674,-154.3721810830524,-178.9414103512537,0,1.306476354598999,2019-08-06 15:05:35:228
0.01819530874490738,-0.18814590573310852,9.791808128356934,-0.0004688308170663259,-0.0054869185961200105,-0.0007876890592999184,-154.88159825355453,-178.94048023001022,0,1.3097541332244873,2019-08-06 15:05:35:232
-0.000962689402513206,-0.18096165359020233,9.84449291229248,-0.0036654045757020556,-0.006019680851298459,-0.0023859759548724283,-148.18268702130854,-178.93976157241573,0,1.3138704299926758,2019-08-06 15:05:35:236
0.0014320602640509605,-0.15222465991973877,9.8229398727417,-0.0020671176801295454,-0.004954156340941561,-0.0018532135696568165,-148.81791118212666,-178.94281118716646,0,1.3173036575317383,2019-08-06 15:05:35:239
0.013405809178948402,-0.15222465991973877,9.849282264709473,-0.00393178570329128,-0.004421394085763112,-0.0015868324420675922,-149.4393838396237,-178.94570384730343,0,1.319758415222168,2019-08-06 15:05:35:242
0.02537955716252327,-0.14504040777683258,10.012125015258789,-0.0012679742973618717,-0.00255672619263854,-0.0034515004652293266,-150.04716995468235,-178.94993204500392,0,1.3233907222747803,2019-08-06 15:05:35:245
0.022984808310866356,-0.17856690287590027,9.858860969543457,-0.0020671176801295454,-0.002023963937460091,-0.0015868324420675922,-150.64318882524336,-178.94980650566322,0,1.3266127109527588,2019-08-06 15:05:35:248
0.03974805399775505,-0.18096165359020233,9.820545196533203,0.00033031263071992917,-0.006019680851298459,-0.0034515004652293266,-151.22466070143022,-178.94975347523112,0,1.3296492099761963,2019-08-06 15:05:35:251
0.049327053129673004,-0.21927765011787415,9.76546573638916,-0.0018007365525403206,-0.004155012958173888,-0.0029187382100508774,-151.79349996144657,-178.944650780777,0,1.333418369293213,2019-08-06 15:05:35:255
0.09003780037164688,-0.2025144100189209,9.798992156982422,-0.0033990234481128304,-0.004954156340941561,-0.0007876890592999184,-152.3462614028245,-178.94150258581456,0,1.3364367485046387,2019-08-06 15:05:35:258
-0.017725937068462372,-0.15940891206264496,9.854071617126465,-0.0028662611929343817,-0.004421394085763112,-0.003717881592818551,-145.70059997037657,-178.9436197088431,0,1.3396492004394531,2019-08-06 15:05:35:261
0.17624878883361816,-0.14264565706253052,9.851676940917969,-0.002599880065345157,-0.0012248205546924172,0.0013433600914510408,-146.36583084999646,-178.9476074418266,0,1.343409538269043,2019-08-06 15:05:35:265
-0.06083143129944801,-0.15940891206264496,10.019309043884277,0.002994124134177209,-0.0030894884478169893,1.1454389502251989e-05,-139.8449478293643,-178.9509326080236,0,1.3464281558990479,2019-08-06 15:05:35:268
0.027774307876825333,-0.2096986472606659,9.952256202697754,-0.0010015931047540657,-0.0006920582344953867,-0.0021195946972460415,-140.644723160545,-178.947587666122,0,1.3497157096862793,2019-08-06 15:05:35:271
0.09243255108594894,-0.23843564093112946,9.96423053741455,-0.001534355424951096,0.00010708522141819095,-0.00025492675535753324,-141.4212225741744,-178.9408824149934,0,1.3536381721496582,2019-08-06 15:05:35:275
0.11159054934978485,-0.15222465991973877,9.899572372436523,-0.00020244967322245603,-0.0017575828098708665,-0.0015868324420675922,-142.17953989921875,-178.944406173825,0,1.3571007251739502,2019-08-06 15:05:35:279
0.21695953607559204,-0.19054065644741058,9.78222942352295,-0.0020671176801295454,-0.004954156340941561,-0.004250643847997001,-142.90962620448227,-178.9428199743531,0,1.3603787422180176,2019-08-06 15:05:35:282
0.03974805399775505,-0.18814590573310852,9.909151077270508,-0.003132642320523606,-0.004954156340941561,0.0018761223466294901,-143.64599459797398,-178.9416758203961,0,1.3634076118469238,2019-08-06 15:05:35:285
0.03256380558013916,-0.17856690287590027,9.789413452148438,-0.0010015931047540657,-0.008150730392160906,-0.0013204513144783674,-144.3677486102398,-178.9417561016665,0,1.3667163848876953,2019-08-06 15:05:35:288
0.09003780037164688,-0.1761721521615982,9.791808128356934,0.0005966937908184444,-0.005753299723709235,0.0005442166761740764,-145.06887536742605,-178.94240793914602,0,1.3697550296783447,2019-08-06 15:05:35:292
0.14511704444885254,-0.16419841349124908,9.72475528717041,0.0021949807514095357,-0.004155012958173888,-0.0007876890592999184,-145.74943631599334,-178.94472202056807,0,1.373882532119751,2019-08-06 15:05:35:296
0.02537955716252327,-0.21927765011787415,9.899572372436523,-0.0033990234481128304,-0.007617968136982457,0.0013433600914510408,-146.4300413557954,-178.93979425196903,0,1.3773155212402344,2019-08-06 15:05:35:299
0.042142804712057114,-0.21688289940357208,9.83491325378418,-0.002599880065345157,-0.007351587009393233,-0.0021195946972460415,-147.09552918973662,-178.93537829936704,0,1.3797407150268555,2019-08-06 15:05:35:302
0.08285354822874069,-0.14025090634822845,9.741518020629883,-0.0033990234481128304,-0.007085205881804008,1.1454389502251989e-05,-147.7424234694818,-178.9394786596694,0,1.3833832740783691,2019-08-06 15:05:35:305
0.01819530874490738,-0.08038216829299927,9.906756401062012,0.0021949807514095357,-0.005220537468530785,0.0005442166761740764,-148.38452629895227,-178.95178840329623,0,1.386603832244873,2019-08-06 15:05:35:308
0.11398529261350632,-0.13306665420532227,9.918729782104492,0.000863074918407669,-0.0028231073202277645,0.0016097412190402653,-149.00318533328849,-178.9575277340126,0,1.389646053314209,2019-08-06 15:05:35:311
0.008616309612989426,-0.12827716767787933,9.906756401062012,-0.005263691601311728,-0.0030894884478169893,0.0005442166761740764,-149.6214692223817,-178.96242293710995,0,1.3934261798858643,2019-08-06 15:05:35:315
-0.017725937068462372,-0.16659316420555115,9.940282821655273,-0.0018007365525403206,-0.004421394085763112,0.0042735527550068365,-143.0300762234727,-178.96356126719587,0,1.3974826335906982,2019-08-06 15:05:35:319
0.1211695447564125,-0.19772490859031677,9.832518577575684,0.0011294561110154748,-0.004421394085763112,-0.0023859759548724283,-143.75465320687113,-178.96142859837212,0,1.4003050327301025,2019-08-06 15:05:35:322
0.0756693035364151,-0.1953301578760147,9.751097679138184,-0.0033990234481128304,-0.0014912016822816417,0.0021425034742187147,-144.47036736142869,-178.9585634672377,0,1.4038946628570557,2019-08-06 15:05:35:326
0.011011059395968914,-0.11151391267776489,9.851676940917969,0.0005966937908184444,-0.004687775213352337,0.003208027984575613,-145.1788555703585,-178.96652665278185,0,1.4070239067077637,2019-08-06 15:05:35:329
0.0014320602640509605,-0.19054065644741058,9.837308883666992,6.393147468507523e-05,-0.004954156340941561,0.0013433600914510408,-145.87426278595555,-178.96501439777566,0,1.4100754261016846,2019-08-06 15:05:35:332
0.10440629720687866,-0.08756642043590546,9.928308486938477,-0.0007352119771648412,-0.006818824754214785,0.0016097412190402653,-146.54325197534206,-178.97544844916112,0,1.4139292240142822,2019-08-06 15:05:35:336
-0.027304936200380325,-0.16419841349124908,9.882808685302734,0.0011294561110154748,-0.00255672619263854,0.002408884601807939,-140.0151016586229,-178.97710172063688,0,1.4170727729797363,2019-08-06 15:05:35:339
0.05172180384397507,-0.22406715154647827,9.801386833190918,-0.002599880065345157,-0.006019680851298459,-0.0005213078992014032,-140.80772699347725,-178.9709247485913,0,1.420107364654541,2019-08-06 15:05:35:342
0.020590057596564293,-0.2025144100189209,9.880414009094238,-0.0020671176801295454,-0.008150730392160906,0.0013433600914510408,-141.58744744789968,-178.96758170026695,0,1.4239027500152588,2019-08-06 15:05:35:346
0.015800558030605316,-0.16659316420555115,9.928308486938477,0.0016622183661939237,-0.006552443626625559,0.0016097412190402653,-142.3527183325295,-178.96929722721055,0,1.4270460605621338,2019-08-06 15:05:35:349
0.05172180384397507,-0.14504040777683258,9.813361167907715,-0.0012679742973618717,-0.0054869185961200105,0.004007171627417612,-143.0986808964964,-178.9727579697029,0,1.4301085472106934,2019-08-06 15:05:35:352
0.042142804712057114,-0.19054065644741058,9.870835304260254,-0.00393178570329128,-0.0009584393620846114,0.0018761223466294901,-143.83161090928107,-178.97034864154637,0,1.433899164199829,2019-08-06 15:05:35:356
0.030169056728482246,-0.15461941063404083,9.796597480773926,-0.0018007365525403206,-0.0022903450650493154,0.0037407904998283874,-144.55104486132993,-178.97253884001623,0,1.4370479583740234,2019-08-06 15:05:35:359
0.09243255108594894,-0.1498299092054367,9.83491325378418,0.0011294561110154748,0.0014389909812741537,0.003474409372239163,-145.24950059400518,-178.97582513231012,0,1.440093755722046,2019-08-06 15:05:35:362
0.03495855629444122,-0.17138265073299408,9.87322998046875,-0.001534355424951096,-0.004687775213352337,0.004007171627417612,-145.93945664202803,-178.97609327566337,0,1.4438798427581787,2019-08-06 15:05:35:366
0.04453755542635918,-0.17856690287590027,9.787018775939941,-0.0036654045757020556,-0.0012248205546924172,0.0037407904998283874,-146.6152383665313,-178.97502430149848,0,1.4469985961914062,2019-08-06 15:05:35:369
0.09482730180025101,-0.21448814868927002,9.825334548950195,-0.003132642320523606,-0.003888631830584663,0.0042735527550068365,-147.2711996927427,-178.9699688166287,0,1.4500885009765625,2019-08-06 15:05:35:372
0.07806405425071716,-0.16659316420555115,9.825334548950195,-0.0018007365525403206,-0.003888631830584663,0.0016097412190402653,-147.9158418438144,-178.9707576232513,0,1.453887701034546,2019-08-06 15:05:35:376
0.07806405425071716,-0.1833564043045044,9.882808685302734,-0.00020244967322245603,-0.00255672619263854,0.007470126286077531,-148.5480239584415,-178.97004905481043,0,1.4570200443267822,2019-08-06 15:05:35:379
0.08764304965734482,-0.16659316420555115,9.87322998046875,-0.0007352119771648412,-0.007617968136982457,0.007470126286077531,-149.1655878897536,-178.9711887991666,0,1.4600679874420166,2019-08-06 15:05:35:382
0.07087980210781097,-0.21448814868927002,9.825334548950195,0.0021949807514095357,-0.005753299723709235,0.005605458392952959,-149.77266218710253,-178.96726761394999,0,1.4642391204833984,2019-08-06 15:05:35:386
0.05172180384397507,-0.1833564043045044,9.90196704864502,-0.0004688308170663259,-0.004155012958173888,0.007736507413666756,-150.3706017850938,-178.96663542882402,0,1.4669036865234375,2019-08-06 15:05:35:389
0.07327455282211304,-0.1833564043045044,9.875624656677246,-0.0010015931047540657,-0.008417111519750132,0.006138220648131409,-150.9533791686673,-178.9658737647287,0,1.4696719646453857,2019-08-06 15:05:35:391
0.03256380558013916,-0.20730389654636383,9.808571815490723,-0.0036654045757020556,-0.0033558695754062136,0.006138220648131409,-151.529770680585,-178.9615365071932,0,1.4735808372497559,2019-08-06 15:05:35:395
-0.000962689402513206,-0.16659316420555115,9.772649765014648,-0.00020244967322245603,-0.0014912016822816417,0.005605458392952959,-144.89901866928457,-178.9627368007544,0,1.4767992496490479,2019-08-06 15:05:35:399
-0.012936437502503395,-0.15940891206264496,9.88520336151123,-0.0004688308170663259,-0.0006920582344953867,0.002941646856986388,-138.40241018429407,-178.96491808567822,0,1.480086326599121,2019-08-06 15:05:35:402
0.06609030067920685,-0.16180366277694702,9.787018775939941,0.00033031263071992917,-0.0022903450650493154,0.009334794699350753,-139.22620463670935,-178.96673709232925,0,1.4833464622497559,2019-08-06 15:05:35:405
0.04693230614066124,-0.16180366277694702,9.878019332885742,-0.00020244967322245603,-0.0022903450650493154,0.004806315010185286,-140.0358229973961,-178.96859721606083,0,1.4865589141845703,2019-08-06 15:05:35:408
0.015800558030605316,-0.15222465991973877,9.88520336151123,6.393147468507523e-05,-0.0012248205546924172,0.007470126286077531,-140.83306913737962,-178.9715911726685,0,1.4895508289337158,2019-08-06 15:05:35:411
0.037353307008743286,-0.1306719183921814,9.825334548950195,0.0013958372386046994,-0.0017575828098708665,0.008269269668845206,-141.61167933859477,-178.9772155689764,0,1.4933199882507324,2019-08-06 15:05:35:415
0.008616309612989426,-0.16180366277694702,9.916335105895996,-0.002599880065345157,-0.005753299723709235,0.006404601775720633,-142.37747398571506,-178.97853406379113,0,1.4963414669036865,2019-08-06 15:05:35:418
0.08764304965734482,-0.10672441124916077,9.808571815490723,-0.0010015931047540657,-0.004954156340941561,0.007470126286077531,-143.11878396895497,-178.9863131890665,0,1.4995827674865723,2019-08-06 15:05:35:421
0.08524829894304276,-0.14264565706253052,9.866044998168945,-0.005796453856490177,-0.004421394085763112,0.004539933882596061,-143.84557113671048,-178.98879301910657,0,1.5033531188964844,2019-08-06 15:05:35:425
-0.008146938867866993,-0.15940891206264496,9.827729225158691,6.393147468507523e-05,-0.0009584393620846114,0.002408884601807939,-137.3694471853083,-178.99044250800023,0,1.5063719749450684,2019-08-06 15:05:35:428
0.06609030067920685,-0.14264565706253052,9.858860969543457,-0.0012679742973618717,-0.004155012958173888,0.003208027984575613,-138.21363380023377,-178.99382815630085,0,1.5095555782318115,2019-08-06 15:05:35:431
-0.017725937068462372,-0.19054065644741058,9.839703559875488,-0.00020244967322245603,-0.0017575828098708665,0.003208027984575613,-131.8510488961918,-178.99172094221117,0,1.513371229171753,2019-08-06 15:05:35:435
-0.017725937068462372,-0.1498299092054367,9.832518577575684,-0.0033990234481128304,-0.004155012958173888,0.00507269613777451,-125.61538655594752,-178.99384765186392,0,1.5164024829864502,2019-08-06 15:05:35:438
0.037353307008743286,-0.14743515849113464,9.830123901367188,-0.002599880065345157,-0.006286061978887684,0.006670982903309857,-126.69759702587467,-178.99631888236414,0,1.519596815109253,2019-08-06 15:05:35:441
0.06609030067920685,-0.18575115501880646,9.796597480773926,-0.0007352119771648412,-0.004421394085763112,0.003208027984575613,-127.75497546113716,-178.99451149187965,0,1.5233795642852783,2019-08-06 15:05:35:445
0.03974805399775505,-0.17138265073299408,9.930704116821289,-0.002333498937755932,-0.002023963937460091,0.004539933882596061,-128.79494575405926,-178.99445097643934,0,1.5264034271240234,2019-08-06 15:05:35:448
0.06369554996490479,-0.09954016655683517,9.851676940917969,-0.003132642320523606,-0.003888631830584663,0.0042735527550068365,-129.81093691309925,-179.00241930431122,0,1.5296146869659424,2019-08-06 15:05:35:451
0.1020115464925766,-0.11630341410636902,9.92591381072998,-0.0007352119771648412,-0.00042567707439687154,0.002408884601807939,-130.80285157018938,-179.00878904041787,0,1.5333845615386963,2019-08-06 15:05:35:455
0.05172180384397507,-0.14743515849113464,9.83491325378418,-0.0018007365525403206,-0.004421394085763112,0.005605458392952959,-131.78001887996612,-179.01113093701863,0,1.536402940750122,2019-08-06 15:05:35:458
0.037353307008743286,-0.1306719183921814,9.770255088806152,-0.00020244967322245603,-0.0033558695754062136,0.0021425034742187147,-132.73943495605997,-179.01554687637804,0,1.5396006107330322,2019-08-06 15:05:35:461
0.037353307008743286,-0.15940891206264496,9.882808685302734,-0.0007352119771648412,-0.00255672619263854,0.004007171627417612,-133.67977202751192,-179.01659783561053,0,1.5433838367462158,2019-08-06 15:05:35:465
0.03256380558013916,-0.13546140491962433,9.818150520324707,-0.0010015931047540657,-0.0030894884478169893,0.0042735527550068365,-134.60185262711838,-179.020286982257,0,1.546400547027588,2019-08-06 15:05:35:468
0.037353307008743286,-0.16180366277694702,9.810966491699219,-0.0007352119771648412,-0.002023963937460091,0.0042735527550068365,-135.5050808144252,-179.02084926853206,0,1.549673318862915,2019-08-06 15:05:35:471
0.013405809178948402,-0.1833564043045044,9.945072174072266,-0.0018007365525403206,-0.004954156340941561,0.0013433600914510408,-136.39238769331274,-179.01892703226486,0,1.553436517715454,2019-08-06 15:05:35:475
0.042142804712057114,-0.12588241696357727,9.849282264709473,0.000863074918407669,-0.0017575828098708665,0.005871839520542184,-137.25933830087956,-179.0240500987773,0,1.5564618110656738,2019-08-06 15:05:35:478
0.006221559830009937,-0.1833564043045044,9.808571815490723,-0.002333498937755932,-0.0030894884478169893,0.004539933882596061,-138.1128545418807,-179.0217198049954,0,1.5597484111785889,2019-08-06 15:05:35:482
0.05172180384397507,-0.21927765011787415,9.923519134521484,-0.005263691601311728,-0.006019680851298459,0.003208027984575613,-138.9432298309134,-179.01474859732474,0,1.5638759136199951,2019-08-06 15:05:35:486
0.037353307008743286,-0.21688289940357208,9.861255645751953,0.0013958372386046994,-0.0033558695754062136,0.004007171627417612,-139.7593778192609,-179.0095241115929,0,1.5673086643218994,2019-08-06 15:05:35:489
0.042142804712057114,-0.1570141613483429,9.813361167907715,-0.0018007365525403206,-0.0028231073202277645,0.003208027984575613,-140.5588856342133,-179.01075581586835,0,1.5697286128997803,2019-08-06 15:05:35:492
0.04453755542635918,-0.18096165359020233,9.880414009094238,-0.0018007365525403206,-0.0033558695754062136,0.0021425034742187147,-141.34185672347257,-179.00918737087278,0,1.5733683109283447,2019-08-06 15:05:35:495
0.09961679577827454,-0.16659316420555115,9.842098236083984,-0.0007352119771648412,-0.003622250702995438,0.0013433600914510408,-142.10276686579186,-179.0094761396853,0,1.576587438583374,2019-08-06 15:05:35:498
0.030169056728482246,-0.11869816482067108,9.930704116821289,-0.0007352119771648412,0.0011726098536849292,0.0021425034742187147,-142.85742730536214,-179.0154670264814,0,1.5795795917510986,2019-08-06 15:05:35:501
0.07087980210781097,-0.21927765011787415,9.83491325378418,-0.0012679742973618717,-0.0030894884478169893,0.0008105978362725917,-143.5913661952436,-179.00934429773343,0,1.583350419998169,2019-08-06 15:05:35:505
0.008616309612989426,-0.16898790001869202,9.866044998168945,-0.0020671176801295454,-0.004155012958173888,0.003208027984575613,-144.31783446760255,-179.00918176201418,0,1.5863664150238037,2019-08-06 15:05:35:508
0.08764304965734482,-0.14025090634822845,9.779834747314453,-0.00393178570329128,-0.00255672619263854,-0.0007876890592999184,-145.02074215089667,-179.01184824512077,0,1.5896170139312744,2019-08-06 15:05:35:511
0.03495855629444122,-0.1043296679854393,9.870835304260254,-0.0010015931047540657,-0.005753299723709235,0.003208027984575613,-145.7150468667172,-179.01928723833726,0,1.593400001525879,2019-08-06 15:05:35:515
0.05890605226159096,-0.18096165359020233,9.796597480773926,-0.0020671176801295454,-0.006552443626625559,-0.0026523570824616527,-146.39274310213202,-179.0173856733572,0,1.5964241027832031,2019-08-06 15:05:35:518
0.042142804712057114,-0.21927765011787415,9.889992713928223,-0.0020671176801295454,-0.006019680851298459,0.004007171627417612,-147.05892387344136,-179.01126389033178,0,1.599623680114746,2019-08-06 15:05:35:521
0.06848505139350891,-0.23364615440368652,9.789413452148438,-0.0004688308170663259,-0.0028231073202277645,0.006670982903309857,-147.70913168691584,-179.0035947979241,0,1.603391170501709,2019-08-06 15:05:35:525
0.09003780037164688,-0.19293540716171265,9.763071060180664,-0.002333498937755932,-0.006818824754214785,0.0021425034742187147,-148.34321002916784,-179.00047968911744,0,1.6064505577087402,2019-08-06 15:05:35:528
0.09243255108594894,-0.17138265073299408,9.827729225158691,0.0021949807514095357,-0.004421394085763112,0.005339077265363735,-148.96477238375388,-179.00088408500665,0,1.6096572875976562,2019-08-06 15:05:35:531
0.08764304965734482,-0.14743515849113464,9.84449291229248,-0.0007352119771648412,-0.0028231073202277645,0.0021425034742187147,-149.57467944225527,-179.0035507799943,0,1.6134169101715088,2019-08-06 15:05:35:535
0.06130080297589302,-0.1833564043045044,9.87322998046875,-0.001534355424951096,-0.0014912016822816417,0.006404601775720633,-150.1758182457573,-179.00194106553042,0,1.6164379119873047,2019-08-06 15:05:35:538
0.1355380415916443,-0.19293540716171265,9.741518020629883,-0.0033990234481128304,-0.0028231073202277645,0.005339077265363735,-150.75584574295738,-178.99859150765423,0,1.6196775436401367,2019-08-06 15:05:35:541
0.05890605226159096,-0.1761721521615982,9.820545196533203,-0.0018007365525403206,-0.003888631830584663,0.00507269613777451,-151.33303359003966,-178.99768456648792,0,1.623441457748413,2019-08-06 15:05:35:545
0.10680104792118073,-0.15940891206264496,9.820545196533203,-0.0020671176801295454,-0.0017575828098708665,0.0037407904998283874,-151.89361287632158,-178.99878084687245,0,1.626465082168579,2019-08-06 15:05:35:548
0.06609030067920685,-0.13546140491962433,9.88520336151123,-0.0012679742973618717,-0.0022903450650493154,0.0037407904998283874,-152.4476659565766,-179.00287432867617,0,1.6296799182891846,2019-08-06 15:05:35:551
0.09722204506397247,-0.16419841349124908,9.810966491699219,-0.0033990234481128304,-0.0054869185961200105,0.0018761223466294901,-152.98620209034343,-179.0029245793333,0,1.6334302425384521,2019-08-06 15:05:35:555
0.1020115464925766,-0.13306665420532227,9.784624099731445,-0.0010015931047540657,-0.00255672619263854,0.004806315010185286,-153.5140979184321,-179.00711323331004,0,1.6364505290985107,2019-08-06 15:05:35:558
0.10919579863548279,-0.28393590450286865,9.813361167907715,-0.0018007365525403206,-0.003888631830584663,0.0037407904998283874,-154.03034797172648,-178.99349243653907,0,1.6397371292114258,2019-08-06 15:05:35:562
0.17145928740501404,-0.20011965930461884,9.803781509399414,-0.0028662611929343817,-0.002023963937460091,0.006670982903309857,-154.52923057049725,-178.98956717975258,0,1.643885612487793,2019-08-06 15:05:35:566
0.13074854016304016,-0.12588241696357727,9.796597480773926,-0.0028662611929343817,-0.006019680851298459,0.004806315010185286,-155.02219500057876,-178.99450065124833,0,1.6473119258880615,2019-08-06 15:05:35:569
0.11159054934978485,-0.17138265073299408,9.84449291229248,-0.0012679742973618717,-0.004155012958173888,0.005339077265363735,-155.50819947065116,-178.99449165755257,0,1.6497244834899902,2019-08-06 15:05:35:572
0.022984808310866356,-0.14025090634822845,9.918729782104492,-0.002333498937755932,-0.006552443626625559,0.005871839520542184,-155.99404083899128,-178.99792272491942,0,1.6533644199371338,2019-08-06 15:05:35:575
0.05890605226159096,-0.15940891206264496,9.839703559875488,-0.003132642320523606,-0.0012248205546924172,0.002408884601807939,-156.46707856292502,-178.99883503412784,0,1.6565842628479004,2019-08-06 15:05:35:578
0.07327455282211304,-0.1570141613483429,9.909151077270508,-0.002599880065345157,-0.005753299723709235,0.007470126286077531,-156.9282853597187,-179.0002603727902,0,1.6596121788024902,2019-08-06 15:05:35:581
0.07327455282211304,-0.21688289940357208,9.8229398727417,-0.0036654045757020556,-0.007884349264571683,0.005339077265363735,-157.3794994944789,-178.9941808918168,0,1.6633896827697754,2019-08-06 15:05:35:585
0.11638004332780838,-0.16419841349124908,9.803781509399414,-0.0033990234481128304,-0.0030894884478169893,0.006138220648131409,-157.81778294745885,-178.99453010890707,0,1.6664109230041504,2019-08-06 15:05:35:588
0.13314329087734222,-0.18814590573310852,9.775045394897461,0.0013958372386046994,-0.004687775213352337,0.0037407904998283874,-158.24496781534054,-178.9928398952651,0,1.6696486473083496,2019-08-06 15:05:35:591
0.037353307008743286,-0.16180366277694702,9.832518577575684,-0.005263691601311728,-0.004954156340941561,0.008269269668845206,-158.6746675724109,-178.99301456297766,0,1.673414707183838,2019-08-06 15:05:35:595
0.06848505139350891,-0.14025090634822845,9.784624099731445,6.393147468507523e-05,-0.005220537468530785,0.004806315010185286,-159.09226789659888,-178.9967409133043,0,1.6764369010925293,2019-08-06 15:05:35:598
0.15230129659175873,-0.2288566529750824,9.734333992004395,-0.00020244967322245603,-0.00255672619263854,0.0026752657293971638,-159.49203458681117,-178.98983381489106,0,1.6796457767486572,2019-08-06 15:05:35:601
0.042142804712057114,-0.21209339797496796,9.798992156982422,0.0005966937908184444,-0.0014912016822816417,0.00800288854125598,-159.89695081761215,-178.9853643239223,0,1.683405876159668,2019-08-06 15:05:35:605
0.06609030067920685,-0.16659316420555115,9.78222942352295,-0.004464548218544054,-0.004687775213352337,0.00507269613777451,-160.2904734309829,-178.98538519947493,0,1.686431884765625,2019-08-06 15:05:35:608
0.09961679577827454,-0.1953301578760147,9.76546573638916,-0.0010015931047540657,-0.0022903450650493154,0.003474409372239163,-160.67255270077007,-178.98257513205488,0,1.6897153854370117,2019-08-06 15:05:35:611
0.05890605226159096,-0.14743515849113464,9.889992713928223,-0.0010015931047540657,-0.0009584393620846114,0.0069373640308990825,-161.0520652240761,-178.98562134963026,0,1.6936414241790771,2019-08-06 15:05:35:615
0.11159054934978485,-0.15940891206264496,9.830123901367188,-0.0004688308170663259,-0.0017575828098708665,0.00507269613777451,-161.4176739329242,-178.9872366726867,0,1.6971092224121094,2019-08-06 15:05:35:619
0.056511301547288895,-0.18096165359020233,9.90196704864502,-0.0036654045757020556,-0.003622250702995438,0.0042735527550068365,-161.78211296468186,-178.98587660621791,0,1.700392246246338,2019-08-06 15:05:35:622
0.015800558030605316,-0.20490914583206177,9.870835304260254,-0.0012679742973618717,-0.004687775213352337,0.007203745158488308,-162.1438387742924,-178.98215862629087,0,1.7034225463867188,2019-08-06 15:05:35:625
0.07087980210781097,-0.10911916196346283,9.868440628051758,-0.00020244967322245603,-0.0033558695754062136,0.00800288854125598,-162.49212163348818,-178.9898083390966,0,1.7066597938537598,2019-08-06 15:05:35:628
0.056511301547288895,-0.14264565706253052,9.825334548950195,0.00033031263071992917,-0.003622250702995438,0.005871839520542184,-162.83507627711103,-178.99343259209016,0,1.709669589996338,2019-08-06 15:05:35:631
0.08764304965734482,-0.1833564043045044,9.854071617126465,0.00033031263071992917,0.0009062286610771233,0.004806315010185286,-163.16837486967745,-178.9923140366898,0,1.713437557220459,2019-08-06 15:05:35:635
0.022984808310866356,-0.21448814868927002,9.73672866821289,-0.0007352119771648412,-0.004155012958173888,0.0042735527550068365,-163.5015946483852,-178.98710351279095,0,1.716470718383789,2019-08-06 15:05:35:638
0.06609030067920685,-0.14743515849113464,9.818150520324707,-0.002333498937755932,-0.00255672619263854,0.007203745158488308,-163.8233908363623,-178.98973663715162,0,1.7196636199951172,2019-08-06 15:05:35:641
0.09243255108594894,-0.19054065644741058,9.842098236083984,-0.00020244967322245603,-0.003888631830584663,0.005605458392952959,-164.1353402017761,-178.98771727111426,0,1.7234246730804443,2019-08-06 15:05:35:645
0.07806405425071716,-0.19772490859031677,9.866044998168945,-0.004464548218544054,-0.003888631830584663,0.002408884601807939,-164.44290676470143,-178.98424314819525,0,1.7264468669891357,2019-08-06 15:05:35:648
0.08045879751443863,-0.16898790001869202,9.839703559875488,-0.0020671176801295454,0.0006398475334878987,0.005339077265363735,-164.7447948656976,-178.98450500769945,0,1.7296791076660156,2019-08-06 15:05:35:651
0.008616309612989426,-0.13306665420532227,9.933098793029785,-0.002599880065345157,0.0011726098536849292,0.00507269613777451,-165.0491513569423,-178.98891851035765,0,1.7334213256835938,2019-08-06 15:05:35:655
0.0756693035364151,-0.13546140491962433,9.787018775939941,-0.0007352119771648412,-0.0022903450650493154,0.006404601775720633,-165.33892017672508,-178.99315588684698,0,1.7364428043365479,2019-08-06 15:05:35:658
0.09961679577827454,-0.11390866339206696,9.882808685302734,-0.0018007365525403206,-0.003622250702995438,0.006138220648131409,-165.6199393926194,-178.9997613872766,0,1.7396492958068848,2019-08-06 15:05:35:661
-0.010541687719523907,-0.18814590573310852,9.916335105895996,-0.0020671176801295454,-0.007351587009393233,0.006404601775720633,-158.7072059619825,-178.99759031005303,0,1.7434110641479492,2019-08-06 15:05:35:665
-0.0033574390690773726,-0.16898790001869202,9.806177139282227,-0.0012679742973618717,-0.004421394085763112,0.005605458392952959,-151.93270483645944,-178.99767822457486,0,1.746429443359375,2019-08-06 15:05:35:668
0.1211695447564125,-0.14264565706253052,9.813361167907715,-0.001534355424951096,-0.002023963937460091,0.002408884601807939,-152.47952854302753,-179.00078556323982,0,1.7497189044952393,2019-08-06 15:05:35:671
0.01819530874490738,-0.13546140491962433,9.818150520324707,0.000863074918407669,-0.0006920582344953867,0.004806315010185286,-153.02766186745578,-179.00515074784317,0,1.7536423206329346,2019-08-06 15:05:35:675
0.06369554996490479,-0.17856690287590027,9.87322998046875,0.00033031263071992917,-0.00255672619263854,0.00800288854125598,-153.55921848045332,-179.00438928354654,0,1.757108211517334,2019-08-06 15:05:35:679
0.07327455282211304,-0.1833564043045044,9.832518577575684,-0.002599880065345157,0.0011726098536849292,0.0037407904998283874,-154.07971091754584,-179.00245537386382,0,1.7603936195373535,2019-08-06 15:05:35:682
0.013405809178948402,-0.17377740144729614,9.909151077270508,6.393147468507523e-05,-0.0028231073202277645,0.005605458392952959,-154.59608467074807,-179.00232324254895,0,1.7634327411651611,2019-08-06 15:05:35:685
0.08285354822874069,-0.16419841349124908,9.839703559875488,-0.0036654045757020556,-0.0009584393620846114,0.0037407904998283874,-155.09434084862326,-179.00249325122402,0,1.7666542530059814,2019-08-06 15:05:35:688
0.09722204506397247,-0.23364615440368652,9.935493469238281,-0.00393178570329128,-0.0033558695754062136,0.005339077265363735,-155.58067323727008,-178.9948351742013,0,1.7696685791015625,2019-08-06 15:05:35:691
0.056511301547288895,-0.19293540716171265,9.904361724853516,-0.0020671176801295454,-0.004421394085763112,0.004007171627417612,-156.06158609736204,-178.99218166876554,0,1.7734367847442627,2019-08-06 15:05:35:695
0.09482730180025101,-0.16180366277694702,9.815755844116211,-0.001534355424951096,-0.0030894884478169893,0.0013433600914510408,-156.52875994905907,-178.9931899513747,0,1.7764596939086914,2019-08-06 15:05:35:698
0.10440629720687866,-0.15940891206264496,9.810966491699219,-0.0004688308170663259,-0.003622250702995438,0.0021425034742187147,-156.98533214258723,-178.99462368953513,0,1.7796971797943115,2019-08-06 15:05:35:701
0.07806405425071716,-0.16659316420555115,9.904361724853516,-0.0018007365525403206,-0.004954156340941561,0.003208027984575613,-157.4355017656088,-178.99506158261934,0,1.7836229801177979,2019-08-06 15:05:35:705
0.1020115464925766,-0.20490914583206177,9.868440628051758,-0.001534355424951096,-0.00255672619263854,0.004007171627417612,-157.87444946517917,-178.9910715063551,0,1.7870862483978271,2019-08-06 15:05:35:709
0.10440629720687866,-0.15461941063404083,9.842098236083984,0.000863074918407669,-0.005220537468530785,0.0010769789638618162,-158.30384324366273,-178.9934082024383,0,1.7903668880462646,2019-08-06 15:05:35:712
0.08045879751443863,-0.18814590573310852,9.837308883666992,-0.0018007365525403206,-0.00042567707439687154,0.002941646856986388,-158.72832185886574,-178.9913201560305,0,1.793393850326538,2019-08-06 15:05:35:715
0.1283537894487381,-0.15222465991973877,9.818150520324707,-0.00020244967322245603,-0.006019680851298459,0.0026752657293971638,-159.1376855782978,-178.99369176928724,0,1.7966187000274658,2019-08-06 15:05:35:718
0.06130080297589302,-0.11630341410636902,9.849282264709473,-0.0018007365525403206,-0.005753299723709235,0.003208027984575613,-159.5468059632997,-178.99997613423625,0,1.7996954917907715,2019-08-06 15:05:35:721
0.12356429547071457,-0.14743515849113464,9.830123901367188,-0.0007352119771648412,-0.0030894884478169893,0.0016097412190402653,-159.9408139154834,-179.00263581947578,0,1.803457260131836,2019-08-06 15:05:35:725
0.11159054934978485,-0.14264565706253052,9.858860969543457,-0.0018007365525403206,-0.004954156340941561,0.0002778355485848519,-160.32818092570486,-179.0056964439092,0,1.8065016269683838,2019-08-06 15:05:35:728
0.06369554996490479,-0.252804160118103,9.842098236083984,-0.001534355424951096,-0.003888631830584663,0.0005442166761740764,-160.71349522553714,-178.99587638119846,0,1.8097355365753174,2019-08-06 15:05:35:732
0.17864353954792023,-0.2288566529750824,9.796597480773926,-0.002333498937755932,0.00010708522141819095,0.002941646856986388,-161.0783564130914,-178.98865268583305,0,1.8138682842254639,2019-08-06 15:05:35:736
0.1020115464925766,-0.16419841349124908,9.849282264709473,0.00033031263071992917,-0.004155012958173888,0.0026752657293971638,-161.44412035023424,-178.98984138595208,0,1.817300796508789,2019-08-06 15:05:35:739
0.11638004332780838,-0.16419841349124908,9.882808685302734,-0.005263691601311728,-0.0017575828098708665,0.0018761223466294901,-161.80150472888272,-178.99029009531452,0,1.819727897644043,2019-08-06 15:05:35:742
0.13793279230594635,-0.15940891206264496,9.90196704864502,0.000863074918407669,-0.0009584393620846114,0.0002778355485848519,-162.14931760472257,-178.99221429961088,0,1.8233633041381836,2019-08-06 15:05:35:745
0.14990654587745667,-0.19772490859031677,9.832518577575684,-0.0020671176801295454,-0.0012248205546924172,-0.0026523570824616527,-162.4886404752696,-178.9889557443222,0,1.8265841007232666,2019-08-06 15:05:35:748
0.12595903873443604,-0.18575115501880646,9.911545753479004,-0.0010015931047540657,-0.0033558695754062136,0.0008105978362725917,-162.82374139385522,-178.9875352180249,0,1.8295793533325195,2019-08-06 15:05:35:751
0.06369554996490479,-0.15940891206264496,9.832518577575684,-0.002333498937755932,-0.004421394085763112,0.0008105978362725917,-163.15890793288585,-178.9887143769518,0,1.8333473205566406,2019-08-06 15:05:35:755
0.14272229373455048,-0.15461941063404083,9.933098793029785,-0.0028662611929343817,-0.00042567707439687154,0.0010769789638618162,-163.47919365790193,-178.99061710975994,0,1.8363733291625977,2019-08-06 15:05:35:758
0.037353307008743286,-0.18814590573310852,9.854071617126465,-0.0007352119771648412,-0.0033558695754062136,0.0010769789638618162,-163.80465694278237,-178.9887947698351,0,1.8396058082580566,2019-08-06 15:05:35:761
0.08764304965734482,-0.19054065644741058,9.9139404296875,-0.0004688308170663259,-0.006286061978887684,0.0005442166761740764,-164.11709940950163,-178.98689818081232,0,1.843386173248291,2019-08-06 15:05:35:765
0.17624878883361816,-0.18096165359020233,9.858860969543457,-0.005263691601311728,-0.004421394085763112,0.0013433600914510408,-164.4135234946918,-178.9852357387851,0,1.8464086055755615,2019-08-06 15:05:35:768
0.13074854016304016,-0.18096165359020233,9.858860969543457,-0.0007352119771648412,-0.0030894884478169893,1.1454389502251989e-05,-164.7095039753793,-178.9843682985122,0,1.849595069885254,2019-08-06 15:05:35:771
0.09722204506397247,-0.18575115501880646,9.79420280456543,-0.0018007365525403206,-0.0030894884478169893,-0.0013204513144783674,-165.0032836788112,-178.9825686043263,0,1.853374719619751,2019-08-06 15:05:35:775
0.10919579863548279,-0.19293540716171265,9.775045394897461,-0.0018007365525403206,-0.004155012958173888,0.0021425034742187147,-165.28970884425118,-178.9799954144977,0,1.8564128875732422,2019-08-06 15:05:35:778
0.06369554996490479,-0.12827716767787933,9.806177139282227,-0.00393178570329128,-0.004155012958173888,0.0002778355485848519,-165.57573117899065,-178.9847057613035,0,1.859586238861084,2019-08-06 15:05:35:781
0.08524829894304276,-0.12348766624927521,9.86365032196045,0.0019285994937831485,-0.0028231073202277645,-0.0026523570824616527,-165.85371464566637,-178.99107492478163,0,1.863361120223999,2019-08-06 15:05:35:785
0.07806405425071716,-0.11630341410636902,9.830123901367188,-0.002599880065345157,-0.0033558695754062136,0.0021425034742187147,-166.12697153613416,-178.99725558532677,0,1.8663804531097412,2019-08-06 15:05:35:788
0.042142804712057114,-0.13546140491962433,9.810966491699219,-0.0010015931047540657,-0.004155012958173888,-0.00025492675535753324,-166.39876107033174,-179.00130915474244,0,1.8695900440216064,2019-08-06 15:05:35:791
0.11398529261350632,-0.2025144100189209,9.84449291229248,-0.0049973104737225035,-0.0028231073202277645,0.0016097412190402653,-166.65692145208575,-178.99665666067858,0,1.8733556270599365,2019-08-06 15:05:35:795
0.13074854016304016,-0.21688289940357208,9.820545196533203,-0.003132642320523606,-0.005753299723709235,0.0021425034742187147,-166.9075522283792,-178.9908895339626,0,1.8763744831085205,2019-08-06 15:05:35:798
0.09482730180025101,-0.16419841349124908,9.868440628051758,0.00033031263071992917,-0.0030894884478169893,0.002941646856986388,-167.15783723274936,-178.9920660373534,0,1.8795623779296875,2019-08-06 15:05:35:801
0.09482730180025101,-0.17377740144729614,9.830123901367188,-0.002333498937755932,-0.005753299723709235,0.0013433600914510408,-167.40240948482656,-178.99147560663118,0,1.8833301067352295,2019-08-06 15:05:35:805
0.11638004332780838,-0.19054065644741058,9.90196704864502,-0.0010015931047540657,-0.0028231073202277645,0.0005442166761740764,-167.64041502040442,-178.98942846487225,0,1.8863499164581299,2019-08-06 15:05:35:808
0.06848505139350891,-0.2216724008321762,9.894782066345215,-0.002599880065345157,-0.0014912016822816417,0.0013433600914510408,-167.87940452952628,-178.98349970587964,0,1.889587163925171,2019-08-06 15:05:35:811
0.03495855629444122,-0.1761721521615982,9.79420280456543,-0.002333498937755932,-0.0054869185961200105,0.0002778355485848519,-168.11656589583816,-178.98272639000083,0,1.8933537006378174,2019-08-06 15:05:35:815
0.08285354822874069,-0.15222465991973877,9.897176742553711,-0.00020244967322245603,-0.00255672619263854,0.0005442166761740764,-168.3442082208083,-178.98541403000036,0,1.896374225616455,2019-08-06 15:05:35:818
