ACCELEROMETER X (m/s²),ACCELEROMETER Y (m/s²),ACCELEROMETER Z (m/s²),GYROSCOPE X (rad/s),GYROSCOPE Y (rad/s),GYROSCOPE Z (rad/s),Time since start in ms ,YYYY-MO-DD HH-MI-SS_SSS,Pitch (Deg),Roll (Deg),Heading (Deg),MagX,MagY,MagZ
0.18575115501880646,0.0541524738073349,9.856964111328125,-0.003718414485110892,-0.00041262439914499955,-0.03612421141859524,0.0,2019-07-25 15:24:09:911,-3.57840816391893,3.5937045992064083,0,-15.44371223449707,22.940658569335938,17.542856216430664
0.23843564093112946,0.058941975235939026,9.742016792297363,-0.003452033357521668,-0.0025436735824052492,-0.044914790189485604,0.009982585906982422,2019-07-25 15:24:09:920,-7.07737355852015,7.11683241288251,0,-15.44371223449707,22.940658569335938,17.542856216430664
0.2096986472606659,0.0541524738073349,9.797096252441406,-0.004517557607804241,-0.0033428169651729235,-0.043316502383652956,0.019997358322143555,2019-07-25 15:24:09:930,-10.50942270769154,10.570702244453344,0,-15.44371223449707,22.940658569335938,17.542856216430664
0.2551988959312439,0.0541524738073349,9.809069633483887,-0.005050319862982691,-0.00041262439914499955,-0.048910509704067226,0.0299985408782959,2019-07-25 15:24:09:940,-13.86919640447101,13.955798144085085,0,-15.143834114074707,22.64078140258789,18.14261245727539
0.21688289940357208,0.037389226257801056,9.782727241516113,-0.0023865085870904443,-0.0009453866868327393,-0.03958716971829571,0.040001630783081055,2019-07-25 15:24:09:951,-17.1658807105578,17.273642990368444,0,-15.143834114074707,22.64078140258789,18.14261245727539
0.2288566529750824,0.015836479142308235,9.730042457580566,-0.00212012745950122,0.0027839492294535677,-0.04864412701603205,0.04998040199279785,2019-07-25 15:24:09:960,-20.397175282484874,20.52749297774607,0,-15.143834114074707,22.64078140258789,18.14261245727539
0.2216724008321762,0.006257480941712856,9.80667495727539,-0.005050319862982691,-0.0014781489420111885,-0.045713934092401924,0.059999942779541016,2019-07-25 15:24:09:971,-23.56250203956164,23.719053217060257,0,-15.143834114074707,22.64078140258789,18.14261245727539
0.26477789878845215,0.018231229856610298,9.780332565307617,-0.0015873652043227706,-0.0020109111971896377,-0.041451836050974335,0.06997895240783691,2019-07-25 15:24:09:980,-26.65911003897238,26.84342552021735,0,-15.143834114074707,22.64078140258789,18.14261245727539
0.23125140368938446,0.018231229856610298,9.770753860473633,-0.0010546029491443213,-0.0006790055592435148,-0.042517362641925835,0.0800168514251709,2019-07-25 15:24:09:991,-29.698428992969685,29.9050132530553,0,-15.143834114074707,22.64078140258789,18.14261245727539
0.24083039164543152,0.02781022898852825,9.74441146850586,-0.0007882218215550968,-0.00041262439914499955,-0.04518117287752078,0.08998322486877441,2019-07-25 15:24:10:000,-32.675914286506114,32.904083688785484,0,-15.143834114074707,22.64078140258789,18.14261245727539
0.21927765011787415,0.058941975235939026,9.840201377868652,-0.0023865085870904443,0.00118566246391822,-0.042517362641925835,0.10000061988830566,2019-07-25 15:24:10:011,-35.59753171187327,35.84048051178084,0,-15.143834114074707,22.64078140258789,18.14261245727539
0.2623831331729889,0.06612621992826462,9.792305946350098,-0.001320984076733546,-0.0060066282410651695,-0.04651307799531825,0.10998415946960449,2019-07-25 15:24:10:020,-38.45151665201226,38.716673304042885,0,-15.143834114074707,22.64078140258789,18.14261245727539
0.21448814868927002,0.013441730290651321,9.840201377868652,-0.005316700990571915,0.0009192813363289952,-0.04038631362121203,0.12001347541809082,2019-07-25 15:24:10:031,-41.25803029094172,41.54376858858949,0,-15.143834114074707,22.64078140258789,18.14261245727539
0.2025144100189209,0.023020729422569275,9.780332565307617,-0.0007882218215550968,0.0006529002087397708,-0.04278374116877181,0.12998223304748535,2019-07-25 15:24:10:040,-44.009510871137365,44.31063719388889,0,-15.143834114074707,22.64078140258789,18.14261245727539
0.19054065644741058,0.020625978708267212,9.770753860473633,-0.004251176740289341,-0.0001462432553011296,-0.04011993093317686,0.1399974822998047,2019-07-25 15:24:10:050,-46.70689460627073,47.02439610548837,0,-15.143834114074707,22.64078140258789,18.14261245727539
0.20490914583206177,0.02541547827422619,9.804280281066895,-0.0039847956127001165,-0.0006790055592435148,-0.043316502383652956,0.14998173713684082,2019-07-25 15:24:10:060,-49.348429940600944,49.683171585857295,0,-15.143834114074707,22.64078140258789,18.14261245727539
0.21448814868927002,0.02541547827422619,9.742016792297363,-0.004251176740289341,-0.0033428169651729235,-0.045713934092401924,0.15998315811157227,2019-07-25 15:24:10:070,-51.93435875557535,52.288906006090826,0,-15.29377269744873,22.490842819213867,18.592430114746094
0.15940891206264496,0.02541547827422619,9.730042457580566,-0.0005218406614565815,0.0009192813363289952,-0.04171821873900951,0.1700131893157959,2019-07-25 15:24:10:081,-54.47741725855577,54.84042858249764,0,-15.29377269744873,22.490842819213867,18.592430114746094
0.18096165359020233,0.06612621992826462,9.739622116088867,1.0921627247073539e-05,0.00118566246391822,-0.04198459726585548,0.18000483512878418,2019-07-25 15:24:10:091,-56.96724550469175,57.33583392024902,0,-15.29377269744873,22.490842819213867,18.592430114746094
0.21927765011787415,0.0733104720711708,9.794700622558594,-0.0002554595176127117,-0.00041262439914499955,-0.04225097995389066,0.1900014877319336,2019-07-25 15:24:10:101,-59.40201922500891,59.7806839508082,0,-15.29377269744873,22.490842819213867,18.592430114746094
0.20011965930461884,0.06852097064256668,9.792305946350098,-0.0018537463319119952,-0.0001462432553011296,-0.03852164312734421,0.1999833583831787,2019-07-25 15:24:10:110,-61.79048172317799,62.17809092809038,0,-15.29377269744873,22.490842819213867,18.592430114746094
0.21448814868927002,0.04696822538971901,9.789911270141602,-0.0029192708422688934,0.0003865190486412555,-0.04464841166263963,0.21000027656555176,2019-07-25 15:24:10:121,-64.1297875219929,64.53067342963385,0,-15.29377269744873,22.490842819213867,18.592430114746094
0.2288566529750824,0.04217872768640518,9.816253662109375,0.0008100650740174133,0.0006529002087397708,-0.045713934092401924,0.22000980377197266,2019-07-25 15:24:10:131,-66.42084762605992,66.834680908391,0,-15.29377269744873,22.490842819213867,18.592430114746094
0.20490914583206177,0.03978397697210312,9.775543212890625,-0.0023865085870904443,-0.002277292454816025,-0.041451836050974335,0.22998285293579102,2019-07-25 15:24:10:140,-68.6671389363992,69.09466014054257,0,-15.29377269744873,22.490842819213867,18.592430114746094
0.21927765011787415,0.04217872768640518,9.823437690734863,-0.0018537463319119952,0.002251186974275118,-0.045713934092401924,0.24000120162963867,2019-07-25 15:24:10:151,-70.86948776610105,71.30888955556053,0,-15.29377269744873,22.490842819213867,18.592430114746094
0.20730389654636383,0.03259972855448723,9.84738540649414,-0.0058494637658990135,0.0003865190486412555,-0.04731222189823458,0.24997949600219727,2019-07-25 15:24:10:160,-73.02819469676288,73.48219556630305,0,-15.29377269744873,22.490842819213867,18.592430114746094
0.22406715154647827,0.044573474675416946,9.852174758911133,0.0008100650740174133,-0.0030764358375836983,-0.04171821873900951,0.26001811027526855,2019-07-25 15:24:10:171,-75.1398397515964,75.60691070133105,0,-15.29377269744873,22.490842819213867,18.592430114746094
0.20490914583206177,0.06133672222495079,9.773148536682129,-0.0023865085870904443,0.0027839492294535677,-0.03772249922442789,0.26998257637023926,2019-07-25 15:24:10:180,-77.21457821600534,77.68891602336224,0,-15.29377269744873,22.490842819213867,18.592430114746094
0.21209339797496796,0.04217872768640518,9.78512191772461,-0.0018537463319119952,0.0049149985102416895,-0.03985354824514169,0.2800006866455078,2019-07-25 15:24:10:191,-79.2482174797351,79.73124103015734,0,-14.094261169433594,23.090599060058594,19.19218635559082
0.24322514235973358,-0.00332151772454381,9.72764778137207,-0.0026528897146796686,-0.00041262439914499955,-0.04278374116877181,0.28998279571533203,2019-07-25 15:24:10:200,-81.2343759363789,74.53849441281942,0,-14.094261169433594,23.090599060058594,19.19218635559082
0.259988397359848,0.0541524738073349,9.780332565307617,-0.0039847956127001165,-0.002277292454816025,-0.04038631362121203,0.3000020980834961,2019-07-25 15:24:10:211,-83.17795280664451,76.64362157474547,0,-14.094261169433594,23.090599060058594,19.19218635559082
0.23364615440368652,0.06373147666454315,9.804280281066895,-0.003452033357521668,0.0003865190486412555,-0.04731222189823458,0.3099992275238037,2019-07-25 15:24:10:220,-85.08730753054978,78.70523812528288,0,-14.094261169433594,23.090599060058594,19.19218635559082
0.23125140368938446,0.04217872768640518,9.76596450805664,-0.0002554595176127117,-0.0006790055592435148,-0.041185453362939155,0.32000064849853516,2019-07-25 15:24:10:231,-86.95805063234968,80.72632770017282,0,-14.094261169433594,23.090599060058594,19.19218635559082
0.2096986472606659,0.06133672222495079,9.804280281066895,-0.0039847956127001165,0.0003865190486412555,-0.041451836050974335,0.32998132705688477,2019-07-25 15:24:10:240,-88.7946005746295,82.70686539218582,0,-14.094261169433594,23.090599060058594,19.19218635559082
0.1761721521615982,0.0541524738073349,9.758779525756836,-0.0007882218215550968,-0.0041419603479405966,-0.04011993093317686,0.3399980068206787,2019-07-25 15:24:10:250,-90.59569437488595,84.64681266954646,0,-14.094261169433594,23.090599060058594,19.19218635559082
0.20011965930461884,0.0733104720711708,9.777937889099121,-0.0047839387353934655,-0.006539390496243618,-0.045980316780437104,0.34998226165771484,2019-07-25 15:24:10:260,-92.35666486163726,86.54796697580583,0,-14.094261169433594,23.090599060058594,19.19218635559082
0.21688289940357208,0.020625978708267212,9.828227996826172,-0.0005218406614565815,-0.0020109111971896377,-0.04065269214805801,0.3600199222564697,2019-07-25 15:24:10:271,-94.08311497681731,88.41489688412032,0,-14.094261169433594,23.090599060058594,19.19218635559082
0.2288566529750824,0.030204977840185165,9.811464309692383,-0.004251176740289341,-0.0009453866868327393,-0.03905440434222536,0.3699798583984375,2019-07-25 15:24:10:280,-95.77419983933805,90.24544867806857,0,-14.094261169433594,23.090599060058594,19.19218635559082
0.24083039164543152,0.051757726818323135,9.78512191772461,-0.0047839387353934655,0.0006529002087397708,-0.03905440434222536,0.37999582290649414,2019-07-25 15:24:10:290,-97.43088556896333,92.0371689830694,0,-14.094261169433594,23.090599060058594,19.19218635559082
0.252804160118103,0.02541547827422619,9.751595497131348,-0.0015873652043227706,-0.0030764358375836983,-0.042517362641925835,0.3899846076965332,2019-07-25 15:24:10:300,-99.05084187071368,93.794329326501,0,-14.094261169433594,23.090599060058594,19.19218635559082
0.2216724008321762,0.013441730290651321,9.856964111328125,-0.0026528897146796686,0.0033167117447063417,-0.04198459726585548,0.40000009536743164,2019-07-25 15:24:10:311,-100.6459241947547,95.51837198145545,0,-14.094261169433594,23.090599060058594,19.19218635559082
0.24561989307403564,0.080494724214077,9.773148536682129,-0.0007882218215550968,0.0006529002087397708,-0.04065269214805801,0.40999937057495117,2019-07-25 15:24:10:321,-102.20457906559119,97.19900918753784,0,-14.394139289855957,21.89108657836914,17.69279670715332
0.20011965930461884,0.05654722452163696,9.758779525756836,-0.0002554595176127117,-0.0009453866868327393,-0.04038631362121203,0.4199960231781006,2019-07-25 15:24:10:330,-103.73646125725465,98.84853246512208,0,-14.394139289855957,21.89108657836914,17.69279670715332
0.1761721521615982,0.0733104720711708,9.773148536682129,-0.0023865085870904443,0.0006529002087397708,-0.04065269214805801,0.42999839782714844,2019-07-25 15:24:10:340,-105.24144452284396,100.46430655926923,0,-14.394139289855957,21.89108657836914,17.69279670715332
0.22406715154647827,-0.0009267681161873043,9.80667495727539,-0.0023865085870904443,-0.0030764358375836983,-0.04518117287752078,0.43999409675598145,2019-07-25 15:24:10:350,-106.70871114047377,94.85646816644059,0,-14.394139289855957,21.89108657836914,17.69279670715332
0.2025144100189209,0.04696822538971901,9.80667495727539,0.0013428273291958624,-0.0033428169651729235,-0.04305012385680698,0.4500162601470947,2019-07-25 15:24:10:361,-108.14899520851642,96.55309491418659,0,-14.394139289855957,21.89108657836914,17.69279670715332
0.20490914583206177,0.08288946747779846,9.74441146850586,-0.005316700990571915,-0.0025436735824052492,-0.04544755140436675,0.4599785804748535,2019-07-25 15:24:10:370,-109.56049922401014,98.21525975276438,0,-14.394139289855957,21.89108657836914,17.69279670715332
0.2025144100189209,0.07570522278547287,9.801885604858398,-0.0023865085870904443,-0.0020109111971896377,-0.04198459726585548,0.4700009822845459,2019-07-25 15:24:10:381,-110.94448546662923,99.84344723583577,0,-14.394139289855957,21.89108657836914,17.69279670715332
0.2288566529750824,0.06373147666454315,9.821043014526367,-0.0007882218215550968,0.0014520435915074442,-0.04065269214805801,0.4799826145172119,2019-07-25 15:24:10:390,-112.29971150417461,101.43958400341607,0,-14.394139289855957,21.89108657836914,17.69279670715332
0.17856690287590027,0.037389226257801056,9.787516593933105,-0.0007882218215550968,-0.0014781489420111885,-0.04624669530728308,0.48998355865478516,2019-07-25 15:24:10:400,-113.63198304829821,103.00685746747487,0,-14.394139289855957,21.89108657836914,17.69279670715332
0.22406715154647827,0.04217872768640518,9.777937889099121,0.000543683913918898,0.0003865190486412555,-0.043316502383652956,0.4999961853027344,2019-07-25 15:24:10:410,-114.93330596198606,104.54147159200159,0,-14.394139289855957,21.89108657836914,17.69279670715332
0.19054065644741058,0.06852097064256668,9.782727241516113,-0.0002554595176127117,-0.0012117678144219638,-0.04225097995389066,0.5100598335266113,2019-07-25 15:24:10:421,-116.21163863962379,106.0427603297495,0,-14.394139289855957,21.89108657836914,17.69279670715332
0.2216724008321762,0.04217872768640518,9.775543212890625,-0.0005218406614565815,-0.00041262439914499955,-0.043316502383652956,0.5200064182281494,2019-07-25 15:24:10:431,-117.46119483110476,107.51725229708906,0,-14.394139289855957,21.89108657836914,17.69279670715332
0.2096986472606659,0.06133672222495079,9.706095695495605,-0.005316700990571915,-0.007072152751422067,-0.04624669530728308,0.53000807762146,2019-07-25 15:24:10:441,-118.68324579899284,108.96265166182386,0,-15.29377269744873,23.690353393554688,18.89230728149414
0.2216724008321762,0.06133672222495079,9.773148536682129,1.0921627247073539e-05,-0.0009453866868327393,-0.04358288507168813,0.5400075912475586,2019-07-25 15:24:10:451,-119.88306312649796,110.3762007727595,0,-15.29377269744873,23.690353393554688,18.89230728149414
0.22646190226078033,0.06133672222495079,9.734832763671875,-0.001320984076733546,-0.0033428169651729235,-0.04651307799531825,0.5500223636627197,2019-07-25 15:24:10:461,-121.05686941942474,111.76219955464802,0,-15.29377269744873,23.690353393554688,18.89230728149414
0.20730389654636383,0.02541547827422619,9.763568878173828,-0.00558308263830979,0.0009192813363289952,-0.0438492677597233,0.5599856376647949,2019-07-25 15:24:10:470,-122.21191943969113,113.12709602548112,0,-15.29377269744873,23.690353393554688,18.89230728149414
0.2360409051179886,0.044573474675416946,9.753990173339844,-0.0005218406614565815,-0.0006790055592435148,-0.04278374116877181,0.5699982643127441,2019-07-25 15:24:10:480,-123.33957422731535,114.45961095553086,0,-15.29377269744873,23.690353393554688,18.89230728149414
0.22646190226078033,0.044573474675416946,9.809069633483887,-0.00798051278661281,-0.0014781489420111885,-0.04624669530728308,0.5799987316131592,2019-07-25 15:24:10:490,-124.44550168133723,115.76969286419249,0,-15.29377269744873,23.690353393554688,18.89230728149414
0.22646190226078033,0.0541524738073349,9.739622116088867,0.0021419707119635363,-0.004674722603119046,-0.041451836050974335,0.5900173187255859,2019-07-25 15:24:10:501,-125.52732233533119,117.04672281217096,0,-15.29377269744873,23.690353393554688,18.89230728149414
0.19054065644741058,0.02781022898852825,9.813858985900879,-0.00212012745950122,0.0009192813363289952,-0.04038631362121203,0.5999796390533447,2019-07-25 15:24:10:510,-126.59504442741631,118.3037270653638,0,-15.29377269744873,23.690353393554688,18.89230728149414
0.21209339797496796,0.06852097064256668,9.773148536682129,0.000543683913918898,0.0003865190486412555,-0.042517362641925835,0.6100013256072998,2019-07-25 15:24:10:521,-127.63849668925023,119.5293125344423,0,-15.29377269744873,23.690353393554688,18.89230728149414
0.16419841349124908,0.05654722452163696,9.792305946350098,-0.004517557607804241,-0.0014781489420111885,-0.04544755140436675,0.6199846267700195,2019-07-25 15:24:10:530,-128.6656851305398,120.73464145251609,0,-15.29377269744873,23.690353393554688,18.89230728149414
0.1761721521615982,0.04217872768640518,9.78512191772461,-0.0005218406614565815,-0.002277292454816025,-0.042517362641925835,0.6300003528594971,2019-07-25 15:24:10:541,-129.67046178918528,121.91530266324598,0,-15.29377269744873,23.690353393554688,18.89230728149414
0.16659316420555115,0.03499447554349899,9.797096252441406,-0.0007882218215550968,0.003583092872295566,-0.03612421141859524,0.6399977207183838,2019-07-25 15:24:10:550,-130.65958026404837,123.07334597387468,0,-15.29377269744873,23.690353393554688,18.89230728149414
0.1953301578760147,0.044573474675416946,9.789911270141602,-0.007181369403845137,0.0014520435915074442,-0.04091907483609319,0.6499974727630615,2019-07-25 15:24:10:560,-131.62434346804798,124.21069396491623,0,-15.29377269744873,23.690353393554688,18.89230728149414
0.22406715154647827,0.06852097064256668,9.777937889099121,-0.0005218406614565815,-0.001744530069600413,-0.03958716971829571,0.6599986553192139,2019-07-25 15:24:10:570,-132.56462220228732,125.31874301834159,0,-14.54407787322998,24.14017105102539,18.742368698120117
0.20730389654636383,0.05654722452163696,9.830622673034668,-0.0015873652043227706,0.0003865190486412555,-0.04091907483609319,0.6700024604797363,2019-07-25 15:24:10:581,-133.4893858819465,126.40666839389719,0,-14.54407787322998,24.14017105102539,18.742368698120117
0.21209339797496796,0.0733104720711708,9.76596450805664,0.0008100650740174133,-0.001744530069600413,-0.041451836050974335,0.679995059967041,2019-07-25 15:24:10:590,-134.39373670282427,127.46947859326656,0,-14.54407787322998,24.14017105102539,18.742368698120117
0.25759363174438477,0.020625978708267212,9.852174758911133,-0.0023865085870904443,-0.0025436735824052492,-0.04225097995389066,0.6900186538696289,2019-07-25 15:24:10:601,-135.27447619964713,128.5190331811365,0,-14.54407787322998,24.14017105102539,18.742368698120117
0.19054065644741058,0.06133672222495079,9.780332565307617,0.0008100650740174133,-0.0001462432553011296,-0.04278374116877181,0.699993371963501,2019-07-25 15:24:10:610,-136.14658283867055,129.54101237583606,0,-14.54407787322998,24.14017105102539,18.742368698120117
0.2288566529750824,0.02781022898852825,9.770753860473633,-0.0007882218215550968,0.0017184247190966692,-0.04438202897460446,0.709998607635498,2019-07-25 15:24:10:620,-136.99778114177514,130.54737336618464,0,-14.54407787322998,24.14017105102539,18.742368698120117
0.2480146437883377,0.03499447554349899,9.751595497131348,-0.0018537463319119952,-0.0006790055592435148,-0.04864412701603205,0.7199916839599609,2019-07-25 15:24:10:630,-137.8283064604748,131.5333538509578,0,-14.54407787322998,24.14017105102539,18.742368698120117
0.21688289940357208,0.030204977840185165,9.761174201965332,-0.003452033357521668,-0.003609198092762148,-0.03958716971829571,0.7300148010253906,2019-07-25 15:24:10:641,-138.64425225075203,132.50108365684954,0,-14.54407787322998,24.14017105102539,18.742368698120117
0.25040939450263977,0.044573474675416946,9.792305946350098,-0.0029192708422688934,-0.0001462432553011296,-0.042517362641925835,0.7399895191192627,2019-07-25 15:24:10:650,-139.44198826544135,133.44748096340766,0,-14.54407787322998,24.14017105102539,18.742368698120117
0.2480146437883377,0.030204977840185165,9.82583236694336,-0.0002554595176127117,-0.0014781489420111885,-0.04731222189823458,0.7500002384185791,2019-07-25 15:24:10:661,-140.223399622367,134.3751523615895,0,-14.54407787322998,24.14017105102539,18.742368698120117
0.23364615440368652,0.037389226257801056,9.83541202545166,-0.00212012745950122,0.0017184247190966692,-0.041451836050974335,0.7599964141845703,2019-07-25 15:24:10:670,-140.99267935591973,135.2844831414372,0,-14.54407787322998,24.14017105102539,18.742368698120117
0.2288566529750824,0.044573474675416946,9.720463752746582,-0.0031856519698581177,0.002251186974275118,-0.04411564628656928,0.7699935436248779,2019-07-25 15:24:10:680,-141.74711522037572,136.17532711130895,0,-14.54407787322998,24.14017105102539,18.742368698120117
0.23125140368938446,0.023020729422569275,9.770753860473633,-0.003452033357521668,0.00012013789667006295,-0.04065269214805801,0.7800188064575195,2019-07-25 15:24:10:691,-142.48512440406475,137.0510639079732,0,-15.29377269744873,22.790719985961914,19.19218635559082
0.19772490859031677,0.05654722452163696,9.773148536682129,-0.0002554595176127117,-0.004674722603119046,-0.04358288507168813,0.7899835109710693,2019-07-25 15:24:10:700,-143.2096259652154,137.9035553950517,0,-15.29377269744873,22.790719985961914,19.19218635559082
0.16419841349124908,0.02541547827422619,9.70370101928711,-0.00212012745950122,-0.001744530069600413,-0.043316502383652956,0.8000004291534424,2019-07-25 15:24:10:711,-143.92506380342758,138.7436754283886,0,-15.29377269744873,22.790719985961914,19.19218635559082
0.18096165359020233,0.02541547827422619,9.782727241516113,-0.006648607148666687,0.0019848058466858938,-0.04411564628656928,0.8099830150604248,2019-07-25 15:24:10:720,-144.62648023344556,139.569551526198,0,-15.29377269744873,22.790719985961914,19.19218635559082
0.21209339797496796,0.03499447554349899,9.770753860473633,-0.0026528897146796686,-0.004674722603119046,-0.037988881912463066,0.8199946880340576,2019-07-25 15:24:10:730,-145.3064522722206,140.37554768824492,0,-15.29377269744873,22.790719985961914,19.19218635559082
0.20730389654636383,0.02781022898852825,9.76596450805664,-0.0018537463319119952,-0.002810054709994474,-0.0438492677597233,0.8300175666809082,2019-07-25 15:24:10:741,-145.97442086981803,141.16581681305715,0,-15.29377269744873,22.790719985961914,19.19218635559082
0.19293540716171265,0.03259972855448723,9.773148536682129,-0.004251176740289341,-0.0068057716238328425,-0.03878802581537939,0.8400027751922607,2019-07-25 15:24:10:751,-146.62849766007682,141.94106162553496,0,-15.29377269744873,22.790719985961914,19.19218635559082
0.1953301578760147,0.020625978708267212,9.780332565307617,0.003740257607536046,0.0027839492294535677,-0.042517362641925835,0.8500077724456787,2019-07-25 15:24:10:761,-147.27460879747903,142.69772254858754,0,-15.29377269744873,22.790719985961914,19.19218635559082
0.21448814868927002,0.05654722452163696,9.80667495727539,-0.0026528897146796686,-0.0009453866868327393,-0.04198459726585548,0.86000657081604,2019-07-25 15:24:10:771,-147.90352678416943,143.4386500102169,0,-15.29377269744873,22.790719985961914,19.19218635559082
0.18096165359020233,0.023020729422569275,9.809069633483887,-0.0023865085870904443,-0.00787129665433839,-0.04544755140436675,0.8700289726257324,2019-07-25 15:24:10:781,-148.51988871224407,144.16853070943804,0,-15.29377269744873,22.790719985961914,19.19218635559082
0.17377740144729614,-0.0009267681161873043,9.749200820922852,-0.006382226021077464,0.00012013789667006295,-0.041185453362939155,0.8799924850463867,2019-07-25 15:24:10:790,-149.1291346137656,137.68883956254913,0,-15.29377269744873,22.790719985961914,19.19218635559082
0.19293540716171265,0.07809997349977493,9.792305946350098,0.0029411142247683726,-0.002277292454816025,-0.04411564628656928,0.8899960517883301,2019-07-25 15:24:10:800,-149.72269799527533,138.52427152642116,0,-15.29377269744873,22.790719985961914,19.19218635559082
0.18814590573310852,0.04936297610402107,9.811464309692383,-0.0029192708422688934,0.0019848058466858938,-0.04305012385680698,0.9000003337860107,2019-07-25 15:24:10:811,-150.30738744601982,139.34966073660573,0,-15.29377269744873,22.790719985961914,19.19218635559082
0.23125140368938446,0.023020729422569275,9.746806144714355,-0.00212012745950122,-0.0006790055592435148,-0.04411564628656928,0.9099807739257812,2019-07-25 15:24:10:820,-150.87367644368211,140.16114913868464,0,-14.993894577026367,22.490842819213867,18.592430114746094
0.19293540716171265,0.003862731158733368,9.75638484954834,-0.0026528897146796686,0.0009192813363289952,-0.04198459726585548,0.9200172424316406,2019-07-25 15:24:10:831,-151.43406310464985,140.9589674932907,0,-14.993894577026367,22.490842819213867,18.592430114746094
0.2551988959312439,0.018231229856610298,9.780332565307617,-0.0031856519698581177,-0.002810054709994474,-0.04411564628656928,0.9299805164337158,2019-07-25 15:24:10:840,-151.97391612359263,141.7394342483227,0,-14.993894577026367,22.490842819213867,18.592430114746094
0.19054065644741058,0.03978397697210312,9.782727241516113,0.0018755895843743117,0.0038494739998847904,-0.04038631362121203,0.9399974346160889,2019-07-25 15:24:10:850,-152.5142864658748,142.49893050578515,0,-14.993894577026367,22.490842819213867,18.592430114746094
0.21927765011787415,0.06133672222495079,9.794700622558594,-0.00212012745950122,0.002251186974275118,-0.03958716971829571,0.9499833583831787,2019-07-25 15:24:10:860,-153.0396132365845,143.2429647691296,0,-14.993894577026367,22.490842819213867,18.592430114746094
0.22406715154647827,0.0541524738073349,9.799490928649902,-0.0029192708422688934,0.0003865190486412555,-0.043316502383652956,0.9599978923797607,2019-07-25 15:24:10:870,-153.5528413125188,143.9734147006811,0,-14.993894577026367,22.490842819213867,18.592430114746094
0.21209339797496796,0.018231229856610298,9.801885604858398,-0.0023865085870904443,-0.0014781489420111885,-0.042517362641925835,0.969998836517334,2019-07-25 15:24:10:880,-154.056162953357,144.6931551863945,0,-14.993894577026367,22.490842819213867,18.592430114746094
0.23364615440368652,0.07091572135686874,9.789911270141602,-0.007447750531434362,-0.0001462432553011296,-0.042517362641925835,0.9799928665161133,2019-07-25 15:24:10:890,-154.54761438165306,145.39517090094415,0,-14.993894577026367,22.490842819213867,18.592430114746094
0.21448814868927002,0.03259972855448723,9.794700622558594,1.0921627247073539e-05,-0.0033428169651729235,-0.04065269214805801,0.990004301071167,2019-07-25 15:24:10:901,-155.02969326705542,146.0834474035611,0,-14.993894577026367,22.490842819213867,18.592430114746094
0.19293540716171265,0.04696822538971901,9.782727241516113,-0.0031856519698581177,0.00012013789667006295,-0.04038631362121203,0.9999799728393555,2019-07-25 15:24:10:910,-155.50656982310457,146.75806118621603,0,-14.993894577026367,22.490842819213867,18.592430114746094
0.23125140368938446,0.03978397697210312,9.816253662109375,-0.0029192708422688934,-0.0014781489420111885,-0.04278374116877181,1.0100185871124268,2019-07-25 15:24:10:921,-155.96861474430366,147.41990123981552,0,-14.993894577026367,22.490842819213867,18.592430114746094
0.23364615440368652,0.06612621992826462,9.763568878173828,-0.0005218406614565815,-0.0012117678144219638,-0.043316502383652956,1.0199835300445557,2019-07-25 15:24:10:930,-156.42114743771327,148.06403431843853,0,-14.993894577026367,22.490842819213867,18.592430114746094
0.24322514235973358,0.04936297610402107,9.746806144714355,-0.0026528897146796686,-0.0020109111971896377,-0.043316502383652956,1.0299994945526123,2019-07-25 15:24:10:941,-156.8630039253891,148.69844213171544,0,-15.29377269744873,23.090599060058594,17.39291763305664
0.21927765011787415,0.020625978708267212,9.809069633483887,-0.0039847956127001165,0.0027839492294535677,-0.04225097995389066,1.0399835109710693,2019-07-25 15:24:10:950,-157.30169233399116,149.3242976046417,0,-15.29377269744873,23.090599060058594,17.39291763305664
0.25759363174438477,0.03978397697210312,9.763568878173828,-0.0002554595176127117,-0.0020109111971896377,-0.04225097995389066,1.0500030517578125,2019-07-25 15:24:10:961,-157.7243013141849,149.93328609401203,0,-15.29377269744873,23.090599060058594,17.39291763305664
0.1953301578760147,0.06373147666454315,9.775543212890625,-0.0031856519698581177,-0.00041262439914499955,-0.04225097995389066,1.0599987506866455,2019-07-25 15:24:10:970,-158.1466896171782,150.52893767196508,0,-15.29377269744873,23.090599060058594,17.39291763305664
0.21927765011787415,0.04696822538971901,9.753990173339844,-0.006382226021077464,-0.0030764358375836983,-0.04198459726585548,1.0700020790100098,2019-07-25 15:24:10:981,-158.55627105725273,151.1164258570063,0,-15.29377269744873,23.090599060058594,17.39291763305664
0.19293540716171265,0.05654722452163696,9.763568878173828,-0.005316700990571915,-0.005207484858297496,-0.04358288507168813,1.079979658126831,2019-07-25 15:24:10:990,-158.95958699581703,151.69043929309635,0,-15.29377269744873,23.090599060058594,17.39291763305664
0.16659316420555115,0.03259972855448723,9.758779525756836,-0.0010546029491443213,-0.004674722603119046,-0.04544755140436675,1.0900022983551025,2019-07-25 15:24:11:001,-159.35820431570588,152.2533960275126,0,-15.29377269744873,23.090599060058594,17.39291763305664
0.20011965930461884,0.05654722452163696,9.823437690734863,-0.0007882218215550968,-0.0006790055592435148,-0.04198459726585548,1.0999870300292969,2019-07-25 15:24:11:010,-159.74731858508898,152.80217378912474,0,-15.29377269744873,23.090599060058594,17.39291763305664
0.2096986472606659,0.04217872768640518,9.818648338317871,0.0013428273291958624,-0.0068057716238328425,-0.04171821873900951,1.1100115776062012,2019-07-25 15:24:11:021,-160.1240715948219,153.3404518987256,0,-15.29377269744873,23.090599060058594,17.39291763305664
0.20490914583206177,0.037389226257801056,9.842596054077148,-0.0010546029491443213,0.00118566246391822,-0.04065269214805801,1.1199865341186523,2019-07-25 15:24:11:030,-160.4984013220778,153.86988054905174,0,-15.29377269744873,23.090599060058594,17.39291763305664
0.2360409051179886,0.03259972855448723,9.789911270141602,-0.0018537463319119952,-0.0001462432553011296,-0.04464841166263963,1.1299841403961182,2019-07-25 15:24:11:040,-160.8607278076859,154.38970775926822,0,-15.29377269744873,23.090599060058594,17.39291763305664
0.25040939450263977,0.015836479142308235,9.782727241516113,-0.005316700990571915,0.0006529002087397708,-0.042517362641925835,1.1399791240692139,2019-07-25 15:24:11:050,-161.21455396418594,154.90304239692233,0,-15.29377269744873,23.090599060058594,17.39291763305664
0.23125140368938446,0.03259972855448723,9.780332565307617,-0.003452033357521668,0.002251186974275118,-0.04038631362121203,1.1500294208526611,2019-07-25 15:24:11:061,-161.5644436886716,155.40311006730147,0,-15.29377269744873,23.090599060058594,17.39291763305664
0.20490914583206177,0.058941975235939026,9.746806144714355,-0.003452033357521668,0.00118566246391822,-0.04624669530728308,1.1600000858306885,2019-07-25 15:24:11:071,-161.9097313347047,155.89005086761375,0,-14.244200706481934,22.940658569335938,19.342124938964844
0.2288566529750824,0.05654722452163696,9.720463752746582,-0.0005218406614565815,-0.002810054709994474,-0.04091907483609319,1.1700096130371094,2019-07-25 15:24:11:081,-162.2429831388737,156.3658770389705,0,-14.244200706481934,22.940658569335938,19.342124938964844
0.21927765011787415,0.03259972855448723,9.758779525756836,-0.0015873652043227706,-0.0025436735824052492,-0.04091907483609319,1.180009126663208,2019-07-25 15:24:11:091,-162.57095113469785,156.8356227797404,0,-14.244200706481934,22.940658569335938,19.342124938964844
0.2288566529750824,0.06133672222495079,9.74441146850586,0.0013428273291958624,-0.0006790055592435148,-0.04464841166263963,1.190009593963623,2019-07-25 15:24:11:101,-162.89224287653408,157.2909433611228,0,-14.244200706481934,22.940658569335938,19.342124938964844
0.23125140368938446,0.023020729422569275,9.75638484954834,-0.005050319862982691,-0.0038755792203513722,-0.04544755140436675,1.200026273727417,2019-07-25 15:24:11:111,-163.20506219604687,157.74526112542338,0,-14.244200706481934,22.940658569335938,19.342124938964844
0.19772490859031677,0.04217872768640518,9.792305946350098,-0.005050319862982691,0.0006529002087397708,-0.04438202897460446,1.2099940776824951,2019-07-25 15:24:11:120,-163.51819134658652,158.1882467105459,0,-14.244200706481934,22.940658569335938,19.342124938964844
0.21448814868927002,0.015836479142308235,9.777937889099121,0.0018755895843743117,-0.00041262439914499955,-0.04358288507168813,1.2199954986572266,2019-07-25 15:24:11:130,-163.82246310661282,158.6215725470747,0,-14.244200706481934,22.940658569335938,19.342124938964844
0.21927765011787415,0.06612621992826462,9.804280281066895,-0.0018537463319119952,-0.0001462432553011296,-0.04305012385680698,1.229999303817749,2019-07-25 15:24:11:141,-164.12030699249,159.04245371145566,0,-14.244200706481934,22.940658569335938,19.342124938964844
0.1833564043045044,0.051757726818323135,9.792305946350098,-0.0018537463319119952,0.0009192813363289952,-0.04198459726585548,1.2399795055389404,2019-07-25 15:24:11:150,-164.41696177307466,159.45658671428538,0,-14.244200706481934,22.940658569335938,19.342124938964844
0.21448814868927002,0.04696822538971901,9.818648338317871,-0.0039847956127001165,0.00118566246391822,-0.042517362641925835,1.2500255107879639,2019-07-25 15:24:11:161,-164.70426282908858,159.8642212012222,0,-14.244200706481934,22.940658569335938,19.342124938964844
0.1953301578760147,0.06373147666454315,9.813858985900879,-0.003452033357521668,-0.0020109111971896377,-0.04065269214805801,1.260040044784546,2019-07-25 15:24:11:171,-164.98624208581188,160.26143640286193,0,-14.244200706481934,22.940658569335938,19.342124938964844
0.23843564093112946,0.02781022898852825,9.770753860473633,-0.00558308263830979,-0.002277292454816025,-0.0481113658011509,1.2700045108795166,2019-07-25 15:24:11:181,-165.2572848696079,160.65606984927052,0,-14.244200706481934,22.940658569335938,19.342124938964844
0.17377740144729614,0.044573474675416946,9.830622673034668,-0.0031856519698581177,-0.002810054709994474,-0.04225097995389066,1.2800071239471436,2019-07-25 15:24:11:191,-165.5303065046283,161.0395419463985,0,-14.993894577026367,23.090599060058594,18.89230728149414
0.17377740144729614,0.02541547827422619,9.713279724121094,-0.0047839387353934655,0.0006529002087397708,-0.047844983113115726,1.2900090217590332,2019-07-25 15:24:11:201,-165.79956799825447,161.41843943060314,0,-14.993894577026367,23.090599060058594,18.89230728149414
0.2288566529750824,0.07091572135686874,9.782727241516113,-0.0005218406614565815,-0.001744530069600413,-0.03985354824514169,1.3000292778015137,2019-07-25 15:24:11:211,-166.05579249713045,161.78205756603222,0,-14.993894577026367,23.090599060058594,18.89230728149414
0.20730389654636383,0.051757726818323135,9.809069633483887,-0.006115844893488239,-0.002810054709994474,-0.046779460683353424,1.3099820613861084,2019-07-25 15:24:11:220,-166.30889219439803,162.14378785153454,0,-14.993894577026367,23.090599060058594,18.89230728149414
0.20011965930461884,0.080494724214077,9.777937889099121,-0.004251176740289341,-0.001744530069600413,-0.03718973800954674,1.3200032711029053,2019-07-25 15:24:11:231,-166.55828317336187,162.49387090218374,0,-14.993894577026367,23.090599060058594,18.89230728149414
0.19772490859031677,0.03259972855448723,9.799490928649902,-0.0029192708422688934,-0.0038755792203513722,-0.03745612069758192,1.329984188079834,2019-07-25 15:24:11:240,-166.80182746033995,162.84181744720968,0,-14.993894577026367,23.090599060058594,18.89230728149414
0.19054065644741058,0.051757726818323135,9.794700622558594,-0.006115844893488239,-0.0009453866868327393,-0.04544755140436675,1.3400194644927979,2019-07-25 15:24:11:251,-167.04296901226132,163.18237199344432,0,-14.993894577026367,23.090599060058594,18.89230728149414
0.23125140368938446,0.02781022898852825,9.751595497131348,-0.003718414485110892,0.002251186974275118,-0.042517362641925835,1.3500065803527832,2019-07-25 15:24:11:261,-167.27620264877106,163.51754176106013,0,-14.993894577026367,23.090599060058594,18.89230728149414
0.25040939450263977,0.0541524738073349,9.811464309692383,-0.003718414485110892,-0.0014781489420111885,-0.044914790189485604,1.3600072860717773,2019-07-25 15:24:11:271,-167.50060870811345,163.84295436328958,0,-14.993894577026367,23.090599060058594,18.89230728149414
0.25040939450263977,0.037389226257801056,9.809069633483887,-0.0010546029491443213,0.0003865190486412555,-0.037988881912463066,1.3700082302093506,2019-07-25 15:24:11:281,-167.72156659868224,164.1623196252722,0,-14.993894577026367,23.090599060058594,18.89230728149414
0.23125140368938446,0.07570522278547287,9.787516593933105,-0.0047839387353934655,-0.0025436735824052492,-0.04438202897460446,1.380042314529419,2019-07-25 15:24:11:291,-167.93863241327279,164.47290522577856,0,-14.993894577026367,23.090599060058594,18.89230728149414
0.20490914583206177,0.058941975235939026,9.840201377868652,0.0002773027863296734,0.002517568101864343,-0.041185453362939155,1.39003324508667,2019-07-25 15:24:11:301,-168.15741336947687,164.77642770181887,0,-14.993894577026367,23.090599060058594,18.89230728149414
0.24561989307403564,0.09246847033500671,9.780332565307617,-0.004517557607804241,0.0009192813363289952,-0.04544755140436675,1.4000179767608643,2019-07-25 15:24:11:311,-168.36600840874956,165.07259810407706,0,-14.993894577026367,23.090599060058594,18.89230728149414
0.2096986472606659,0.03978397697210312,9.775543212890625,0.0021419707119635363,0.0019848058466858938,-0.03878802581537939,1.4099974632263184,2019-07-25 15:24:11:320,-168.5752227475572,165.36528233601103,0,-15.29377269744873,22.490842819213867,19.19218635559082
0.19772490859031677,0.037389226257801056,9.76596450805664,0.0013428273291958624,-0.0012117678144219638,-0.04518117287752078,1.419999122619629,2019-07-25 15:24:11:330,-168.77984036153697,165.6528354249315,0,-15.29377269744873,22.490842819213867,19.19218635559082
0.17856690287590027,0.044573474675416946,9.742016792297363,-0.005316700990571915,0.0027839492294535677,-0.045980316780437104,1.4299960136413574,2019-07-25 15:24:11:340,-168.98480447271567,165.93752014058956,0,-15.29377269744873,22.490842819213867,19.19218635559082
0.2025144100189209,0.03259972855448723,9.878517150878906,0.000543683913918898,-0.0038755792203513722,-0.0438492677597233,1.440016746520996,2019-07-25 15:24:11:351,-169.1794392018124,166.21468224720348,0,-15.29377269744873,22.490842819213867,19.19218635559082
0.20011965930461884,0.04217872768640518,9.797096252441406,-0.0023865085870904443,-0.00041262439914499955,-0.045980316780437104,1.4500081539154053,2019-07-25 15:24:11:361,-169.37221522369782,166.48679407538503,0,-15.29377269744873,22.490842819213867,19.19218635559082
0.2480146437883377,0.05654722452163696,9.804280281066895,-0.0026528897146796686,-0.0030764358375836983,-0.04544755140436675,1.460014820098877,2019-07-25 15:24:11:371,-169.55406080226507,166.75193966462945,0,-15.29377269744873,22.490842819213867,19.19218635559082
0.1953301578760147,0.030204977840185165,9.787516593933105,0.0002773027863296734,0.003050330357042792,-0.04065269214805801,1.4700055122375488,2019-07-25 15:24:11:381,-169.7418246656417,167.0132089446964,0,-15.29377269744873,22.490842819213867,19.19218635559082
0.2025144100189209,0.015836479142308235,9.816253662109375,-0.0029192708422688934,-0.001744530069600413,-0.04091907483609319,1.4800243377685547,2019-07-25 15:24:11:391,-169.9223692965161,167.2727383238846,0,-15.29377269744873,22.490842819213867,19.19218635559082
0.20011965930461884,0.020625978708267212,9.789911270141602,-0.0026528897146796686,-0.0033428169651729235,-0.04438202897460446,1.4899957180023193,2019-07-25 15:24:11:400,-170.0986294185863,167.5263546073088,0,-15.29377269744873,22.490842819213867,19.19218635559082
0.22646190226078033,0.04936297610402107,9.787516593933105,-0.0010546029491443213,-0.003609198092762148,-0.04198459726585548,1.5000009536743164,2019-07-25 15:24:11:411,-170.26811993837873,167.77064064963815,0,-15.29377269744873,22.490842819213867,19.19218635559082
0.18814590573310852,0.03499447554349899,9.80667495727539,0.0002773027863296734,-0.0012117678144219638,-0.044914790189485604,1.5099928379058838,2019-07-25 15:24:11:420,-170.44009542573323,168.01098315070413,0,-15.29377269744873,22.490842819213867,19.19218635559082
0.21688289940357208,0.03978397697210312,9.749200820922852,-0.004517557607804241,0.00012013789667006295,-0.04091907483609319,1.520002841949463,2019-07-25 15:24:11:431,-170.60587295183706,168.24862646740962,0,-15.29377269744873,22.490842819213867,19.19218635559082
0.24083039164543152,0.023020729422569275,9.801885604858398,-0.007714131659023586,-0.0006790055592435148,-0.044914790189485604,1.5299813747406006,2019-07-25 15:24:11:440,-170.7652257944626,168.48528481917486,0,-14.69401741027832,22.490842819213867,17.992673873901367
0.2360409051179886,0.04217872768640518,9.813858985900879,-0.0039847956127001165,0.0019848058466858938,-0.042517362641925835,1.5400121212005615,2019-07-25 15:24:11:451,-170.9234831591354,168.71289848919434,0,-14.69401741027832,22.490842819213867,17.992673873901367
0.21688289940357208,0.04217872768640518,9.809069633483887,1.0921627247073539e-05,0.0003865190486412555,-0.045980316780437104,1.5499825477600098,2019-07-25 15:24:11:460,-171.0798973074393,168.93370703014278,0,-14.69401741027832,22.490842819213867,17.992673873901367
0.2288566529750824,0.03499447554349899,9.753990173339844,-0.0018537463319119952,-0.003609198092762148,-0.04278374116877181,1.5600042343139648,2019-07-25 15:24:11:471,-171.22938686431291,169.1519648291745,0,-14.69401741027832,22.490842819213867,17.992673873901367
0.23364615440368652,0.03499447554349899,9.78512191772461,-0.0031856519698581177,-0.0012117678144219638,-0.04624669530728308,1.5699827671051025,2019-07-25 15:24:11:480,-171.37676355728152,169.36661231801384,0,-14.69401741027832,22.490842819213867,17.992673873901367
0.2096986472606659,0.03259972855448723,9.799490928649902,-0.0026528897146796686,0.002251186974275118,-0.041451836050974335,1.5799973011016846,2019-07-25 15:24:11:490,-171.5259765329384,169.57695975508324,0,-14.69401741027832,22.490842819213867,17.992673873901367
0.24322514235973358,0.07570522278547287,9.801885604858398,-0.0010546029491443213,0.0006529002087397708,-0.042517362641925835,1.5899991989135742,2019-07-25 15:24:11:500,-171.66739462420006,169.77716248539514,0,-14.69401741027832,22.490842819213867,17.992673873901367
0.23843564093112946,0.0541524738073349,9.782727241516113,0.003207495352357597,-0.004408341475529821,-0.04011993093317686,1.6000046730041504,2019-07-25 15:24:11:511,-171.8036460827802,169.9734740726407,0,-14.69401741027832,22.490842819213867,17.992673873901367
0.20011965930461884,0.023020729422569275,9.706095695495605,-0.0015873652043227706,-0.002277292454816025,-0.04464841166263963,1.6099681854248047,2019-07-25 15:24:11:520,-171.94267606293224,170.17217478717563,0,-14.69401741027832,22.490842819213867,17.992673873901367
0.2360409051179886,0.011046980507671833,9.799490928649902,-0.00212012745950122,-0.0014781489420111885,-0.04518117287752078,1.6199755668640137,2019-07-25 15:24:11:530,-172.0753955514635,170.3686308270584,0,-14.69401741027832,22.490842819213867,17.992673873901367
0.21927765011787415,0.023020729422569275,9.734832763671875,-0.003718414485110892,-0.0014781489420111885,-0.04464841166263963,1.6299529075622559,2019-07-25 15:24:11:540,-172.20725209412484,170.5606315319604,0,-14.69401741027832,22.490842819213867,17.992673873901367
0.252804160118103,0.06133672222495079,9.789911270141602,0.0002773027863296734,-0.002810054709994474,-0.04065269214805801,1.639974594116211,2019-07-25 15:24:11:550,-172.33194146904899,170.7420834485413,0,-14.69401741027832,22.490842819213867,17.992673873901367
0.24561989307403564,0.05654722452163696,9.837806701660156,-0.0018537463319119952,-0.0009453866868327393,-0.03639059410663042,1.649977684020996,2019-07-25 15:24:11:560,-172.45616758322,170.9216963838478,0,-14.69401741027832,22.490842819213867,17.992673873901367
0.2288566529750824,0.04936297610402107,9.732437133789062,-0.0018537463319119952,-0.00041262439914499955,-0.03985354824514169,1.659963846206665,2019-07-25 15:24:11:570,-172.57987181306765,171.09848985136205,0,-14.69401741027832,22.490842819213867,17.992673873901367
0.21209339797496796,0.037389226257801056,9.773148536682129,0.000543683913918898,-0.0012117678144219638,-0.042517362641925835,1.6699633598327637,2019-07-25 15:24:11:580,-172.70272965371993,171.27183087274335,0,-14.69401741027832,22.490842819213867,17.992673873901367
0.23125140368938446,0.02541547827422619,9.76596450805664,0.000543683913918898,-0.0025436735824052492,-0.04518117287752078,1.679961919784546,2019-07-25 15:24:11:590,-172.82011756435264,171.44310683502093,0,-14.69401741027832,22.490842819213867,17.992673873901367
0.28393590450286865,0.0541524738073349,9.768359184265137,0.0013428273291958624,-0.0020109111971896377,-0.041451836050974335,1.6899733543395996,2019-07-25 15:24:11:600,-172.92928596173834,171.6071373377194,0,-14.69401741027832,22.490842819213867,17.992673873901367
0.2623831331729889,0.06612621992826462,9.828227996826172,-0.00212012745950122,-0.00041262439914499955,-0.04225097995389066,1.6999623775482178,2019-07-25 15:24:11:610,-173.03988368985586,171.76847390740437,0,-14.69401741027832,22.490842819213867,17.992673873901367
0.19054065644741058,0.03259972855448723,9.799490928649902,-0.0031856519698581177,-0.0020109111971896377,-0.04518117287752078,1.709961175918579,2019-07-25 15:24:11:620,-173.1556787278206,171.93108087805172,0,-14.69401741027832,22.490842819213867,17.992673873901367
0.24083039164543152,0.051757726818323135,9.777937889099121,-0.006914988276255913,0.0027839492294535677,-0.048910509704067226,1.7202105522155762,2019-07-25 15:24:11:631,-173.2659491488187,172.09037320568834,0,-14.69401741027832,22.490842819213867,17.992673873901367
0.22406715154647827,0.044573474675416946,9.818648338317871,-0.005050319862982691,-0.0012117678144219638,-0.04305012385680698,1.730139970779419,2019-07-25 15:24:11:641,-173.3738086534555,172.24617942530276,0,-14.69401741027832,22.490842819213867,17.992673873901367
0.19293540716171265,0.0541524738073349,9.80667495727539,0.000543683913918898,0.005447760765420138,-0.04091907483609319,1.7399537563323975,2019-07-25 15:24:11:650,-173.48679272443528,172.39462856044088,0,-14.69401741027832,22.490842819213867,17.992673873901367
0.20011965930461884,0.03259972855448723,9.794700622558594,-0.00212012745950122,0.002251186974275118,-0.04411564628656928,1.7499496936798096,2019-07-25 15:24:11:660,-173.59491096712802,172.54411201440448,0,-14.69401741027832,22.490842819213867,17.992673873901367
0.21448814868927002,0.044573474675416946,9.782727241516113,1.0921627247073539e-05,-0.00547386598588672,-0.04358288507168813,1.7599520683288574,2019-07-25 15:24:11:670,-173.69481805786512,172.6880024902069,0,-14.69401741027832,22.490842819213867,17.992673873901367
0.16898790001869202,0.03499447554349899,9.821043014526367,-0.00212012745950122,-0.00547386598588672,-0.04544755140436675,1.7699499130249023,2019-07-25 15:24:11:680,-173.7981332920688,172.8313495075972,0,-14.69401741027832,22.490842819213867,17.992673873901367
0.13306665420532227,0.037389226257801056,9.828227996826172,-0.003718414485110892,-0.006539390496243618,-0.042517362641925835,1.7799575328826904,2019-07-25 15:24:11:690,-173.9029821008948,172.97245264256165,0,-14.244200706481934,22.940658569335938,19.342124938964844
0.18096165359020233,0.018231229856610298,9.742016792297363,-0.00798051278661281,0.0003865190486412555,-0.04198459726585548,1.7899537086486816,2019-07-25 15:24:11:700,-174.0038560371525,173.11533845688177,0,-14.244200706481934,22.940658569335938,19.342124938964844
0.2025144100189209,0.03499447554349899,9.749200820922852,-0.0031856519698581177,0.0017184247190966692,-0.04518117287752078,1.799950361251831,2019-07-25 15:24:11:710,-174.10094347930777,173.2507066148877,0,-14.244200706481934,22.940658569335938,19.342124938964844
0.15940891206264496,0.08528421819210052,9.777937889099121,-0.0015873652043227706,0.0009192813363289952,-0.04278374116877181,1.8099498748779297,2019-07-25 15:24:11:720,-174.2007606476657,173.37658919796198,0,-14.244200706481934,22.940658569335938,19.342124938964844
0.20490914583206177,0.04217872768640518,9.780332565307617,-0.0015873652043227706,-0.001744530069600413,-0.03825526043930904,1.8199522495269775,2019-07-25 15:24:11:730,-174.2917609213686,173.50500707645037,0,-14.244200706481934,22.940658569335938,19.342124938964844
0.17856690287590027,0.03259972855448723,9.768359184265137,-0.003718414485110892,0.005181379637830914,-0.045713934092401924,1.829965353012085,2019-07-25 15:24:11:740,-174.38789369649123,173.6331733309527,0,-14.244200706481934,22.940658569335938,19.342124938964844
0.20011965930461884,0.06133672222495079,9.76596450805664,-0.0023865085870904443,-0.002810054709994474,-0.037988881912463066,1.8399536609649658,2019-07-25 15:24:11:750,-174.4750815353514,173.7546513050221,0,-14.244200706481934,22.940658569335938,19.342124938964844
0.20490914583206177,0.080494724214077,9.794700622558594,-0.003718414485110892,-0.0012117678144219638,-0.04305012385680698,1.8499515056610107,2019-07-25 15:24:11:760,-174.5609301186157,173.87222857197105,0,-14.244200706481934,22.940658569335938,19.342124938964844
0.18814590573310852,0.044573474675416946,9.809069633483887,-0.003452033357521668,-0.00547386598588672,-0.04438202897460446,1.8599519729614258,2019-07-25 15:24:11:770,-174.6446609093986,173.99151527444454,0,-14.244200706481934,22.940658569335938,19.342124938964844
0.19293540716171265,0.07091572135686874,9.82583236694336,-0.003452033357521668,-0.002277292454816025,-0.04038631362121203,1.8699536323547363,2019-07-25 15:24:11:780,-174.72799101575268,174.10535335979233,0,-14.244200706481934,22.940658569335938,19.342124938964844
0.20490914583206177,0.03978397697210312,9.770753860473633,-0.0023865085870904443,-0.0020109111971896377,-0.04065269214805801,1.879951000213623,2019-07-25 15:24:11:790,-174.80827411325302,174.21992011575065,0,-14.244200706481934,22.940658569335938,19.342124938964844
0.2360409051179886,0.06373147666454315,9.75638484954834,-0.0010546029491443213,-0.0012117678144219638,-0.04518117287752078,1.8899846076965332,2019-07-25 15:24:11:800,-174.8837076592419,174.32863052204073,0,-14.244200706481934,22.940658569335938,19.342124938964844
0.21209339797496796,0.037389226257801056,9.797096252441406,-0.0007882218215550968,0.002517568101864343,-0.04225097995389066,1.8999519348144531,2019-07-25 15:24:11:810,-174.9626389068802,174.43812584817383,0,-14.244200706481934,22.940658569335938,19.342124938964844
0.24322514235973358,0.02541547827422619,9.730042457580566,-0.0023865085870904443,-0.004408341475529821,-0.04225097995389066,1.9099516868591309,2019-07-25 15:24:11:820,-175.0322720393016,174.5477101230625,0,-15.893528938293457,22.790719985961914,18.89230728149414
0.19772490859031677,0.09007371962070465,9.713279724121094,-0.0005218406614565815,0.00012013789667006295,-0.04757860042508055,1.9199542999267578,2019-07-25 15:24:11:830,-175.10837087322062,174.64642294711214,0,-15.893528938293457,22.790719985961914,18.89230728149414
0.21209339797496796,0.044573474675416946,9.737227439880371,-0.0010546029491443213,0.0009192813363289952,-0.04225097995389066,1.929983377456665,2019-07-25 15:24:11:840,-175.1817650848575,174.74884282128514,0,-15.893528938293457,22.790719985961914,18.89230728149414
0.22406715154647827,0.0733104720711708,9.782727241516113,-0.001320984076733546,0.002517568101864343,-0.044914790189485604,1.9400250911712646,2019-07-25 15:24:11:851,-175.25330741071258,174.8460236095894,0,-15.893528938293457,22.790719985961914,18.89230728149414
0.2480146437883377,0.03499447554349899,9.761174201965332,-0.0047839387353934655,-0.0006790055592435148,-0.04518117287752078,1.9499437808990479,2019-07-25 15:24:11:860,-175.31875362116952,174.9476593031454,0,-15.893528938293457,22.790719985961914,18.89230728149414
0.23364615440368652,0.044573474675416946,9.818648338317871,-0.0005218406614565815,0.003583092872295566,-0.042517362641925835,1.9601895809173584,2019-07-25 15:24:11:871,-175.3871766543467,175.0438042832717,0,-15.893528938293457,22.790719985961914,18.89230728149414
0.21448814868927002,-0.00332151772454381,9.821043014526367,-0.003452033357521668,-0.0033428169651729235,-0.04438202897460446,1.9699931144714355,2019-07-25 15:24:11:880,-175.4525705922009,167.94521598173048,0,-15.893528938293457,22.790719985961914,18.89230728149414
0.2216724008321762,0.03499447554349899,9.782727241516113,-0.0018537463319119952,0.003583092872295566,-0.04518117287752078,1.9799771308898926,2019-07-25 15:24:11:890,-175.51956635366537,168.1832517573936,0,-15.893528938293457,22.790719985961914,18.89230728149414
0.2216724008321762,0.058941975235939026,9.804280281066895,0.0008100650740174133,-0.004674722603119046,-0.04411564628656928,1.9901924133300781,2019-07-25 15:24:11:901,-175.58058920756713,168.41223307684362,0,-15.893528938293457,22.790719985961914,18.89230728149414
0.2480146437883377,0.03978397697210312,9.797096252441406,0.0002773027863296734,0.002251186974275118,-0.04198459726585548,1.9999873638153076,2019-07-25 15:24:11:910,-175.64121274933424,168.6391826028063,0,-15.893528938293457,22.790719985961914,18.89230728149414
0.22646190226078033,0.02541547827422619,9.794700622558594,0.0002773027863296734,-0.0033428169651729235,-0.03905440434222536,2.0100080966949463,2019-07-25 15:24:11:921,-175.7000177812393,168.86326948556794,0,-15.893528938293457,22.790719985961914,18.89230728149414
0.252804160118103,0.03499447554349899,9.74441146850586,-0.0039847956127001165,-0.001744530069600413,-0.04091907483609319,2.0201916694641113,2019-07-25 15:24:11:931,-175.75529749602822,169.08416739183758,0,-15.893528938293457,22.790719985961914,18.89230728149414
0.21688289940357208,0.044573474675416946,9.801885604858398,-0.001320984076733546,-0.0014781489420111885,-0.042517362641925835,2.0300753116607666,2019-07-25 15:24:11:941,-175.81402008756,169.2980061990764,0,-15.143834114074707,23.540414810180664,19.342124938964844
0.2216724008321762,0.03499447554349899,9.75638484954834,-0.0007882218215550968,0.003050330357042792,-0.04544755140436675,2.039966106414795,2019-07-25 15:24:11:950,-175.87340215282143,169.5083736426716,0,-15.143834114074707,23.540414810180664,19.342124938964844
0.21209339797496796,0.058941975235939026,9.718069076538086,-0.0005218406614565815,-0.0001462432553011296,-0.03958716971829571,2.0499753952026367,2019-07-25 15:24:11:960,-175.93084668790658,169.7115493395574,0,-15.143834114074707,23.540414810180664,19.342124938964844
0.21448814868927002,0.0541524738073349,9.811464309692383,-0.0005218406614565815,-0.0006790055592435148,-0.037988881912463066,2.059971332550049,2019-07-25 15:24:11:970,-175.98680180893209,169.91128665197778,0,-15.143834114074707,23.540414810180664,19.342124938964844
0.2025144100189209,0.058941975235939026,9.76596450805664,-0.00212012745950122,-0.0001462432553011296,-0.03612421141859524,2.0700740814208984,2019-07-25 15:24:11:981,-176.04322364837512,170.10734756886328,0,-15.143834114074707,23.540414810180664,19.342124938964844
0.2480146437883377,0.04217872768640518,9.789911270141602,-0.001320984076733546,0.0003865190486412555,-0.04171821873900951,2.079953193664551,2019-07-25 15:24:11:990,-176.0935495116996,170.30099636420073,0,-15.143834114074707,23.540414810180664,19.342124938964844
0.2096986472606659,0.020625978708267212,9.787516593933105,-0.0026528897146796686,-0.0020109111971896377,-0.04411564628656928,2.089963912963867,2019-07-25 15:24:12:000,-176.14600057203418,170.49405275605048,0,-15.143834114074707,23.540414810180664,19.342124938964844
0.21209339797496796,0.05654722452163696,9.74441146850586,-0.0015873652043227706,0.0003865190486412555,-0.048377744327996866,2.0999670028686523,2019-07-25 15:24:12:010,-176.19836000348118,170.67841355860892,0,-15.143834114074707,23.540414810180664,19.342124938964844
0.22406715154647827,0.0541524738073349,9.861754417419434,-0.004251176740289341,-0.002810054709994474,-0.0438492677597233,2.1099939346313477,2019-07-25 15:24:12:020,-176.24677904859456,170.86094640319357,0,-15.143834114074707,23.540414810180664,19.342124938964844
0.22406715154647827,0.058941975235939026,9.823437690734863,-0.0047839387353934655,0.0006529002087397708,-0.04624669530728308,2.1199722290039062,2019-07-25 15:24:12:030,-176.2960761085018,171.0395322513033,0,-15.143834114074707,23.540414810180664,19.342124938964844
0.25040939450263977,0.0541524738073349,9.780332565307617,0.000543683913918898,0.0009192813363289952,-0.03852164312734421,2.129984140396118,2019-07-25 15:24:12:040,-176.34133849321384,171.2120912389169,0,-15.143834114074707,23.540414810180664,19.342124938964844
0.20730389654636383,0.03978397697210312,9.768359184265137,-0.00212012745950122,0.0014520435915074442,-0.04438202897460446,2.139965534210205,2019-07-25 15:24:12:050,-176.39101058206418,171.384370658592,0,-15.143834114074707,23.540414810180664,19.342124938964844
0.18575115501880646,0.02781022898852825,9.844990730285645,0.0010764462016066379,-0.001744530069600413,-0.04438202897460446,2.1499531269073486,2019-07-25 15:24:12:060,-176.44059394488792,171.55284258697586,0,-15.143834114074707,23.540414810180664,19.342124938964844
0.18814590573310852,0.02781022898852825,9.734832763671875,-0.003452033357521668,-0.0009453866868327393,-0.043316502383652956,2.1599531173706055,2019-07-25 15:24:12:070,-176.48910678618486,171.72045043106618,0,-15.29377269744873,23.39047622680664,18.89230728149414
0.20730389654636383,0.018231229856610298,9.768359184265137,-0.0026528897146796686,-0.005207484858297496,-0.045980316780437104,2.1699790954589844,2019-07-25 15:24:12:080,-176.53207811403206,171.88539620283,0,-15.29377269744873,23.39047622680664,18.89230728149414
0.18096165359020233,0.04217872768640518,9.732437133789062,-0.0026528897146796686,0.0019848058466858938,-0.045713934092401924,2.1800034046173096,2019-07-25 15:24:12:091,-176.58124941361876,172.04421532158443,0,-15.29377269744873,23.39047622680664,18.89230728149414
0.19772490859031677,0.030204977840185165,9.813858985900879,-0.0015873652043227706,-0.005207484858297496,-0.04970965360698355,2.189962387084961,2019-07-25 15:24:12:100,-176.62362819040723,172.200691788483,0,-15.29377269744873,23.39047622680664,18.89230728149414
0.21448814868927002,0.018231229856610298,9.746806144714355,-0.001320984076733546,-0.0020109111971896377,-0.046779460683353424,2.1999852657318115,2019-07-25 15:24:12:110,-176.66481097823115,172.35527796795117,0,-15.29377269744873,23.39047622680664,18.89230728149414
0.21448814868927002,0.06373147666454315,9.799490928649902,-0.0023865085870904443,-0.0001462432553011296,-0.04518117287752078,2.210005760192871,2019-07-25 15:24:12:121,-176.70635504218257,172.50206276224893,0,-15.29377269744873,23.39047622680664,18.89230728149414
0.19293540716171265,0.07809997349977493,9.799490928649902,1.0921627247073539e-05,-0.00041262439914499955,-0.044914790189485604,2.219916582107544,2019-07-25 15:24:12:130,-176.74944009346376,172.64288290558568,0,-15.29377269744873,23.39047622680664,18.89230728149414
0.252804160118103,0.058941975235939026,9.76596450805664,0.0010764462016066379,-0.002810054709994474,-0.041451836050974335,2.229961395263672,2019-07-25 15:24:12:140,-176.78320954911683,172.78250208530173,0,-15.29377269744873,23.39047622680664,18.89230728149414
0.22646190226078033,0.037389226257801056,9.852174758911133,-0.001320984076733546,-0.002277292454816025,-0.042517362641925835,2.2399916648864746,2019-07-25 15:24:12:150,-176.81992743440526,172.92324726481746,0,-15.29377269744873,23.39047622680664,18.89230728149414
0.21927765011787415,0.04936297610402107,9.80667495727539,-0.001320984076733546,0.0014520435915074442,-0.04305012385680698,2.249969959259033,2019-07-25 15:24:12:160,-176.85872398632873,173.05975439697036,0,-15.29377269744873,23.39047622680664,18.89230728149414
0.2216724008321762,0.04217872768640518,9.840201377868652,-0.006115844893488239,0.0009192813363289952,-0.04198459726585548,2.260014057159424,2019-07-25 15:24:12:171,-176.89625802854644,173.19709670477553,0,-15.29377269744873,23.39047622680664,18.89230728149414
0.21688289940357208,0.09246847033500671,9.818648338317871,0.0002773027863296734,-0.002277292454816025,-0.0438492677597233,2.2699685096740723,2019-07-25 15:24:12:180,-176.93175212437316,173.322208276191,0,-15.29377269744873,23.39047622680664,18.89230728149414
0.22646190226078033,0.02541547827422619,9.789911270141602,-0.001320984076733546,-0.001744530069600413,-0.03852164312734421,2.2799758911132812,2019-07-25 15:24:12:190,-176.9656340186263,173.4535314970715,0,-15.29377269744873,22.490842819213867,18.592430114746094
0.19054065644741058,0.07570522278547287,9.753990173339844,-0.0018537463319119952,-0.0020109111971896377,-0.04011993093317686,2.289987087249756,2019-07-25 15:24:12:200,-177.0028087519278,173.57660910698038,0,-15.29377269744873,22.490842819213867,18.592430114746094
0.2360409051179886,0.03978397697210312,9.753990173339844,-0.0015873652043227706,-0.002277292454816025,-0.04065269214805801,2.2999682426452637,2019-07-25 15:24:12:210,-177.033751208448,173.7012926842969,0,-15.29377269744873,22.490842819213867,18.592430114746094
0.2096986472606659,0.051757726818323135,9.775543212890625,-0.001320984076733546,-0.0030764358375836983,-0.04091907483609319,2.309972047805786,2019-07-25 15:24:12:220,-177.0667704397974,173.82194171971156,0,-15.29377269744873,22.490842819213867,18.592430114746094
0.22646190226078033,-0.0009267681161873043,9.758779525756836,-0.0031856519698581177,-0.0009453866868327393,-0.04917688823091319,2.3199779987335205,2019-07-25 15:24:12:230,-177.09831657585173,166.74740151391117,0,-15.29377269744873,22.490842819213867,18.592430114746094
0.22406715154647827,0.06612621992826462,9.792305946350098,-0.001320984076733546,-0.0020109111971896377,-0.04225097995389066,2.329981803894043,2019-07-25 15:24:12:240,-177.12900447107765,167.00545738929094,0,-15.29377269744873,22.490842819213867,18.592430114746094
0.22646190226078033,0.0014679816085845232,9.804280281066895,-0.0015873652043227706,-0.0020109111971896377,-0.03825526043930904,2.33998441696167,2019-07-25 15:24:12:250,-177.1588310020417,167.26606820142274,0,-15.29377269744873,22.490842819213867,18.592430114746094
0.23843564093112946,0.011046980507671833,9.794700622558594,-0.0023865085870904443,0.0006529002087397708,-0.04438202897460446,2.3499789237976074,2019-07-25 15:24:12:260,-177.18813088878903,167.52079369906542,0,-15.29377269744873,22.490842819213867,18.592430114746094
0.21688289940357208,0.06852097064256668,9.751595497131348,-0.0023865085870904443,-0.003609198092762148,-0.04225097995389066,2.360057830810547,2019-07-25 15:24:12:271,-177.21684388707226,167.7636766139971,0,-15.29377269744873,22.490842819213867,18.592430114746094
0.21927765011787415,0.09725797176361084,9.849780082702637,-0.004251176740289341,0.0019848058466858938,-0.03772249922442789,2.3699653148651123,2019-07-25 15:24:12:280,-177.24810479004316,167.99945348037144,0,-15.29377269744873,22.490842819213867,18.592430114746094
0.22646190226078033,0.06612621992826462,9.84738540649414,0.0008100650740174133,0.00118566246391822,-0.04011993093317686,2.3800034523010254,2019-07-25 15:24:12:291,-177.27746282065317,168.2313129986138,0,-15.29377269744873,22.490842819213867,18.592430114746094
0.2288566529750824,0.006257480941712856,9.789911270141602,-0.0018537463319119952,0.0017184247190966692,-0.04038631362121203,2.389986515045166,2019-07-25 15:24:12:300,-177.306093878514,168.4669934095421,0,-15.29377269744873,22.490842819213867,18.592430114746094
0.21448814868927002,0.020625978708267212,9.777937889099121,-0.003718414485110892,0.00012013789667006295,-0.04091907483609319,2.399982213973999,2019-07-25 15:24:12:310,-177.3349067371143,168.69732329077962,0,-15.29377269744873,22.490842819213867,18.592430114746094
0.20730389654636383,0.023020729422569275,9.732437133789062,-0.0039847956127001165,-0.002810054709994474,-0.04198459726585548,2.409982919692993,2019-07-25 15:24:12:320,-177.36222598589958,168.92290394093027,0,-16.19340705871582,22.490842819213867,17.992673873901367
0.18096165359020233,0.037389226257801056,9.739622116088867,0.002674733097179148,-0.0001462432553011296,-0.04411564628656928,2.419984817504883,2019-07-25 15:24:12:330,-177.393610734834,169.1385447089423,0,-16.19340705871582,22.490842819213867,17.992673873901367
0.20490914583206177,0.09007371962070465,9.76596450805664,-0.0039847956127001165,0.0017184247190966692,-0.045713934092401924,2.429980993270874,2019-07-25 15:24:12:340,-177.422663008492,169.34744167507145,0,-16.19340705871582,22.490842819213867,17.992673873901367
0.23364615440368652,0.04936297610402107,9.763568878173828,-0.003452033357521668,-0.0006790055592435148,-0.04411564628656928,2.439985990524292,2019-07-25 15:24:12:350,-177.4464113060697,169.55663861345477,0,-16.19340705871582,22.490842819213867,17.992673873901367
0.1833564043045044,0.02541547827422619,9.782727241516113,-0.003452033357521668,-0.00041262439914499955,-0.041185453362939155,2.4500136375427246,2019-07-25 15:24:12:361,-177.47577551663343,169.76447243558485,0,-16.19340705871582,22.490842819213867,17.992673873901367
0.21927765011787415,0.03978397697210312,9.75638484954834,1.0921627247073539e-05,-0.0001462432553011296,-0.04358288507168813,2.4599833488464355,2019-07-25 15:24:12:370,-177.5004276813205,169.96450415582242,0,-16.19340705871582,22.490842819213867,17.992673873901367
0.22406715154647827,0.023020729422569275,9.828227996826172,-0.0005218406614565815,0.00012013789667006295,-0.03932078703026053,2.4699807167053223,2019-07-25 15:24:12:380,-177.5243661342044,170.16282292694723,0,-16.19340705871582,22.490842819213867,17.992673873901367
0.21209339797496796,0.07091572135686874,9.852174758911133,-0.001320984076733546,-0.0014781489420111885,-0.04305012385680698,2.4799907207489014,2019-07-25 15:24:12:390,-177.5483830323626,170.35206081027644,0,-16.19340705871582,22.490842819213867,17.992673873901367
0.2288566529750824,0.06133672222495079,9.797096252441406,-0.005050319862982691,-0.0025436735824052492,-0.045980316780437104,2.4899802207946777,2019-07-25 15:24:12:400,-177.5692252924311,170.54067821939674,0,-16.19340705871582,22.490842819213867,17.992673873901367
0.20730389654636383,0.013441730290651321,9.844990730285645,-0.0047839387353934655,0.002251186974275118,-0.04171821873900951,2.499979257583618,2019-07-25 15:24:12:410,-177.5949789652555,170.7309860113603,0,-16.19340705871582,22.490842819213867,17.992673873901367
0.18575115501880646,0.0014679816085845232,9.844990730285645,-0.0023865085870904443,-0.0014781489420111885,-0.04011993093317686,2.5099830627441406,2019-07-25 15:24:12:420,-177.62063100187697,170.91753595546172,0,-16.19340705871582,22.490842819213867,17.992673873901367
0.21927765011787415,0.03499447554349899,9.794700622558594,-0.0023865085870904443,-0.00041262439914499955,-0.04651307799531825,2.5199811458587646,2019-07-25 15:24:12:430,-177.64233697910717,171.09643089461738,0,-16.19340705871582,22.490842819213867,17.992673873901367
0.18814590573310852,0.023020729422569275,9.782727241516113,0.0013428273291958624,-0.0025436735824052492,-0.04198459726585548,2.5299878120422363,2019-07-25 15:24:12:440,-177.66602495963494,171.27105121295358,0,-15.593650817871094,24.88986587524414,19.791940689086914
0.2096986472606659,0.06852097064256668,9.801885604858398,-0.007447750531434362,-0.0006790055592435148,-0.04358288507168813,2.5399811267852783,2019-07-25 15:24:12:450,-177.68781181387254,171.44179879835707,0,-15.593650817871094,24.88986587524414,19.791940689086914
0.20490914583206177,0.044573474675416946,9.770753860473633,-0.00212012745950122,-0.0020109111971896377,-0.041451836050974335,2.5499825477600098,2019-07-25 15:24:12:460,-177.70889803776348,171.6089258921904,0,-15.593650817871094,24.88986587524414,19.791940689086914
0.2288566529750824,0.06612621992826462,9.749200820922852,-0.003452033357521668,0.0009192813363289952,-0.045713934092401924,2.5600674152374268,2019-07-25 15:24:12:471,-177.7283458897582,171.7709298167728,0,-15.593650817871094,24.88986587524414,19.791940689086914
0.24561989307403564,0.04936297610402107,9.801885604858398,0.000543683913918898,0.0014520435915074442,-0.04464841166263963,2.570005178451538,2019-07-25 15:24:12:481,-177.74588037719673,171.9294369809639,0,-15.593650817871094,24.88986587524414,19.791940689086914
0.19772490859031677,0.020625978708267212,9.799490928649902,-0.003718414485110892,0.002251186974275118,-0.045980316780437104,2.579983711242676,2019-07-25 15:24:12:490,-177.769106024723,172.0905197231469,0,-15.593650817871094,24.88986587524414,19.791940689086914
0.2216724008321762,0.06373147666454315,9.753990173339844,-0.00212012745950122,-0.001744530069600413,-0.04091907483609319,2.589989185333252,2019-07-25 15:24:12:500,-177.78670584287286,172.24241325176618,0,-15.593650817871094,24.88986587524414,19.791940689086914
0.21209339797496796,-0.005716267507523298,9.725253105163574,-0.0026528897146796686,-0.0009453866868327393,-0.03985354824514169,2.599979877471924,2019-07-25 15:24:12:510,-177.80545462204148,165.19972673546948,0,-15.593650817871094,24.88986587524414,19.791940689086914
0.2743569016456604,0.08288946747779846,9.799490928649902,-0.004251176740289341,-0.0001462432553011296,-0.04464841166263963,2.6099815368652344,2019-07-25 15:24:12:520,-177.817189515471,165.4884270755858,0,-15.593650817871094,24.88986587524414,19.791940689086914
0.21688289940357208,0.018231229856610298,9.818648338317871,-0.0015873652043227706,0.0009192813363289952,-0.04411564628656928,2.619982957839966,2019-07-25 15:24:12:530,-177.8360541025988,165.7774222347511,0,-15.593650817871094,24.88986587524414,19.791940689086914
0.22406715154647827,0.044573474675416946,9.80667495727539,-0.0023865085870904443,-0.001744530069600413,-0.03932078703026053,2.6299822330474854,2019-07-25 15:24:12:540,-177.85217571993365,166.0580053140563,0,-15.593650817871094,24.88986587524414,19.791940689086914
0.21448814868927002,0.05654722452163696,9.777937889099121,-0.0023865085870904443,0.0017184247190966692,-0.04011993093317686,2.6399874687194824,2019-07-25 15:24:12:550,-177.8709649117817,166.33155900950055,0,-15.593650817871094,24.88986587524414,19.791940689086914
0.2360409051179886,0.04936297610402107,9.787516593933105,-0.00798051278661281,0.0006529002087397708,-0.0470458392101994,2.650003671646118,2019-07-25 15:24:12:561,-177.8862826620143,166.60363680330835,0,-15.593650817871094,24.88986587524414,19.791940689086914
0.2216724008321762,0.04696822538971901,9.749200820922852,-0.0023865085870904443,-0.0012117678144219638,-0.043316502383652956,2.659987688064575,2019-07-25 15:24:12:570,-177.90182692954468,166.86738137060306,0,-15.143834114074707,23.240537643432617,19.042245864868164
0.2360409051179886,0.04936297610402107,9.725253105163574,-0.0023865085870904443,-0.0025436735824052492,-0.03958716971829571,2.6699821949005127,2019-07-25 15:24:12:580,-177.9145559322911,167.1255566946416,0,-15.143834114074707,23.240537643432617,19.042245864868164
0.21688289940357208,0.008652230724692345,9.763568878173828,-0.00558308263830979,0.00012013789667006295,-0.044914790189485604,2.679981231689453,2019-07-25 15:24:12:590,-177.93088167018468,167.38516467060543,0,-15.143834114074707,23.240537643432617,19.042245864868164
0.20490914583206177,0.020625978708267212,9.804280281066895,-0.008779655649231834,0.002517568101864343,-0.04198459726585548,2.689988374710083,2019-07-25 15:24:12:600,-177.94973254444162,167.63998392067913,0,-15.143834114074707,23.240537643432617,19.042245864868164
0.20730389654636383,0.06852097064256668,9.799490928649902,-0.0023865085870904443,-0.003609198092762148,-0.041185453362939155,2.6999735832214355,2019-07-25 15:24:12:610,-177.96447660896666,167.88050982764085,0,-15.143834114074707,23.240537643432617,19.042245864868164
0.23843564093112946,0.03499447554349899,9.809069633483887,-0.006115844893488239,-0.0038755792203513722,-0.03772249922442789,2.709982395172119,2019-07-25 15:24:12:620,-177.97515997129227,168.12224858682083,0,-15.143834114074707,23.240537643432617,19.042245864868164
0.17856690287590027,0.03259972855448723,9.794700622558594,-0.0010546029491443213,0.0003865190486412555,-0.04171821873900951,2.7199831008911133,2019-07-25 15:24:12:630,-177.99498497728055,168.3565818751219,0,-15.143834114074707,23.240537643432617,19.042245864868164
0.18096165359020233,0.02541547827422619,9.828227996826172,-0.003718414485110892,0.00118566246391822,-0.04438202897460446,2.7299888134002686,2019-07-25 15:24:12:640,-178.0146546882419,168.58857602111948,0,-15.143834114074707,23.240537643432617,19.042245864868164
0.24083039164543152,0.015836479142308235,9.749200820922852,-0.0047839387353934655,0.0003865190486412555,-0.0438492677597233,2.739985704421997,2019-07-25 15:24:12:650,-178.02627724363072,168.8176284314322,0,-15.143834114074707,23.240537643432617,19.042245864868164
0.17856690287590027,0.03259972855448723,9.823437690734863,-0.005316700990571915,-0.001744530069600413,-0.04757860042508055,2.7499823570251465,2019-07-25 15:24:12:660,-178.0439447294203,169.04045740105266,0,-15.143834114074707,23.240537643432617,19.042245864868164
0.21448814868927002,0.02541547827422619,9.75638484954834,-0.0002554595176127117,-0.002277292454816025,-0.04305012385680698,2.759979486465454,2019-07-25 15:24:12:670,-178.05659930988557,169.25680653742245,0,-15.143834114074707,23.240537643432617,19.042245864868164
0.1761721521615982,0.013441730290651321,9.811464309692383,-0.0039847956127001165,0.0003865190486412555,-0.041185453362939155,2.76997971534729,2019-07-25 15:24:12:680,-178.0751108011769,169.47233800899818,0,-15.143834114074707,23.240537643432617,19.042245864868164
0.1833564043045044,0.011046980507671833,9.751595497131348,-0.003718414485110892,-0.0009453866868327393,-0.041451836050974335,2.7799856662750244,2019-07-25 15:24:12:690,-178.0915336581275,169.68368223950486,0,-15.143834114074707,22.64078140258789,17.542856216430664
0.2096986472606659,0.0014679816085845232,9.777937889099121,-0.0026528897146796686,0.0027839492294535677,-0.045713934092401924,2.789980173110962,2019-07-25 15:24:12:700,-178.10669365472606,169.89132533179526,0,-15.143834114074707,22.64078140258789,17.542856216430664
0.18575115501880646,0.08288946747779846,9.734832763671875,1.0921627247073539e-05,-0.0012117678144219638,-0.0438492677597233,2.7999839782714844,2019-07-25 15:24:12:710,-178.12201645894885,170.0837357648833,0,-15.143834114074707,22.64078140258789,17.542856216430664
0.2288566529750824,0.08288946747779846,9.761174201965332,-0.0026528897146796686,-0.001744530069600413,-0.04171821873900951,2.8099818229675293,2019-07-25 15:24:12:720,-178.13173502440986,170.27381972573923,0,-15.143834114074707,22.64078140258789,17.542856216430664
0.19054065644741058,0.03259972855448723,9.768359184265137,0.0002773027863296734,-0.0014781489420111885,-0.042517362641925835,2.8199856281280518,2019-07-25 15:24:12:730,-178.145920746536,170.46436334234028,0,-15.143834114074707,22.64078140258789,17.542856216430664
0.22646190226078033,0.020625978708267212,9.830622673034668,-0.0058494637658990135,-0.0006790055592435148,-0.048377744327996866,2.8299899101257324,2019-07-25 15:24:12:740,-178.1562278353927,170.65595766515997,0,-15.143834114074707,22.64078140258789,17.542856216430664
0.2096986472606659,0.03499447554349899,9.801885604858398,-0.003718414485110892,-0.0014781489420111885,-0.04038631362121203,2.8399810791015625,2019-07-25 15:24:12:750,-178.16776239226675,170.84083344755967,0,-15.143834114074707,22.64078140258789,17.542856216430664
0.2480146437883377,0.06373147666454315,9.799490928649902,0.0010764462016066379,0.0014520435915074442,-0.04305012385680698,2.849961280822754,2019-07-25 15:24:12:760,-178.17622514158253,171.01596113821589,0,-15.143834114074707,22.64078140258789,17.542856216430664
0.23125140368938446,0.04696822538971901,9.780332565307617,-0.003718414485110892,0.0014520435915074442,-0.04038631362121203,2.8599796295166016,2019-07-25 15:24:12:770,-178.18642786289823,171.1922306272485,0,-15.143834114074707,22.64078140258789,17.542856216430664
0.2360409051179886,0.05654722452163696,9.809069633483887,-0.006648607148666687,-0.0020109111971896377,-0.045713934092401924,2.8699822425842285,2019-07-25 15:24:12:780,-178.19400042564286,171.36551428475255,0,-15.143834114074707,22.64078140258789,17.542856216430664
0.27196213603019714,-0.012900516390800476,9.72764778137207,-0.0023865085870904443,-0.0030764358375836983,-0.045980316780437104,2.8799874782562256,2019-07-25 15:24:12:790,-178.1963633385515,164.3410644001644,0,-15.143834114074707,22.64078140258789,17.542856216430664
0.25759363174438477,0.030204977840185165,9.854569435119629,-0.004517557607804241,0.0038494739998847904,-0.04438202897460446,2.890024185180664,2019-07-25 15:24:12:801,-178.20465862586764,164.65327672139605,0,-15.143834114074707,22.64078140258789,17.542856216430664
0.17856690287590027,0.07809997349977493,9.732437133789062,-0.0023865085870904443,-0.0014781489420111885,-0.04198459726585548,2.8999807834625244,2019-07-25 15:24:12:810,-178.21871663021616,164.9523499508766,0,-15.143834114074707,22.64078140258789,17.542856216430664
0.2623831331729889,0.037389226257801056,9.720463752746582,-0.005050319862982691,0.00012013789667006295,-0.044914790189485604,2.9099810123443604,2019-07-25 15:24:12:820,-178.22348572454817,165.25173108528642,0,-14.843955993652344,22.340904235839844,19.042245864868164
0.259988397359848,0.06373147666454315,9.782727241516113,-0.007181369403845137,0.002517568101864343,-0.045980316780437104,2.919982671737671,2019-07-25 15:24:12:830,-178.22998286080755,165.54326427778196,0,-14.843955993652344,22.340904235839844,19.042245864868164
0.23364615440368652,0.030204977840185165,9.830622673034668,-0.0023865085870904443,0.00012013789667006295,-0.041451836050974335,2.929982900619507,2019-07-25 15:24:12:840,-178.23822060957446,165.83021818422648,0,-14.843955993652344,22.340904235839844,19.042245864868164
0.252804160118103,0.06612621992826462,9.758779525756836,-0.0031856519698581177,0.0009192813363289952,-0.04544755140436675,2.940040349960327,2019-07-25 15:24:12:851,-178.24429668289352,166.10764814507183,0,-14.843955993652344,22.340904235839844,19.042245864868164
0.2216724008321762,0.04696822538971901,9.746806144714355,-0.0031856519698581177,-0.0001462432553011296,-0.03985354824514169,2.9500067234039307,2019-07-25 15:24:12:861,-178.2532717510284,166.3817559740532,0,-14.843955993652344,22.340904235839844,19.042245864868164
0.19772490859031677,0.0733104720711708,9.818648338317871,-0.0015873652043227706,0.0038494739998847904,-0.04011993093317686,2.959979295730591,2019-07-25 15:24:12:870,-178.26728888622475,166.64645394792453,0,-14.843955993652344,22.340904235839844,19.042245864868164
0.1761721521615982,0.07809997349977493,9.782727241516113,-0.001320984076733546,0.0033167117447063417,-0.04278374116877181,2.9699864387512207,2019-07-25 15:24:12:880,-178.28317278807216,166.9051189570862,0,-14.843955993652344,22.340904235839844,19.042245864868164
0.22406715154647827,0.07809997349977493,9.83541202545166,-0.0005218406614565815,-0.0038755792203513722,-0.04438202897460446,2.980074167251587,2019-07-25 15:24:12:891,-178.28921274837967,167.1582129902842,0,-14.843955993652344,22.340904235839844,19.042245864868164
0.2288566529750824,0.023020729422569275,9.801885604858398,-0.0010546029491443213,-0.0020109111971896377,-0.045713934092401924,2.9899725914001465,2019-07-25 15:24:12:900,-178.29556060119242,167.41294357885357,0,-14.843955993652344,22.340904235839844,19.042245864868164
0.22646190226078033,0.04936297610402107,9.852174758911133,-0.003452033357521668,0.0009192813363289952,-0.04065269214805801,2.9999983310699463,2019-07-25 15:24:12:910,-178.30383153645764,167.66088660293806,0,-14.843955993652344,22.340904235839844,19.042245864868164
0.19772490859031677,0.008652230724692345,9.78512191772461,-0.0058494637658990135,-0.0041419603479405966,-0.04171821873900951,3.0099918842315674,2019-07-25 15:24:12:920,-178.3122786915453,167.90993797462352,0,-14.843955993652344,22.340904235839844,19.042245864868164
0.21209339797496796,0.04936297610402107,9.78512191772461,-0.0031856519698581177,0.0019848058466858938,-0.041185453362939155,3.0200657844543457,2019-07-25 15:24:12:931,-178.3223218844876,168.14776042518943,0,-14.843955993652344,22.340904235839844,19.042245864868164
0.23125140368938446,0.04936297610402107,9.852174758911133,-0.00212012745950122,0.00118566246391822,-0.0470458392101994,3.0299975872039795,2019-07-25 15:24:12:940,-178.32964452697408,168.38024614131405,0,-14.54407787322998,23.540414810180664,17.542856216430664
0.22406715154647827,0.06133672222495079,9.730042457580566,-0.0018537463319119952,0.00012013789667006295,-0.04358288507168813,3.0400516986846924,2019-07-25 15:24:12:951,-178.33673553796717,168.60646414325248,0,-14.54407787322998,23.540414810180664,17.542856216430664
0.20490914583206177,0.04696822538971901,9.763568878173828,-0.006115844893488239,-0.0009453866868327393,-0.045980316780437104,3.049987554550171,2019-07-25 15:24:12:960,-178.3454274662331,168.83223441944867,0,-14.54407787322998,23.540414810180664,17.542856216430664
0.20730389654636383,0.04696822538971901,9.761174201965332,-0.00212012745950122,0.0006529002087397708,-0.03825526043930904,3.0600697994232178,2019-07-25 15:24:12:971,-178.35455569750968,169.05127616606177,0,-14.54407787322998,23.540414810180664,17.542856216430664
0.16898790001869202,0.003862731158733368,9.780332565307617,-0.003452033357521668,-0.0006790055592435148,-0.04731222189823458,3.069983720779419,2019-07-25 15:24:12:980,-178.3672890568229,169.27171969201825,0,-14.54407787322998,23.540414810180664,17.542856216430664
0.19293540716171265,0.013441730290651321,9.804280281066895,-0.0031856519698581177,-0.004674722603119046,-0.04278374116877181,3.0800654888153076,2019-07-25 15:24:12:991,-178.3747497531941,169.48651760705417,0,-14.54407787322998,23.540414810180664,17.542856216430664
0.16419841349124908,0.03259972855448723,9.801885604858398,-0.0026528897146796686,0.0014520435915074442,-0.04198459726585548,3.0899970531463623,2019-07-25 15:24:13:000,-178.38887024057996,169.69445551054403,0,-14.54407787322998,23.540414810180664,17.542856216430664
0.20730389654636383,0.037389226257801056,9.844990730285645,-0.003452033357521668,0.005181379637830914,-0.03958716971829571,3.100057363510132,2019-07-25 15:24:13:011,-178.39989398170923,169.89816447434836,0,-14.54407787322998,23.540414810180664,17.542856216430664
0.2096986472606659,0.02541547827422619,9.811464309692383,-0.001320984076733546,0.0006529002087397708,-0.041451836050974335,3.1099908351898193,2019-07-25 15:24:13:020,-178.4077725478114,170.0979696241266,0,-14.54407787322998,23.540414810180664,17.542856216430664
0.21209339797496796,0.0541524738073349,9.768359184265137,-0.004251176740289341,0.0014520435915074442,-0.0438492677597233,3.1200673580169678,2019-07-25 15:24:13:031,-178.4155621192447,170.29206302510443,0,-14.54407787322998,23.540414810180664,17.542856216430664
0.21688289940357208,0.006257480941712856,9.777937889099121,-0.003452033357521668,0.0006529002087397708,-0.03958716971829571,3.1299843788146973,2019-07-25 15:24:13:040,-178.42220123141044,170.4874106535953,0,-14.54407787322998,23.540414810180664,17.542856216430664
0.20490914583206177,0.04936297610402107,9.775543212890625,1.0921627247073539e-05,0.0014520435915074442,-0.041451836050974335,3.1400208473205566,2019-07-25 15:24:13:051,-178.43055901391568,170.67186987341793,0,-14.54407787322998,23.540414810180664,17.542856216430664
0.21209339797496796,0.06852097064256668,9.722858428955078,1.0921627247073539e-05,0.0033167117447063417,-0.04358288507168813,3.1499860286712646,2019-07-25 15:24:13:060,-178.4388107615373,170.85035076141708,0,-14.54407787322998,23.540414810180664,17.542856216430664
0.1953301578760147,0.06133672222495079,9.734832763671875,-0.005050319862982691,-0.002810054709994474,-0.044914790189485604,3.159984827041626,2019-07-25 15:24:13:070,-178.44546709571796,171.02895912403432,0,-15.743589401245117,21.441268920898438,18.742368698120117
0.2288566529750824,0.013441730290651321,9.768359184265137,-0.003718414485110892,-0.00041262439914499955,-0.048910509704067226,3.1700689792633057,2019-07-25 15:24:13:081,-178.44948210140873,171.20890856247672,0,-15.743589401245117,21.441268920898438,18.742368698120117
0.21209339797496796,0.020625978708267212,9.753990173339844,-0.004251176740289341,-0.0020109111971896377,-0.04198459726585548,3.1799867153167725,2019-07-25 15:24:13:090,-178.45445945179503,171.38467461258685,0,-15.743589401245117,21.441268920898438,18.742368698120117
0.2360409051179886,0.02541547827422619,9.816253662109375,-0.0018537463319119952,-0.00041262439914499955,-0.04438202897460446,3.1900246143341064,2019-07-25 15:24:13:101,-178.45758840453982,171.55505903256525,0,-15.743589401245117,21.441268920898438,18.742368698120117
0.23843564093112946,0.07809997349977493,9.749200820922852,-0.004251176740289341,-0.0012117678144219638,-0.04438202897460446,3.1999924182891846,2019-07-25 15:24:13:110,-178.45973841551296,171.71715756590805,0,-15.743589401245117,21.441268920898438,18.742368698120117
0.24561989307403564,0.03978397697210312,9.837806701660156,0.002674733097179148,-0.002277292454816025,-0.041451836050974335,3.2100539207458496,2019-07-25 15:24:13:121,-178.46065302720254,171.87666927460882,0,-15.743589401245117,21.441268920898438,18.742368698120117
0.24561989307403564,0.06133672222495079,9.794700622558594,-0.0007882218215550968,0.0006529002087397708,-0.043316502383652956,3.2199881076812744,2019-07-25 15:24:13:130,-178.46307426475605,172.0323996622861,0,-15.743589401245117,21.441268920898438,18.742368698120117
0.18575115501880646,0.058941975235939026,9.809069633483887,-0.003718414485110892,-0.0038755792203513722,-0.04651307799531825,3.2300045490264893,2019-07-25 15:24:13:141,-178.46993583233004,172.1869573471697,0,-15.743589401245117,21.441268920898438,18.742368698120117
0.23125140368938446,0.02541547827422619,9.746806144714355,-0.0029192708422688934,-0.0006790055592435148,-0.04225097995389066,3.239985466003418,2019-07-25 15:24:13:150,-178.47297384408617,172.3418661905835,0,-15.743589401245117,21.441268920898438,18.742368698120117
0.21927765011787415,0.044573474675416946,9.780332565307617,-0.003718414485110892,-0.002810054709994474,-0.04544755140436675,3.2500569820404053,2019-07-25 15:24:13:161,-178.4762378132562,172.49190925483418,0,-15.743589401245117,21.441268920898438,18.742368698120117
0.2216724008321762,0.03499447554349899,9.804280281066895,-0.005316700990571915,-0.0020109111971896377,-0.04438202897460446,3.2599878311157227,2019-07-25 15:24:13:170,-178.4796872808614,172.6409456404238,0,-15.743589401245117,21.441268920898438,18.742368698120117
0.1953301578760147,0.015836479142308235,9.842596054077148,-0.007447750531434362,0.0006529002087397708,-0.041451836050974335,3.270052909851074,2019-07-25 15:24:13:181,-178.48772436651203,172.79049209812513,0,-15.743589401245117,21.441268920898438,18.742368698120117
0.22406715154647827,-0.00332151772454381,9.813858985900879,-0.004251176740289341,-0.0025436735824052492,-0.04464841166263963,3.2799875736236572,2019-07-25 15:24:13:190,-178.4903922776116,165.73744152728352,0,-14.993894577026367,21.89108657836914,18.89230728149414
0.2096986472606659,0.06373147666454315,9.775543212890625,-0.0007882218215550968,-0.001744530069600413,-0.04438202897460446,3.2900280952453613,2019-07-25 15:24:13:201,-178.49502323886242,166.01566640558283,0,-14.993894577026367,21.89108657836914,18.89230728149414
0.20730389654636383,0.0541524738073349,9.821043014526367,-0.0015873652043227706,0.0014520435915074442,-0.045713934092401924,3.2999935150146484,2019-07-25 15:24:13:210,-178.5017507262318,166.28992287256438,0,-14.993894577026367,21.89108657836914,18.89230728149414
0.2288566529750824,0.05654722452163696,9.777937889099121,-0.0005218406614565815,-0.00041262439914499955,-0.04438202897460446,3.3100554943084717,2019-07-25 15:24:13:221,-178.50466685851703,166.5577923228172,0,-14.993894577026367,21.89108657836914,18.89230728149414
0.23364615440368652,0.06133672222495079,9.782727241516113,-0.0018537463319119952,-0.0009453866868327393,-0.04651307799531825,3.3199853897094727,2019-07-25 15:24:13:230,-178.50668309100834,166.82048537328959,0,-14.993894577026367,21.89108657836914,18.89230728149414
0.21448814868927002,0.03259972855448723,9.83541202545166,-0.003452033357521668,-0.0041419603479405966,-0.04518117287752078,3.3301281929016113,2019-07-25 15:24:13:241,-178.50920463871716,167.08224350450018,0,-14.993894577026367,21.89108657836914,18.89230728149414
0.21448814868927002,0.06133672222495079,9.76596450805664,-0.001320984076733546,-0.0030764358375836983,-0.04225097995389066,3.339968681335449,2019-07-25 15:24:13:250,-178.51215719000925,167.3341315198317,0,-14.993894577026367,21.89108657836914,18.89230728149414
0.21927765011787415,0.037389226257801056,9.801885604858398,-0.0047839387353934655,0.0019848058466858938,-0.04278374116877181,3.3500149250030518,2019-07-25 15:24:13:261,-178.51740270210863,167.58577642032552,0,-14.993894577026367,21.89108657836914,18.89230728149414
0.21688289940357208,-0.012900516390800476,9.809069633483887,1.0921627247073539e-05,-0.004408341475529821,-0.04278374116877181,3.3599979877471924,2019-07-25 15:24:13:270,-178.5192509861668,160.63556183368556,0,-14.993894577026367,21.89108657836914,18.89230728149414
0.20011965930461884,0.06373147666454315,9.777937889099121,-0.0039847956127001165,-0.0038755792203513722,-0.044914790189485604,3.369988441467285,2019-07-25 15:24:13:280,-178.52324236309443,161.01761707788376,0,-14.993894577026367,21.89108657836914,18.89230728149414
0.252804160118103,0.030204977840185165,9.76596450805664,-0.0039847956127001165,-0.002277292454816025,-0.046779460683353424,3.380156993865967,2019-07-25 15:24:13:291,-178.52182043670558,161.3959957358836,0,-14.993894577026367,21.89108657836914,18.89230728149414
0.21688289940357208,0.020625978708267212,9.770753860473633,0.0010764462016066379,-0.00041262439914499955,-0.04305012385680698,3.389984130859375,2019-07-25 15:24:13:300,-178.52572445983293,161.76506283180782,0,-14.993894577026367,21.89108657836914,18.89230728149414
0.22646190226078033,0.03499447554349899,9.782727241516113,-0.003718414485110892,-0.0014781489420111885,-0.048377744327996866,3.399970293045044,2019-07-25 15:24:13:310,-178.52785889597607,162.1277474536167,0,-14.993894577026367,21.89108657836914,18.89230728149414
0.21927765011787415,0.02541547827422619,9.775543212890625,-0.0005218406614565815,-0.0009453866868327393,-0.04358288507168813,3.409975290298462,2019-07-25 15:24:13:320,-178.53107061061814,162.482506399465,0,-14.993894577026367,21.89108657836914,18.89230728149414
0.19293540716171265,0.04696822538971901,9.770753860473633,-0.004251176740289341,-0.007338533879011292,-0.04518117287752078,3.4199442863464355,2019-07-25 15:24:13:330,-178.5337168415641,162.82972750206554,0,-14.993894577026367,21.89108657836914,18.89230728149414
0.21209339797496796,0.04696822538971901,9.76596450805664,-0.001320984076733546,-0.002810054709994474,-0.044914790189485604,3.429948568344116,2019-07-25 15:24:13:340,-178.53658135206416,163.1683639004193,0,-14.993894577026367,21.89108657836914,18.89230728149414
0.18814590573310852,0.06852097064256668,9.768359184265137,-0.003718414485110892,-0.0020109111971896377,-0.04198459726585548,3.439955234527588,2019-07-25 15:24:13:350,-178.5426513855735,163.49904791020802,0,-14.993894577026367,21.89108657836914,18.89230728149414
0.19293540716171265,0.07809997349977493,9.842596054077148,-0.0015873652043227706,-0.0033428169651729235,-0.04011993093317686,3.449950933456421,2019-07-25 15:24:13:360,-178.5474627192001,163.82086534214105,0,-14.993894577026367,21.89108657836914,18.89230728149414
0.1953301578760147,0.04217872768640518,9.732437133789062,-0.0023865085870904443,-0.00041262439914499955,-0.044914790189485604,3.459951400756836,2019-07-25 15:24:13:370,-178.55328631026225,164.1408219470103,0,-14.993894577026367,21.89108657836914,18.89230728149414
0.20490914583206177,0.03499447554349899,9.818648338317871,-0.001320984076733546,-0.0025436735824052492,-0.03932078703026053,3.469944953918457,2019-07-25 15:24:13:380,-178.55688215365188,164.45466263991113,0,-14.993894577026367,21.89108657836914,18.89230728149414
0.21688289940357208,0.03978397697210312,9.792305946350098,-0.00212012745950122,-0.001744530069600413,-0.046779460683353424,3.4799487590789795,2019-07-25 15:24:13:390,-178.55938865669188,164.76210471236507,0,-14.993894577026367,21.89108657836914,18.89230728149414
0.23125140368938446,0.020625978708267212,9.787516593933105,-0.0029192708422688934,-0.001744530069600413,-0.0470458392101994,3.489945888519287,2019-07-25 15:24:13:400,-178.56015189746188,165.06608644261925,0,-14.993894577026367,21.89108657836914,18.89230728149414
0.2360409051179886,0.013441730290651321,9.801885604858398,1.0921627247073539e-05,0.004648617382652464,-0.041185453362939155,3.499957323074341,2019-07-25 15:24:13:410,-178.5639723769467,165.36318713391572,0,-14.993894577026367,21.89108657836914,18.89230728149414
0.2551988959312439,0.044573474675416946,9.797096252441406,-0.001320984076733546,-0.0025436735824052492,-0.04225097995389066,3.5099477767944336,2019-07-25 15:24:13:420,-178.56142347930688,165.65145092149461,0,-14.993894577026367,21.89108657836914,18.89230728149414
0.22406715154647827,0.03259972855448723,9.794700622558594,-0.0023865085870904443,0.0003865190486412555,-0.04518117287752078,3.519953727722168,2019-07-25 15:24:13:430,-178.56420235637452,165.93594878195276,0,-14.993894577026367,21.89108657836914,18.89230728149414
0.23364615440368652,0.02541547827422619,9.763568878173828,-0.0023865085870904443,-0.003609198092762148,-0.04464841166263963,3.529984474182129,2019-07-25 15:24:13:440,-178.5634685274459,166.2155910295595,0,-14.993894577026367,23.090599060058594,17.992673873901367
0.21927765011787415,0.0014679816085845232,9.758779525756836,0.0018755895843743117,0.00012013789667006295,-0.04917688823091319,3.5399513244628906,2019-07-25 15:24:13:450,-178.56652224893304,166.4900571827309,0,-14.993894577026367,23.090599060058594,17.992673873901367
0.21448814868927002,0.051757726818323135,9.78512191772461,-0.0007882218215550968,-0.0006790055592435148,-0.04411564628656928,3.5499484539031982,2019-07-25 15:24:13:460,-178.5696964065973,166.75463731263545,0,-14.993894577026367,23.090599060058594,17.992673873901367
0.20730389654636383,0.030204977840185165,9.737227439880371,-0.0018537463319119952,-0.0033428169651729235,-0.04624669530728308,3.5599522590637207,2019-07-25 15:24:13:470,-178.572032116279,167.01703120816515,0,-14.993894577026367,23.090599060058594,17.992673873901367
0.23125140368938446,0.03499447554349899,9.775543212890625,-0.0023865085870904443,-0.0014781489420111885,-0.042517362641925835,3.569948196411133,2019-07-25 15:24:13:480,-178.57265897305234,167.27392793146166,0,-14.993894577026367,23.090599060058594,17.992673873901367
0.2096986472606659,0.07809997349977493,9.777937889099121,-0.0031856519698581177,-0.0020109111971896377,-0.042517362641925835,3.5799448490142822,2019-07-25 15:24:13:490,-178.5755053923926,167.52108486016022,0,-14.993894577026367,23.090599060058594,17.992673873901367
0.21927765011787415,0.04936297610402107,9.749200820922852,-0.0047839387353934655,0.00118566246391822,-0.04038631362121203,3.5899524688720703,2019-07-25 15:24:13:500,-178.57889211268446,167.76754933796235,0,-14.993894577026367,23.090599060058594,17.992673873901367
0.23364615440368652,0.03978397697210312,9.773148536682129,-0.0058494637658990135,-0.0020109111971896377,-0.041451836050974335,3.599947929382324,2019-07-25 15:24:13:510,-178.57879553201147,168.0108166239516,0,-14.993894577026367,23.090599060058594,17.992673873901367
0.23843564093112946,0.03499447554349899,9.821043014526367,-0.0026528897146796686,-0.0014781489420111885,-0.04171821873900951,3.6099538803100586,2019-07-25 15:24:13:520,-178.57857403239117,168.24800764697278,0,-14.993894577026367,23.090599060058594,17.992673873901367
0.2025144100189209,0.080494724214077,9.799490928649902,-0.006115844893488239,0.0019848058466858938,-0.04225097995389066,3.6199464797973633,2019-07-25 15:24:13:530,-178.58443829015724,168.47706645282705,0,-14.993894577026367,23.090599060058594,17.992673873901367
0.21688289940357208,0.02541547827422619,9.761174201965332,-0.0007882218215550968,-0.003609198092762148,-0.03772249922442789,3.6299495697021484,2019-07-25 15:24:13:540,-178.58526550246472,168.70498419604982,0,-14.993894577026367,23.090599060058594,17.992673873901367
0.24322514235973358,0.06133672222495079,9.725253105163574,-0.0023865085870904443,-0.003609198092762148,-0.04651307799531825,3.6399428844451904,2019-07-25 15:24:13:550,-178.58288201654506,168.92499649672982,0,-14.993894577026367,23.090599060058594,17.992673873901367
0.23843564093112946,0.030204977840185165,9.722858428955078,-0.0029192708422688934,-0.0009453866868327393,-0.041185453362939155,3.6499500274658203,2019-07-25 15:24:13:560,-178.58259727315834,169.1445770207227,0,-14.993894577026367,23.090599060058594,17.992673873901367
0.2360409051179886,0.03978397697210312,9.775543212890625,-0.003452033357521668,0.002251186974275118,-0.041185453362939155,3.659944534301758,2019-07-25 15:24:13:570,-178.584544694545,169.35895916805922,0,-14.993894577026367,23.990232467651367,18.592430114746094
0.21448814868927002,0.05654722452163696,9.734832763671875,-0.003718414485110892,0.002251186974275118,-0.04544755140436675,3.6699604988098145,2019-07-25 15:24:13:580,-178.58887591517558,169.56721493852436,0,-14.993894577026367,23.990232467651367,18.592430114746094
0.16659316420555115,0.037389226257801056,9.770753860473633,-0.0047839387353934655,-0.005740247113475944,-0.03985354824514169,3.679945468902588,2019-07-25 15:24:13:590,-178.59434392005173,169.77416778445905,0,-14.993894577026367,23.990232467651367,18.592430114746094
0.18575115501880646,0.008652230724692345,9.74441146850586,-0.004517557607804241,0.002517568101864343,-0.04305012385680698,3.6899466514587402,2019-07-25 15:24:13:600,-178.60202964775277,169.9802038532709,0,-14.993894577026367,23.990232467651367,18.592430114746094
0.1761721521615982,0.008652230724692345,9.746806144714355,-0.0018537463319119952,0.0009192813363289952,-0.04091907483609319,3.699950933456421,2019-07-25 15:24:13:610,-178.60979544281625,170.18062387001763,0,-14.993894577026367,23.990232467651367,18.592430114746094
0.1761721521615982,0.080494724214077,9.725253105163574,-0.0007882218215550968,-0.0014781489420111885,-0.03852164312734421,3.7099480628967285,2019-07-25 15:24:13:620,-178.61601389801172,170.3679694651798,0,-14.993894577026367,23.990232467651367,18.592430114746094
0.24083039164543152,0.06612621992826462,9.809069633483887,-0.006648607148666687,-0.0038755792203513722,-0.04198459726585548,3.719956159591675,2019-07-25 15:24:13:630,-178.61338707739165,170.55662139905837,0,-14.993894577026367,23.990232467651367,18.592430114746094
0.21927765011787415,0.04217872768640518,9.782727241516113,-0.0005218406614565815,-0.002277292454816025,-0.04091907483609319,3.7299466133117676,2019-07-25 15:24:13:640,-178.6141607177777,170.74084106125454,0,-14.993894577026367,23.990232467651367,18.592430114746094
0.24561989307403564,0.0733104720711708,9.775543212890625,-0.0023865085870904443,-0.0020109111971896377,-0.03985354824514169,3.739945411682129,2019-07-25 15:24:13:650,-178.61196234431844,170.91877060980033,0,-14.993894577026367,23.990232467651367,18.592430114746094
0.24083039164543152,0.051757726818323135,9.780332565307617,-0.0026528897146796686,-0.002810054709994474,-0.04091907483609319,3.7499489784240723,2019-07-25 15:24:13:660,-178.60993342883188,171.09582116993516,0,-14.993894577026367,23.990232467651367,18.592430114746094
0.20730389654636383,0.04217872768640518,9.821043014526367,-0.0026528897146796686,-0.0025436735824052492,-0.03932078703026053,3.7599496841430664,2019-07-25 15:24:13:670,-178.61212184124741,171.2704730778636,0,-14.993894577026367,23.990232467651367,18.592430114746094
0.20011965930461884,0.044573474675416946,9.804280281066895,-0.0029192708422688934,-0.0009453866868327393,-0.04038631362121203,3.7699525356292725,2019-07-25 15:24:13:680,-178.61596185876172,171.4414935779937,0,-14.993894577026367,23.990232467651367,18.592430114746094
0.21448814868927002,0.03259972855448723,9.787516593933105,-0.0039847956127001165,-0.0001462432553011296,-0.04358288507168813,3.7799506187438965,2019-07-25 15:24:13:690,-178.61845241848042,171.61108399557207,0,-16.493284225463867,21.89108657836914,17.39291763305664
0.21209339797496796,0.018231229856610298,9.787516593933105,-0.0018537463319119952,-0.0006790055592435148,-0.04011993093317686,3.7899441719055176,2019-07-25 15:24:13:700,-178.62087449439738,171.77776802350883,0,-16.493284225463867,21.89108657836914,17.39291763305664
0.2360409051179886,0.051757726818323135,9.83541202545166,0.0002773027863296734,0.0006529002087397708,-0.03425954508591662,3.799966812133789,2019-07-25 15:24:13:710,-178.62132878753013,171.93602641178626,0,-16.493284225463867,21.89108657836914,17.39291763305664
0.252804160118103,0.03978397697210312,9.799490928649902,-0.0047839387353934655,-0.0012117678144219638,-0.041185453362939155,3.8099677562713623,2019-07-25 15:24:13:720,-178.61866632988156,172.09534014926533,0,-16.493284225463867,21.89108657836914,17.39291763305664
0.23843564093112946,0.06133672222495079,9.768359184265137,-0.003452033357521668,0.003050330357042792,-0.03905440434222536,3.819963216781616,2019-07-25 15:24:13:730,-178.6200399094116,172.24817552881586,0,-16.493284225463867,21.89108657836914,17.39291763305664
0.18575115501880646,0.07091572135686874,9.770753860473633,-0.0018537463319119952,0.0009192813363289952,-0.03852164312734421,3.829946279525757,2019-07-25 15:24:13:740,-178.62637211063486,172.39593427011016,0,-16.493284225463867,21.89108657836914,17.39291763305664
0.19054065644741058,0.09725797176361084,9.770753860473633,0.0016092084567850867,-0.00041262439914499955,-0.04091907483609319,3.839946746826172,2019-07-25 15:24:13:750,-178.6312691627215,172.5357059201957,0,-16.493284225463867,21.89108657836914,17.39291763305664
0.16419841349124908,0.06852097064256668,9.761174201965332,-0.00558308263830979,0.0006529002087397708,-0.04225097995389066,3.8499443531036377,2019-07-25 15:24:13:760,-178.63973599658277,172.68008203960116,0,-16.493284225463867,21.89108657836914,17.39291763305664
0.16180366277694702,0.07091572135686874,9.782727241516113,-0.0029192708422688934,-0.0030764358375836983,-0.03932078703026053,3.8600010871887207,2019-07-25 15:24:13:771,-178.64625265584945,172.81982218276823,0,-16.493284225463867,21.89108657836914,17.39291763305664
0.24322514235973358,0.06373147666454315,9.833017349243164,-0.0031856519698581177,0.0006529002087397708,-0.041185453362939155,3.869948148727417,2019-07-25 15:24:13:780,-178.64535318515092,172.95777800393932,0,-16.493284225463867,21.89108657836914,17.39291763305664
0.20490914583206177,0.09007371962070465,9.792305946350098,-0.0047839387353934655,-0.0006790055592435148,-0.04464841166263963,3.8799569606781006,2019-07-25 15:24:13:790,-178.6480891381287,173.0907706730993,0,-16.493284225463867,21.89108657836914,17.39291763305664
0.18575115501880646,0.03259972855448723,9.854569435119629,-0.0023865085870904443,-0.0041419603479405966,-0.046779460683353424,3.8899502754211426,2019-07-25 15:24:13:800,-178.65120612337094,173.22650361565627,0,-16.493284225463867,21.89108657836914,17.39291763305664
0.19772490859031677,0.02541547827422619,9.78512191772461,-0.0018537463319119952,-0.0012117678144219638,-0.045713934092401924,3.8999483585357666,2019-07-25 15:24:13:810,-178.6543497169221,173.360037871939,0,-16.493284225463867,21.89108657836914,17.39291763305664
0.19054065644741058,0.06373147666454315,9.732437133789062,-0.005316700990571915,-0.0001462432553011296,-0.0481113658011509,3.9099504947662354,2019-07-25 15:24:13:820,-178.6587488373978,173.48831931503165,0,-14.843955993652344,22.340904235839844,18.44249153137207
0.16419841349124908,0.03978397697210312,9.76596450805664,-0.005050319862982691,0.005181379637830914,-0.044914790189485604,3.919950008392334,2019-07-25 15:24:13:830,-178.66921821151433,173.61672040491666,0,-14.843955993652344,22.340904235839844,18.44249153137207
0.19293540716171265,0.02781022898852825,9.768359184265137,-0.008246893914202035,-0.005207484858297496,-0.04624669530728308,3.9299559593200684,2019-07-25 15:24:13:840,-178.67027801122023,173.7457569932797,0,-14.843955993652344,22.340904235839844,18.44249153137207
0.2096986472606659,0.03499447554349899,9.837806701660156,-0.005050319862982691,-0.0006790055592435148,-0.052107081154543315,3.9399406909942627,2019-07-25 15:24:13:850,-178.67206960465026,173.8695971041345,0,-14.843955993652344,22.340904235839844,18.44249153137207
0.16419841349124908,0.02541547827422619,9.761174201965332,-0.0029192708422688934,-0.0014781489420111885,-0.04864412701603205,3.9499547481536865,2019-07-25 15:24:13:860,-178.67852276951498,173.99086298290433,0,-14.843955993652344,22.340904235839844,18.44249153137207
0.16659316420555115,0.03978397697210312,9.792305946350098,-0.0047839387353934655,-0.0030764358375836983,-0.04970965360698355,3.9599478244781494,2019-07-25 15:24:13:870,-178.68373290463967,174.10907446209967,0,-14.843955993652344,22.340904235839844,18.44249153137207
0.16659316420555115,0.020625978708267212,9.797096252441406,0.0008100650740174133,-0.0012117678144219638,-0.04411564628656928,3.9699535369873047,2019-07-25 15:24:13:880,-178.6898937903212,174.22402535228449,0,-14.843955993652344,22.340904235839844,18.44249153137207
0.20730389654636383,0.02781022898852825,9.75638484954834,-0.007181369403845137,-0.0006790055592435148,-0.04624669530728308,3.9799447059631348,2019-07-25 15:24:13:890,-178.6913702121589,174.3403072305254,0,-14.843955993652344,22.340904235839844,18.44249153137207
0.21927765011787415,-0.0081110168248415,9.830622673034668,-0.0029192708422688934,0.00118566246391822,-0.04970965360698355,3.9899537563323975,2019-07-25 15:24:13:900,-178.69265309477677,167.25608720396215,0,-14.843955993652344,22.340904235839844,18.44249153137207
0.21927765011787415,0.013441730290651321,9.813858985900879,-0.004251176740289341,-0.0009453866868327393,-0.04305012385680698,3.999946117401123,2019-07-25 15:24:13:910,-178.69266990206341,167.51178114327243,0,-14.843955993652344,22.340904235839844,18.44249153137207
0.2551988959312439,0.051757726818323135,9.83541202545166,-0.0029192708422688934,0.0027839492294535677,-0.046779460683353424,4.009952068328857,2019-07-25 15:24:13:920,-178.6906542788763,167.75715546887346,0,-14.843955993652344,22.340904235839844,18.44249153137207
0.23843564093112946,0.030204977840185165,9.828227996826172,-0.0007882218215550968,0.0014520435915074442,-0.04278374116877181,4.019952058792114,2019-07-25 15:24:13:930,-178.6898617229982,167.99893322669718,0,-14.843955993652344,22.340904235839844,18.44249153137207
0.2623831331729889,-0.005716267507523298,9.775543212890625,-0.0010546029491443213,0.00012013789667006295,-0.04544755140436675,4.029952049255371,2019-07-25 15:24:13:940,-178.68538206880388,161.04021679596636,0,-15.893528938293457,22.790719985961914,17.992673873901367
0.2480146437883377,0.006257480941712856,9.828227996826172,-0.0058494637658990135,0.0014520435915074442,-0.041451836050974335,4.039947271347046,2019-07-25 15:24:13:950,-178.6835783946804,161.42196577004813,0,-15.893528938293457,22.790719985961914,17.992673873901367
0.27675163745880127,0.018231229856610298,9.758779525756836,-0.0023865085870904443,0.0006529002087397708,-0.045713934092401924,4.049952268600464,2019-07-25 15:24:13:960,-178.67778501723058,161.79272636293075,0,-15.893528938293457,22.790719985961914,17.992673873901367
0.312672883272171,0.04936297610402107,9.797096252441406,-0.0031856519698581177,0.00118566246391822,-0.04038631362121203,4.0599448680877686,2019-07-25 15:24:13:970,-178.668335254072,162.15288556845047,0,-15.893528938293457,22.790719985961914,17.992673873901367
0.2480146437883377,0.037389226257801056,9.811464309692383,-0.0015873652043227706,0.00012013789667006295,-0.041185453362939155,4.069946527481079,2019-07-25 15:24:13:980,-178.66607567802734,162.50635250965655,0,-15.893528938293457,22.790719985961914,17.992673873901367
0.2863306403160095,0.051757726818323135,9.809069633483887,-0.0018537463319119952,0.003583092872295566,-0.04011993093317686,4.079949378967285,2019-07-25 15:24:13:990,-178.66132640426477,162.85122024484738,0,-15.893528938293457,22.790719985961914,17.992673873901367
0.2695674002170563,0.08528421819210052,9.763568878173828,-0.006115844893488239,-0.0025436735824052492,-0.03825526043930904,4.089946269989014,2019-07-25 15:24:14:000,-178.6550419128605,163.18761955803163,0,-15.893528938293457,22.790719985961914,17.992673873901367
0.2863306403160095,0.015836479142308235,9.75638484954834,0.0018755895843743117,-0.003609198092762148,-0.04091907483609319,4.099947690963745,2019-07-25 15:24:14:010,-178.64629351616438,163.520953837624,0,-15.893528938293457,22.790719985961914,17.992673873901367
0.259988397359848,0.03259972855448723,9.768359184265137,-0.004251176740289341,0.00118566246391822,-0.03852164312734421,4.10995078086853,2019-07-25 15:24:14:020,-178.643541841853,163.84909830389716,0,-15.893528938293457,22.790719985961914,17.992673873901367
0.2959096431732178,0.07091572135686874,9.780332565307617,-0.0007882218215550968,-0.0012117678144219638,-0.03745612069758192,4.119945287704468,2019-07-25 15:24:14:030,-178.63533120422014,164.16424996408438,0,-15.893528938293457,22.790719985961914,17.992673873901367
0.24083039164543152,0.044573474675416946,9.763568878173828,0.000543683913918898,-0.001744530069600413,-0.03559145020371409,4.129975318908691,2019-07-25 15:24:14:040,-178.63338240515805,164.47542737531197,0,-15.893528938293457,22.790719985961914,17.992673873901367
0.24322514235973358,0.023020729422569275,9.799490928649902,-0.0010546029491443213,-0.0009453866868327393,-0.04198459726585548,4.139930486679077,2019-07-25 15:24:14:050,-178.63175030904625,164.78381637863808,0,-15.893528938293457,22.790719985961914,17.992673873901367
0.252804160118103,0.03978397697210312,9.76596450805664,-0.001320984076733546,-0.002810054709994474,-0.03852164312734421,4.149970293045044,2019-07-25 15:24:14:060,-178.62787435038,165.08421660076573,0,-15.893528938293457,22.790719985961914,17.992673873901367
0.2815411388874054,0.011046980507671833,9.818648338317871,-0.0005218406614565815,0.0014520435915074442,-0.03905440434222536,4.159929990768433,2019-07-25 15:24:14:070,-178.62327977327897,165.38153482932867,0,-14.094261169433594,23.39047622680664,17.992673873901367
0.24561989307403564,0.03499447554349899,9.734832763671875,-0.0031856519698581177,0.002517568101864343,-0.037988881912463066,4.169949769973755,2019-07-25 15:24:14:080,-178.6233240830323,165.671577125816,0,-14.094261169433594,23.39047622680664,17.992673873901367
0.24083039164543152,0.03259972855448723,9.821043014526367,-0.001320984076733546,0.0049149985102416895,-0.03612421141859524,4.1799468994140625,2019-07-25 15:24:14:090,-178.6255222053411,165.95508339109574,0,-14.094261169433594,23.39047622680664,17.992673873901367
0.23364615440368652,0.04696822538971901,9.746806144714355,-0.004251176740289341,0.002251186974275118,-0.037988881912463066,4.189958095550537,2019-07-25 15:24:14:100,-178.62681308966447,166.2328494933307,0,-14.094261169433594,23.39047622680664,17.992673873901367
0.23364615440368652,0.05654722452163696,9.852174758911133,-0.00212012745950122,-0.002810054709994474,-0.032661259360678575,4.199947834014893,2019-07-25 15:24:14:110,-178.62553009690362,166.50280474261785,0,-14.094261169433594,23.39047622680664,17.992673873901367
0.24083039164543152,0.018231229856610298,9.792305946350098,-0.006382226021077464,0.0014520435915074442,-0.03852164312734421,4.209949493408203,2019-07-25 15:24:14:120,-178.62565816777925,166.77419940046107,0,-14.094261169433594,23.39047622680664,17.992673873901367
0.2360409051179886,0.023020729422569275,9.821043014526367,-0.0005218406614565815,0.004115855127474016,-0.031595732769727075,4.219947099685669,2019-07-25 15:24:14:130,-178.62791963574946,167.0363223100376,0,-14.094261169433594,23.39047622680664,17.992673873901367
0.2216724008321762,0.02781022898852825,9.730042457580566,-0.0010546029491443213,0.0017184247190966692,-0.02973106643704845,4.229947090148926,2019-07-25 15:24:14:140,-178.63022409848972,167.29291279537762,0,-14.094261169433594,23.39047622680664,17.992673873901367
0.23843564093112946,0.03259972855448723,9.813858985900879,-0.004251176740289341,-0.00041262439914499955,-0.03212849606520282,4.239948272705078,2019-07-25 15:24:14:150,-178.62955243117258,167.54563535725202,0,-14.094261169433594,23.39047622680664,17.992673873901367
0.1953301578760147,0.037389226257801056,9.83541202545166,-0.0058494637658990135,-0.002277292454816025,-0.03639059410663042,4.249954700469971,2019-07-25 15:24:14:160,-178.63292710275505,167.79365306088067,0,-14.094261169433594,23.39047622680664,17.992673873901367
0.1761721521615982,0.03499447554349899,9.734832763671875,-0.0010546029491443213,-0.0038755792203513722,-0.035058688988832944,4.259948015213013,2019-07-25 15:24:14:170,-178.63735840804694,168.03425247775468,0,-14.094261169433594,23.39047622680664,17.992673873901367
0.18814590573310852,0.015836479142308235,9.787516593933105,-0.004251176740289341,0.0033167117447063417,-0.03479230838139237,4.269952297210693,2019-07-25 15:24:14:180,-178.64444908825075,168.27410135800773,0,-14.094261169433594,23.39047622680664,17.992673873901367
0.14504040777683258,0.06133672222495079,9.742016792297363,-0.003452033357521668,0.0003865190486412555,-0.03852164312734421,4.279947996139526,2019-07-25 15:24:14:190,-178.65471776369253,168.50334210417077,0,-15.29377269744873,23.690353393554688,17.992673873901367
0.11630341410636902,0.06373147666454315,9.706095695495605,-0.0026528897146796686,0.0019848058466858938,-0.04091907483609319,4.289953708648682,2019-07-25 15:24:14:200,-178.6690082199345,168.72724158549735,0,-15.29377269744873,23.690353393554688,17.992673873901367
0.10911916196346283,0.03259972855448723,9.76596450805664,-0.0026528897146796686,0.00118566246391822,-0.04438202897460446,4.299947738647461,2019-07-25 15:24:14:210,-178.68349014974024,168.95036029624868,0,-15.29377269744873,23.690353393554688,17.992673873901367
0.07080317288637161,0.06612621992826462,9.809069633483887,-0.005050319862982691,0.0033167117447063417,-0.049443270918948366,4.3099470138549805,2019-07-25 15:24:14:220,-178.70341131297673,169.16646374919188,0,-15.29377269744873,23.690353393554688,17.992673873901367
0.23125140368938446,0.06133672222495079,9.797096252441406,-0.006115844893488239,-0.00041262439914499955,-0.04624669530728308,4.319960832595825,2019-07-25 15:24:14:230,-178.7020678215893,169.3793991133196,0,-15.29377269744873,23.690353393554688,17.992673873901367
0.18575115501880646,0.1259949654340744,9.739622116088867,0.0021419707119635363,0.004648617382652464,-0.04731222189823458,4.329946756362915,2019-07-25 15:24:14:240,-178.7087810736418,169.57578699503168,0,-15.29377269744873,23.690353393554688,17.992673873901367
0.21927765011787415,0.03499447554349899,9.80667495727539,-0.0023865085870904443,-0.004674722603119046,-0.05077517603674584,4.339950084686279,2019-07-25 15:24:14:250,-178.70636127796863,169.78152261528686,0,-15.29377269744873,23.690353393554688,17.992673873901367
0.1306719183921814,0.013441730290651321,9.813858985900879,-0.0058494637658990135,-0.00041262439914499955,-0.043316502383652956,4.3499462604522705,2019-07-25 15:24:14:260,-178.71674544341568,169.98760584973977,0,-15.29377269744873,23.690353393554688,17.992673873901367
0.24561989307403564,-0.027269015088677406,9.71567440032959,-0.004251176740289341,-0.0033428169651729235,-0.048910509704067226,4.359947443008423,2019-07-25 15:24:14:270,-178.7115698469953,162.99345728156595,0,-15.29377269744873,23.690353393554688,17.992673873901367
0.44917362928390503,-0.28829672932624817,9.794700622558594,-0.010644324062505057,0.0009192813363289952,-0.060098516022517354,4.369946479797363,2019-07-25 15:24:14:280,-178.68534100541567,156.17328342067432,0,-15.29377269744873,23.690353393554688,17.992673873901367
0.24561989307403564,0.16910046339035034,9.725253105163574,0.0029411142247683726,-0.0014781489420111885,-0.05397175164841114,4.379953145980835,2019-07-25 15:24:14:290,-178.68186868990057,156.62824231075453,0,-15.29377269744873,23.690353393554688,17.992673873901367
0.11151391267776489,0.16431096196174622,9.90485954284668,0.019989508210999023,-0.0006790055592435148,-0.05929937211960103,4.389944791793823,2019-07-25 15:24:14:300,-178.6949496223398,157.065454996546,0,-15.29377269744873,23.690353393554688,17.992673873901367
0.03967142477631569,-0.22842799127101898,9.928807258605957,-0.021033188558633467,0.0009192813363289952,-0.06143042114031483,4.399945497512817,2019-07-25 15:24:14:310,-178.71698825913438,150.36231579626815,0,-15.29377269744873,23.690353393554688,17.992673873901367
0.08277691900730133,-0.32182323932647705,9.95514965057373,-0.015172803751670527,0.008644334296490834,-0.07288481014680014,4.40994930267334,2019-07-25 15:24:14:320,-178.7379760715926,143.80062370645533,0,-15.593650817871094,22.790719985961914,19.492063522338867
0.631174623966217,0.918657124042511,9.095434188842773,0.07299935104080876,0.019299580960505765,-0.06063127723739851,4.419946193695068,2019-07-25 15:24:14:330,-178.69465671822385,144.3682863408287,0,-15.593650817871094,22.790719985961914,19.492063522338867
0.259988397359848,1.1772900819778442,8.92061710357666,0.059147534486763687,0.028356538258242105,-0.0774132908762629,4.429985046386719,2019-07-25 15:24:14:340,-178.7033597285479,144.89721812561393,0,-15.593650817871094,22.790719985961914,19.492063522338867
1.009545087814331,0.34391719102859497,9.68693733215332,-0.0447411104745204,0.003583092872295566,-0.04864412701603205,4.439956426620483,2019-07-25 15:24:14:350,-178.61230417812243,145.5836573570215,0,-15.593650817871094,22.790719985961914,19.492063522338867
0.6192008256912231,-0.18292774260044098,9.507330894470215,0.03437409014111445,-0.0020109111971896377,-0.06249594773126633,4.449969053268433,2019-07-25 15:24:14:360,-178.56440072095472,139.07470433720812,0,-15.593650817871094,22.790719985961914,19.492063522338867
0.2216724008321762,0.0996527224779129,9.63664722442627,0.0170593152873689,0.0067796664033662616,-0.059565754807636206,4.459964036941528,2019-07-25 15:24:14:370,-178.57056264999406,139.87178676416883,0,-15.593650817871094,22.790719985961914,19.492063522338867
0.32464665174484253,0.2768642008304596,9.655805587768555,1.0921627247073539e-05,-0.0030764358375836983,-0.04757860042508055,4.469978094100952,2019-07-25 15:24:14:380,-178.55890818824616,140.6414966601506,0,-15.593650817871094,22.790719985961914,19.492063522338867
0.1498299092054367,-0.14461174607276917,9.878517150878906,-0.019168520145360243,-0.0033428169651729235,-0.05104155872478103,4.479960680007935,2019-07-25 15:24:14:390,-178.56847725373174,134.25618495762896,0,-15.593650817871094,22.790719985961914,19.492063522338867
0.20011965930461884,-0.1350327581167221,9.770753860473633,-0.005316700990571915,-0.0009453866868327393,-0.052373463842578495,4.489948749542236,2019-07-25 15:24:14:400,-178.57311072368165,127.98987867276878,0,-15.593650817871094,22.790719985961914,19.492063522338867
0.2863306403160095,0.1978374570608139,9.780332565307617,0.015461027481536252,0.002517568101864343,-0.056369179195970905,4.499967813491821,2019-07-25 15:24:14:410,-178.5695263797335,128.99820667926375,0,-15.593650817871094,22.790719985961914,19.492063522338867
0.24322514235973358,0.21460069715976715,9.730042457580566,0.0029411142247683726,0.0009192813363289952,-0.04171821873900951,4.5099427700042725,2019-07-25 15:24:14:420,-178.5700118615984,129.99132563533348,0,-15.593650817871094,22.790719985961914,19.492063522338867
0.34859412908554077,-0.1158747524023056,9.737227439880371,-0.008246893914202035,0.00118566246391822,-0.0481113658011509,4.519959449768066,2019-07-25 15:24:14:430,-178.55827205399913,123.80977342342884,0,-15.593650817871094,22.790719985961914,19.492063522338867
0.3390151262283325,0.037389226257801056,9.749200820922852,-0.0031856519698581177,-0.002277292454816025,-0.051307937251626995,4.529979228973389,2019-07-25 15:24:14:440,-178.54599378925525,124.93097554507605,0,-14.244200706481934,22.940658569335938,18.742368698120117
