ACCELEROMETER X (m/s²),ACCELEROMETER Y (m/s²),ACCELEROMETER Z (m/s²),GYROSCOPE X (rad/s),GYROSCOPE Y (rad/s),GYROSCOPE Z (rad/s),Time since start in ms ,YYYY-MO-DD HH-MI-SS_SSS,Pitch (Deg),Roll (Deg),Heading (Deg),MagX,MagY,MagZ
0.044932689517736435,-0.23593074083328247,9.618284225463867,-3.9957173202045016e-05,0.014373127216536186,-0.0013889113292873795,0.0,2019-08-06 15:05:33:921,-3.5946467900441545,-3.571897013687873,0,-5.6976799964904785,44.981685638427734,-17.69279670715332
0.018590440973639488,-0.1425355076789856,9.618284225463867,0.0012919485988449018,0.016237795629809405,0.00020937558253977584,0.010013103485107422,2019-08-06 15:05:33:931,-7.129668452245131,-7.0842051145707,0,-5.6976799964904785,44.981685638427734,-17.69279670715332
0.00901144277304411,-0.1425355076789856,9.716469764709473,-0.004035674213013915,0.013041222098738713,0.0012749002066791914,0.019998550415039062,2019-08-06 15:05:33:941,-10.593324287333292,-10.523449510312805,0,-5.6976799964904785,44.981685638427734,-17.69279670715332
0.04972218722105026,-0.1880357414484024,9.64462661743164,0.002890235364380249,0.01410674660909561,0.0012749002066791914,0.029999732971191406,2019-08-06 15:05:33:951,-13.983472023241108,-13.892265147720824,0,-5.6976799964904785,44.981685638427734,-17.69279670715332
0.025774691253900528,-0.19043049216270447,9.618284225463867,-0.0011054818095324445,0.010910172037727614,0.0028731869722145387,0.03999829292297363,2019-08-06 15:05:33:961,-17.306856976185355,-17.19111441704614,0,-5.6976799964904785,44.981685638427734,-17.69279670715332
0.023379940539598465,-0.1808515042066574,9.66139030456543,0.0007591862786478714,0.015172271119452508,-0.0027208169672335025,0.050000667572021484,2019-08-06 15:05:33:971,-20.56646803295805,-20.426270630168013,0,-5.6976799964904785,44.981685638427734,-17.69279670715332
0.09522242844104767,-0.17366725206375122,9.613494873046875,-3.9957173202045016e-05,0.006648073996300022,0.006602523018538008,0.0600128173828125,2019-08-06 15:05:33:981,-23.7475260786432,-23.597024104198766,0,-5.6976799964904785,44.981685638427734,-17.69279670715332
0.07845918089151382,-0.17845675349235535,9.630258560180664,-0.002703768575067792,0.014373127216536186,0.005004236253002661,0.07000350952148438,2019-08-06 15:05:33:991,-26.871302794530727,-26.702334527701186,0,-5.6976799964904785,44.981685638427734,-17.69279670715332
0.04253793880343437,-0.20958849787712097,9.678153038024902,-0.0013718629371216693,0.012242078195822388,0.003938711482571438,0.07999849319458008,2019-08-06 15:05:34:001,-29.93571064330355,-29.742706042180334,0,-5.6976799964904785,44.981685638427734,-17.69279670715332
0.0664854347705841,-0.19282524287700653,9.67336368560791,-0.0016382440647108938,0.011709315940643939,0.003672330354982212,0.09000492095947266,2019-08-06 15:05:34:011,-32.93569961955558,-32.7240922267442,0,-5.6976799964904785,44.981685638427734,-17.69279670715332
0.04972218722105026,-0.1497197449207306,9.6901273727417,0.0007591862786478714,0.012508459843560263,0.006069760763359559,0.10001611709594727,2019-08-06 15:05:34:021,-35.878137079141865,-35.65233329382131,0,-5.09792423248291,45.28156280517578,-18.592430114746094
0.03535369038581848,-0.15211449563503265,9.611100196838379,-0.002703768575067792,0.012508459843560263,0.005270617380591885,0.1100003719329834,2019-08-06 15:05:34:031,-38.76337161909414,-38.51963601017047,0,-5.09792423248291,45.28156280517578,-18.592430114746094
0.006616693455725908,-0.13774600625038147,9.678153038024902,-0.002703768575067792,0.013840364961357736,0.0071352852737164565,0.11999869346618652,2019-08-06 15:05:34:041,-41.59509079680096,-41.331417039429176,0,-5.09792423248291,45.28156280517578,-18.592430114746094
0.07606443762779236,-0.1616934984922409,9.658995628356934,-3.9957173202045016e-05,0.014639508864274061,0.004205092610160662,0.13000011444091797,2019-08-06 15:05:34:051,-44.362386332629974,-44.085585197373845,0,-5.09792423248291,45.28156280517578,-18.592430114746094
0.059301186352968216,-0.19043049216270447,9.670969009399414,0.0004928051185493561,0.01357398435391716,0.001541281334268416,0.1399986743927002,2019-08-06 15:05:34:061,-47.07573275748248,-46.78158892089614,0,-5.09792423248291,45.28156280517578,-18.592430114746094
0.025774691253900528,-0.19282524287700653,9.60391616821289,-0.002171006319889343,0.011975696548084513,-5.7005565367755386e-05,0.15001773834228516,2019-08-06 15:05:34:071,-49.73787989368452,-49.421731459870905,0,-5.09792423248291,45.28156280517578,-18.592430114746094
0.016195692121982574,-0.1880357414484024,9.599126815795898,0.0007591862786478714,0.011975696548084513,0.0026068058446253144,0.15999817848205566,2019-08-06 15:05:34:081,-52.34790008805252,-52.01127799441736,0,-5.09792423248291,45.28156280517578,-18.592430114746094
0.03535369038581848,-0.2143779993057251,9.651811599731445,0.0004928051185493561,0.013307602706179285,0.0007421378864821609,0.1700000762939453,2019-08-06 15:05:34:091,-54.9042183414693,-54.54588125814594,0,-5.09792423248291,45.28156280517578,-18.592430114746094
0.04253793880343437,-0.18564099073410034,9.687732696533203,-0.0037692930854246903,0.01810246300278533,0.0026068058446253144,0.18000102043151855,2019-08-06 15:05:34:101,-57.41126786555198,-57.03089108199457,0,-5.09792423248291,45.28156280517578,-18.592430114746094
0.052116937935352325,-0.20240424573421478,9.623074531555176,0.004488522389989922,0.014905889471714633,0.003938711482571438,0.1900010108947754,2019-08-06 15:05:34:111,-59.86520611329755,-59.46869481552411,0,-5.09792423248291,45.28156280517578,-18.592430114746094
0.03535369038581848,-0.22635173797607422,9.606310844421387,-0.0008391006169246387,0.015438651726893083,0.007401666401305682,0.2000129222869873,2019-08-06 15:05:34:121,-62.27236385414082,-61.85185320095099,0,-5.09792423248291,45.28156280517578,-18.592430114746094
0.06888018548488617,-0.17845675349235535,9.642231941223145,-0.004035674213013915,0.011442934292906064,0.003938711482571438,0.20999932289123535,2019-08-06 15:05:34:131,-64.62514721529094,-64.19134720743747,0,-5.09792423248291,45.28156280517578,-18.592430114746094
0.02816944010555744,-0.16648299992084503,9.678153038024902,-0.0003063383292368989,0.014905889471714633,0.0026068058446253144,0.21999692916870117,2019-08-06 15:05:34:141,-66.93767658707013,-66.48763826957666,0,-5.09792423248291,45.28156280517578,-18.592430114746094
0.04253793880343437,-0.19043049216270447,9.651811599731445,0.0012919485988449018,0.010111029175108591,0.005004236253002661,0.23000097274780273,2019-08-06 15:05:34:151,-69.19955237727241,-68.73600521370928,0,-5.397802352905273,46.18119812011719,-18.292551040649414
0.013800942339003086,-0.20958849787712097,9.59194278717041,-0.0016382440647108938,0.013307602706179285,0.0007421378864821609,0.24001741409301758,2019-08-06 15:05:34:161,-71.42139706705018,-70.93532890997811,0,-5.397802352905273,46.18119812011719,-18.292551040649414
-0.0149360541254282,-0.19282524287700653,9.680547714233398,0.0004928051185493561,0.012774840451000838,0.0031395680998037635,0.24999785423278809,2019-08-06 15:05:34:171,-66.40189617515296,-73.09407621316736,0,-5.397802352905273,46.18119812011719,-18.292551040649414
0.037748441100120544,-0.1688777506351471,9.651811599731445,-0.0019046251923001184,0.009045504664751694,0.0010085190140713856,0.26000165939331055,2019-08-06 15:05:34:181,-68.67445754539354,-75.21107679776384,0,-5.397802352905273,46.18119812011719,-18.292551040649414
0.011406192556023598,-0.19761474430561066,9.611100196838379,-3.9957173202045016e-05,0.012508459843560263,0.003672330354982212,0.26999783515930176,2019-08-06 15:05:34:191,-70.90662925087567,-77.28327487456723,0,-5.397802352905273,46.18119812011719,-18.292551040649414
0.0473274365067482,-0.20240424573421478,9.70210075378418,0.0012919485988449018,0.014905889471714633,-0.0003233867214026093,0.2799999713897705,2019-08-06 15:05:34:201,-73.09127828897772,-79.31443245135533,0,-5.397802352905273,46.18119812011719,-18.292551040649414
0.02816944010555744,-0.2143779993057251,9.654206275939941,0.0007591862786478714,0.011975696548084513,0.0010085190140713856,0.29001832008361816,2019-08-06 15:05:34:211,-75.2328458086477,-81.30312923841755,0,-5.397802352905273,46.18119812011719,-18.292551040649414
0.04972218722105026,-0.17127250134944916,9.615889549255371,0.0026238542367910244,0.010111029175108591,-0.0013889113292873795,0.3000030517578125,2019-08-06 15:05:34:221,-77.3279322645638,-83.2581294862701,0,-5.397802352905273,46.18119812011719,-18.292551040649414
0.052116937935352325,-0.18324624001979828,9.654206275939941,-0.002171006319889343,0.017836082395344753,-0.0027208169672335025,0.3099985122680664,2019-08-06 15:05:34:231,-79.38519799744311,-85.17000045011235,0,-5.397802352905273,46.18119812011719,-18.292551040649414
0.02816944010555744,-0.15929874777793884,9.639837265014648,-0.005900342106138487,0.011709315940643939,-0.002987198094822727,0.31999754905700684,2019-08-06 15:05:34:241,-81.40071959514403,-87.04435314249662,0,-5.397802352905273,46.18119812011719,-18.292551040649414
0.09522242844104767,-0.1497197449207306,9.709284782409668,-0.003502911957835466,0.011975696548084513,-0.003786341477590401,0.3300037384033203,2019-08-06 15:05:34:251,-83.36819565874355,-88.88382906021347,0,-5.397802352905273,46.18119812011719,-18.292551040649414
0.14311742782592773,-0.2071937471628189,9.675758361816406,0.0010255674062370958,0.009844647527370716,-0.002987198094822727,0.34001779556274414,2019-08-06 15:05:34:261,-85.28941888150304,-90.6821946048394,0,-5.397802352905273,46.18119812011719,-18.292551040649414
0.04253793880343437,-0.21198324859142303,9.623074531555176,0.0004928051185493561,0.012508459843560263,0.0010085190140713856,0.34999775886535645,2019-08-06 15:05:34:271,-87.18557453010533,-92.44358798717548,0,-5.09792423248291,45.881317138671875,-19.492063522338867
0.05690643563866615,-0.19043049216270447,9.608705520629883,0.0007591862786478714,0.012508459843560263,0.0010085190140713856,0.3599987030029297,2019-08-06 15:05:34:281,-89.04210071396173,-94.17243515111839,0,-5.09792423248291,45.881317138671875,-19.492063522338867
0.12874892354011536,-0.1952199935913086,9.637442588806152,0.0002264239747054862,0.012242078195822388,-0.0021880547120550534,0.37000036239624023,2019-08-06 15:05:34:291,-90.8528260980136,-95.865904643348,0,-5.09792423248291,45.881317138671875,-19.492063522338867
0.0473274365067482,-0.20479899644851685,9.67336368560791,-0.002171006319889343,0.01357398435391716,-0.0005897678815011245,0.37999987602233887,2019-08-06 15:05:34:301,-92.63778457201752,-97.5231105383481,0,-5.09792423248291,45.881317138671875,-19.492063522338867
0.08564343303442001,-0.19282524287700653,9.635047912597656,0.0023574731092018,0.0194343681205828,0.003672330354982212,0.3900182247161865,2019-08-06 15:05:34:311,-94.38577579743496,-99.15104444210407,0,-5.09792423248291,45.881317138671875,-19.492063522338867
0.12156467884778976,-0.1688777506351471,9.642231941223145,-0.0013718629371216693,0.011975696548084513,0.00020937558253977584,0.40000033378601074,2019-08-06 15:05:34:321,-96.09032619443612,-100.7471866786133,0,-5.09792423248291,45.881317138671875,-19.492063522338867
0.06888018548488617,-0.21198324859142303,9.606310844421387,0.0015583297264341264,0.015438651726893083,0.0010085190140713856,0.40999817848205566,2019-08-06 15:05:34:331,-97.76897015980849,-102.30783484659696,0,-5.09792423248291,45.881317138671875,-19.492063522338867
0.0664854347705841,-0.21916748583316803,9.647021293640137,0.0002264239747054862,0.012242078195822388,0.0018076624618576407,0.4200019836425781,2019-08-06 15:05:34:341,-99.41256997536343,-103.83577613513755,0,-5.09792423248291,45.881317138671875,-19.492063522338867
0.07127493619918823,-0.1497197449207306,9.704495429992676,-0.0003063383292368989,0.013840364961357736,0.0020740435894468653,0.43001723289489746,2019-08-06 15:05:34:351,-101.02368571511744,-105.34121070124968,0,-5.09792423248291,45.881317138671875,-19.492063522338867
0.03535369038581848,-0.19282524287700653,9.625469207763672,0.0015583297264341264,0.012774840451000838,0.001541281334268416,0.43999648094177246,2019-08-06 15:05:34:361,-102.60616132015362,-106.81230682665094,0,-5.09792423248291,45.881317138671875,-19.492063522338867
0.059301186352968216,-0.20240424573421478,9.599126815795898,0.0004928051185493561,0.01357398435391716,0.00047575672638364575,0.45000410079956055,2019-08-06 15:05:34:371,-104.15458656362895,-108.25217876544585,0,-5.09792423248291,45.881317138671875,-19.492063522338867
0.06888018548488617,-0.19761474430561066,9.709284782409668,0.001824710854023351,0.012508459843560263,0.006069760763359559,0.45999979972839355,2019-08-06 15:05:34:381,-105.67038600853923,-109.66483952461503,0,-5.09792423248291,45.881317138671875,-19.492063522338867
0.02816944010555744,-0.2215622365474701,9.635047912597656,0.0026238542367910244,0.009578266919930143,0.0031395680998037635,0.47000575065612793,2019-08-06 15:05:34:391,-107.15900943421315,-111.04667070309922,0,-5.09792423248291,45.881317138671875,-19.492063522338867
0.04014318808913231,-0.18324624001979828,9.635047912597656,-0.0011054818095324445,0.013041222098738713,0.003938711482571438,0.4800102710723877,2019-08-06 15:05:34:401,-108.61838090180352,-112.40332506585025,0,-5.547740936279297,45.731380462646484,-19.64200210571289
0.037748441100120544,-0.17366725206375122,9.615889549255371,-0.0008391006169246387,0.012242078195822388,0.008200809784073356,0.4899940490722656,2019-08-06 15:05:34:411,-110.04837762366824,-113.73409467830753,0,-5.547740936279297,45.731380462646484,-19.64200210571289
0.05690643563866615,-0.1952199935913086,9.675758361816406,0.003955759874737148,0.013307602706179285,0.007401666401305682,0.49999165534973145,2019-08-06 15:05:34:421,-111.44814104057863,-115.03851632620382,0,-5.547740936279297,45.731380462646484,-19.64200210571289
0.09043293446302414,-0.16648299992084503,9.639837265014648,-0.0011054818095324445,0.014905889471714633,0.005803379635770335,0.5099949836730957,2019-08-06 15:05:34:431,-112.81680093059299,-116.31733671368264,0,-5.547740936279297,45.731380462646484,-19.64200210571289
0.044932689517736435,-0.14732499420642853,9.699706077575684,0.0002264239747054862,0.009844647527370716,-0.0021880547120550534,0.5199935436248779,2019-08-06 15:05:34:441,-114.16068359778122,-117.57371357798628,0,-5.547740936279297,45.731380462646484,-19.64200210571289
0.04972218722105026,-0.18564099073410034,9.637442588806152,-0.0016382440647108938,0.012774840451000838,-0.0027208169672335025,0.5300078392028809,2019-08-06 15:05:34:451,-115.47874119794575,-118.79924767935435,0,-5.547740936279297,45.731380462646484,-19.64200210571289
0.0473274365067482,-0.20958849787712097,9.718864440917969,0.0015583297264341264,0.013840364961357736,0.0028731869722145387,0.5400378704071045,2019-08-06 15:05:34:461,-116.77138089836086,-119.99943237366384,0,-5.547740936279297,45.731380462646484,-19.64200210571289
0.04253793880343437,-0.1808515042066574,9.639837265014648,0.0010255674062370958,0.011709315940643939,-0.0003233867214026093,0.550013542175293,2019-08-06 15:05:34:471,-118.03745547400494,-121.17852235552802,0,-5.547740936279297,45.731380462646484,-19.64200210571289
0.04014318808913231,-0.20958849787712097,9.668574333190918,0.004222141002326372,0.013840364961357736,0.00020937558253977584,0.5606913566589355,2019-08-06 15:05:34:482,-119.28024673633932,-122.33264687035226,0,-5.547740936279297,45.731380462646484,-19.64200210571289
0.05690643563866615,-0.15929874777793884,9.606310844421387,0.0004928051185493561,0.01064379143028704,-0.0019216735844658289,0.5700333118438721,2019-08-06 15:05:34:491,-120.49343683367876,-123.46725177957842,0,-5.547740936279297,45.731380462646484,-19.64200210571289
0.011406192556023598,-0.18564099073410034,9.666179656982422,-0.0019046251923001184,0.013307602706179285,0.00020937558253977584,0.5800137519836426,2019-08-06 15:05:34:501,-121.68967349060546,-124.57483454926319,0,-5.547740936279297,45.731380462646484,-19.64200210571289
0.05451168864965439,-0.19282524287700653,9.699706077575684,-0.0024373874474785677,0.013307602706179285,-0.0003233867214026093,0.590512752532959,2019-08-06 15:05:34:512,-122.85728518492938,-125.65912375459466,0,-5.547740936279297,45.731380462646484,-19.64200210571289
0.030564190819859505,-0.20000949501991272,9.649415969848633,0.0010255674062370958,0.009844647527370716,-0.00431910373276885,0.6002979278564453,2019-08-06 15:05:34:521,-124.00191885177945,-126.72275605319291,0,-5.6976799964904785,44.381927490234375,-17.69279670715332
0.05690643563866615,-0.14732499420642853,9.668574333190918,0.00555404690034682,0.013307602706179285,-0.006716534401220521,0.6100456714630127,2019-08-06 15:05:34:531,-125.12241973423832,-127.773881304858,0,-5.6976799964904785,44.381927490234375,-17.69279670715332
0.03295893967151642,-0.17366725206375122,9.637442588806152,-0.0005727194893354142,0.01570503337463096,-0.004052722605179625,0.6202466487884521,2019-08-06 15:05:34:541,-126.22504803977446,-128.79742840643155,0,-5.6976799964904785,44.381927490234375,-17.69279670715332
0.06409068405628204,-0.2143779993057251,9.651811599731445,0.0015583297264341264,0.011176553685465489,-0.005118247115536523,0.6302492618560791,2019-08-06 15:05:34:551,-127.29921525562216,-129.79690712866642,0,-5.6976799964904785,44.381927490234375,-17.69279670715332
0.025774691253900528,-0.20000949501991272,9.642231941223145,0.001824710854023351,0.009578266919930143,-0.001655292456876604,0.6402201652526855,2019-08-06 15:05:34:561,-128.355530341116,-130.77822417825234,0,-5.6976799964904785,44.381927490234375,-17.69279670715332
0.0736696869134903,-0.2071937471628189,9.668574333190918,-0.0019046251923001184,0.013307602706179285,-0.004585484860358075,0.6502277851104736,2019-08-06 15:05:34:571,-129.38716649574351,-131.7370366726808,0,-5.6976799964904785,44.381927490234375,-17.69279670715332
0.03535369038581848,-0.15690399706363678,9.64462661743164,-0.002171006319889343,0.010111029175108591,-0.003786341477590401,0.6602234840393066,2019-08-06 15:05:34:581,-130.40089756248292,-132.68243671685204,0,-5.6976799964904785,44.381927490234375,-17.69279670715332
0.06169593706727028,-0.20240424573421478,9.6901273727417,0.001824710854023351,0.01064379143028704,-0.00778205891157742,0.6702463626861572,2019-08-06 15:05:34:591,-131.3915739435667,-133.60588286519385,0,-5.6976799964904785,44.381927490234375,-17.69279670715332
0.018590440973639488,-0.21677273511886597,9.670969009399414,0.0010255674062370958,0.013041222098738713,-0.000856149009090349,0.6802618503570557,2019-08-06 15:05:34:601,-132.36887365081338,-134.50866079801332,0,-5.6976799964904785,44.381927490234375,-17.69279670715332
0.011406192556023598,-0.20479899644851685,9.615889549255371,-0.0013718629371216693,0.013041222098738713,-0.004851865987947299,0.6902334690093994,2019-08-06 15:05:34:611,-133.3274387601467,-135.39331747413718,0,-5.6976799964904785,44.381927490234375,-17.69279670715332
0.00901144277304411,-0.1952199935913086,9.658995628356934,-0.0005727194893354142,0.013307602706179285,-0.0027208169672335025,0.7002310752868652,2019-08-06 15:05:34:621,-134.26729130565403,-136.2619724320803,0,-5.6976799964904785,44.381927490234375,-17.69279670715332
0.044932689517736435,-0.1688777506351471,9.651811599731445,-0.0024373874474785677,0.010910172037727614,0.0010085190140713856,0.7100133895874023,2019-08-06 15:05:34:631,-135.1826035561685,-137.11534614619939,0,-5.6976799964904785,44.381927490234375,-17.69279670715332
0.03295893967151642,-0.17845675349235535,9.627863883972168,-0.0003063383292368989,0.013307602706179285,-0.000856149009090349,0.7202434539794922,2019-08-06 15:05:34:641,-136.08267281216047,-137.951625632519,0,-5.6976799964904785,44.381927490234375,-17.69279670715332
0.025774691253900528,-0.17127250134944916,9.618284225463867,0.0026238542367910244,0.013840364961357736,0.0010085190140713856,0.730032205581665,2019-08-06 15:05:34:651,-136.9655557624048,-138.77363215891322,0,-4.798046588897705,45.881317138671875,-18.592430114746094
0.037748441100120544,-0.17366725206375122,9.678153038024902,0.0010255674062370958,0.013307602706179285,0.006868904146127233,0.7400171756744385,2019-08-06 15:05:34:661,-137.82923613769384,-139.5781741092618,0,-4.798046588897705,45.881317138671875,-18.592430114746094
0.03295893967151642,-0.11140375584363937,9.63265323638916,0.004222141002326372,0.01570503337463096,0.006069760763359559,0.7500176429748535,2019-08-06 15:05:34:671,-138.67754934985274,-140.37572928897382,0,-4.798046588897705,45.881317138671875,-18.592430114746094
0.0473274365067482,-0.15450924634933472,9.627863883972168,-0.003236530830246241,0.01064379143028704,0.00553699850818111,0.7602362632751465,2019-08-06 15:05:34:681,-139.50447259345623,-141.14796943743713,0,-4.798046588897705,45.881317138671875,-18.592430114746094
0.05690643563866615,-0.17845675349235535,9.649415969848633,-0.0008391006169246387,0.011709315940643939,0.003938711482571438,0.7702369689941406,2019-08-06 15:05:34:691,-140.31420052986405,-141.9033486603507,0,-4.798046588897705,45.881317138671875,-18.592430114746094
0.05451168864965439,-0.17127250134944916,9.642231941223145,-3.9957173202045016e-05,0.013041222098738713,0.00047575672638364575,0.7800335884094238,2019-08-06 15:05:34:701,-141.10861193449233,-142.64490724214545,0,-4.798046588897705,45.881317138671875,-18.592430114746094
0.06888018548488617,-0.18324624001979828,9.67336368560791,0.0015583297264341264,0.007979980154394795,0.0012749002066791914,0.7900209426879883,2019-08-06 15:05:34:711,-141.88275530512675,-143.37117806813728,0,-4.798046588897705,45.881317138671875,-18.592430114746094
0.016195692121982574,-0.20479899644851685,9.670969009399414,-3.9957173202045016e-05,0.01570503337463096,0.0012749002066791914,0.7999978065490723,2019-08-06 15:05:34:721,-142.65197912171888,-144.07946906384203,0,-4.798046588897705,45.881317138671875,-18.592430114746094
0.037748441100120544,-0.2071937471628189,9.654206275939941,-0.0013718629371216693,0.012242078195822388,-0.003786341477590401,0.8101503849029541,2019-08-06 15:05:34:731,-143.40143776469708,-144.77250833773223,0,-4.798046588897705,45.881317138671875,-18.592430114746094
0.04972218722105026,-0.1616934984922409,9.654206275939941,-0.0019046251923001184,0.011176553685465489,0.0020740435894468653,0.8200170993804932,2019-08-06 15:05:34:741,-144.13369921201317,-145.45681240474084,0,-4.798046588897705,45.881317138671875,-18.592430114746094
0.06409068405628204,-0.24790449440479279,9.572784423828125,-0.0005727194893354142,0.01410674660909561,-0.0005897678815011245,0.8299930095672607,2019-08-06 15:05:34:751,-144.85125516838482,-146.11768643321636,0,-4.798046588897705,45.881317138671875,-18.592430114746094
0.05451168864965439,-0.22874648869037628,9.678153038024902,-3.9957173202045016e-05,0.011176553685465489,-0.004052722605179625,0.8400044441223145,2019-08-06 15:05:34:761,-145.55405861947267,-146.7682311740043,0,-4.798046588897705,45.881317138671875,-18.592430114746094
0.10959093272686005,-0.1808515042066574,9.680547714233398,0.001824710854023351,0.011975696548084513,-0.0032535792224119516,0.8500511646270752,2019-08-06 15:05:34:771,-146.23676114619607,-147.4124904628163,0,-5.247863292694092,45.731380462646484,-19.64200210571289
0.052116937935352325,-0.21916748583316803,9.666179656982422,-0.0016382440647108938,0.012508459843560263,0.0023404247170360896,0.8600208759307861,2019-08-06 15:05:34:781,-146.9128497840745,-148.0373459404299,0,-5.247863292694092,45.731380462646484,-19.64200210571289
0.08324868232011795,-0.23832549154758453,9.615889549255371,-0.003502911957835466,0.009844647527370716,0.0010085190140713856,0.8699922561645508,2019-08-06 15:05:34:791,-147.57018431293577,-148.64624258188593,0,-5.247863292694092,45.731380462646484,-19.64200210571289
0.023379940539598465,-0.23114123940467834,9.615889549255371,0.002890235364380249,0.013307602706179285,0.00020937558253977584,0.8800046443939209,2019-08-06 15:05:34:801,-148.2234759264323,-149.247403045284,0,-5.247863292694092,45.731380462646484,-19.64200210571289
0.09761717915534973,-0.21198324859142303,9.618284225463867,-3.9957173202045016e-05,0.010910172037727614,0.006868904146127233,0.8900179862976074,2019-08-06 15:05:34:811,-148.85351098547298,-149.83718107206408,0,-5.247863292694092,45.731380462646484,-19.64200210571289
0.0736696869134903,-0.2071937471628189,9.64462661743164,-0.0011054818095324445,0.013041222098738713,0.004205092610160662,0.900007963180542,2019-08-06 15:05:34:821,-149.47500324293887,-150.4152036375435,0,-5.247863292694092,45.731380462646484,-19.64200210571289
0.0736696869134903,-0.1952199935913086,9.670969009399414,-0.0003063383292368989,0.013307602706179285,0.006868904146127233,0.910231351852417,2019-08-06 15:05:34:831,-150.0844133281958,-150.98359518795962,0,-5.247863292694092,45.731380462646484,-19.64200210571289
0.03295893967151642,-0.21198324859142303,9.668574333190918,-3.9957173202045016e-05,0.013840364961357736,0.003938711482571438,0.9202196598052979,2019-08-06 15:05:34:841,-150.6865810561196,-151.53878072870336,0,-5.247863292694092,45.731380462646484,-19.64200210571289
0.013800942339003086,-0.22874648869037628,9.649415969848633,0.0007591862786478714,0.011975696548084513,0.004737855125413436,0.9300100803375244,2019-08-06 15:05:34:851,-151.27779391536808,-152.0812627787781,0,-5.247863292694092,45.731380462646484,-19.64200210571289
0.03295893967151642,-0.1616934984922409,9.668574333190918,-0.0008391006169246387,0.013307602706179285,0.003405949227392988,0.9400055408477783,2019-08-06 15:05:34:861,-151.85580058056368,-152.62000452027746,0,-5.247863292694092,45.731380462646484,-19.64200210571289
0.044932689517736435,-0.16648299992084503,9.682943344116211,-0.0005727194893354142,0.010377409782549165,0.0010085190140713856,0.9500086307525635,2019-08-06 15:05:34:871,-152.4191958071689,-153.1475824719032,0,-5.247863292694092,45.731380462646484,-19.64200210571289
0.05451168864965439,-0.1808515042066574,9.685338020324707,-0.0003063383292368989,0.010910172037727614,0.0031395680998037635,0.9602358341217041,2019-08-06 15:05:34:881,-152.97062767042314,-153.66306004312938,0,-5.247863292694092,45.731380462646484,-19.64200210571289
-0.04127829894423485,-0.20240424573421478,9.654206275939941,-0.0003063383292368989,0.006648073996300022,0.0020740435894468653,0.9702329635620117,2019-08-06 15:05:34:891,-146.31984646875213,-154.1656058294232,0,-5.247863292694092,45.731380462646484,-19.64200210571289
0.011406192556023598,-0.17127250134944916,9.639837265014648,0.0026238542367910244,0.010910172037727614,-5.7005565367755386e-05,0.9799964427947998,2019-08-06 15:05:34:901,-146.99807480563604,-154.6633746368481,0,-5.247863292694092,46.631011962890625,-18.44249153137207
0.00901144277304411,-0.19043049216270447,9.618284225463867,0.001824710854023351,0.011975696548084513,0.0020740435894468653,0.9900078773498535,2019-08-06 15:05:34:911,-147.66377171920539,-155.14844809774976,0,-5.247863292694092,46.631011962890625,-18.44249153137207
0.02098519168794155,-0.1808515042066574,9.613494873046875,0.0020910919816125757,0.012774840451000838,-0.000856149009090349,1.00020432472229,2019-08-06 15:05:34:921,-148.31530885064035,-155.62512163460858,0,-5.247863292694092,46.631011962890625,-18.44249153137207
0.02816944010555744,-0.15211449563503265,9.680547714233398,0.001824710854023351,0.014373127216536186,-0.0013889113292873795,1.0102088451385498,2019-08-06 15:05:34:931,-148.95374232114048,-156.09563946848186,0,-5.247863292694092,46.631011962890625,-18.44249153137207
0.07606443762779236,-0.14732499420642853,9.680547714233398,0.0026238542367910244,0.010377409782549165,0.0012749002066791914,1.0201621055603027,2019-08-06 15:05:34:941,-149.5714633502069,-156.55775512646986,0,-5.247863292694092,46.631011962890625,-18.44249153137207
0.02816944010555744,-0.1688777506351471,9.67336368560791,-0.0019046251923001184,0.008779123017013819,-0.002987198094822727,1.0302255153656006,2019-08-06 15:05:34:951,-150.18165783803462,-157.00552041601466,0,-5.247863292694092,46.631011962890625,-18.44249153137207
0.037748441100120544,-0.1425355076789856,9.735627174377441,0.0012919485988449018,0.013307602706179285,-0.0019216735844658289,1.039991855621338,2019-08-06 15:05:34:961,-150.78087919245058,-157.44934278156487,0,-5.247863292694092,46.631011962890625,-18.44249153137207
0.052116937935352325,-0.13295650482177734,9.656600952148438,0.0023574731092018,0.010377409782549165,-0.0024544358396442778,1.0500073432922363,2019-08-06 15:05:34:971,-151.36491305703083,-157.8859052001772,0,-5.247863292694092,46.631011962890625,-18.44249153137207
0.06409068405628204,-0.1952199935913086,9.694916725158691,0.002890235364380249,0.01064379143028704,-0.006716534401220521,1.0602071285247803,2019-08-06 15:05:34:981,-151.93613541871525,-158.3067709710418,0,-5.247863292694092,46.631011962890625,-18.44249153137207
0.05451168864965439,-0.1688777506351471,9.613494873046875,0.0034229976195586987,0.012242078195822388,0.0028731869722145387,1.0702309608459473,2019-08-06 15:05:34:991,-152.49780535277054,-158.7224342114438,0,-5.247863292694092,46.631011962890625,-18.44249153137207
0.10480143129825592,-0.21677273511886597,9.651811599731445,0.0015583297264341264,0.014373127216536186,-0.0005897678815011245,1.080223560333252,2019-08-06 15:05:35:001,-153.04347165730798,-159.1231277670895,0,-5.247863292694092,46.631011962890625,-18.44249153137207
0.08085393160581589,-0.1880357414484024,9.66139030456543,-3.9957173202045016e-05,0.011709315940643939,0.00047575672638364575,1.090214490890503,2019-08-06 15:05:35:011,-153.57958134861767,-159.51834311877002,0,-5.247863292694092,46.631011962890625,-18.44249153137207
0.1263541728258133,-0.20958849787712097,9.630258560180664,-0.002970149702657017,0.010910172037727614,-0.0027208169672335025,1.1002256870269775,2019-08-06 15:05:35:021,-154.0990884608875,-159.9013714130704,0,-5.247863292694092,46.33113479614258,-18.742368698120117
0.07606443762779236,-0.1808515042066574,9.527284622192383,0.0020910919816125757,0.013840364961357736,0.00047575672638364575,1.1102089881896973,2019-08-06 15:05:35:031,-154.6157164335497,-160.2827664600578,0,-5.247863292694092,46.33113479614258,-18.742368698120117
0.07845918089151382,-0.18564099073410034,9.596732139587402,0.002890235364380249,0.012774840451000838,-5.7005565367755386e-05,1.1202282905578613,2019-08-06 15:05:35:041,-155.12122065089804,-160.65657308427757,0,-5.247863292694092,46.33113479614258,-18.742368698120117
0.0736696869134903,-0.19282524287700653,9.625469207763672,-3.9957173202045016e-05,0.010111029175108591,0.001541281334268416,1.130235195159912,2019-08-06 15:05:35:051,-155.61570725534762,-161.02046632640386,0,-5.247863292694092,46.33113479614258,-18.742368698120117
0.08085393160581589,-0.1688777506351471,9.642231941223145,-0.0013718629371216693,0.013041222098738713,0.003672330354982212,1.1400070190429688,2019-08-06 15:05:35:061,-156.10093992319483,-161.37923632347764,0,-5.247863292694092,46.33113479614258,-18.742368698120117
0.06888018548488617,-0.19761474430561066,9.675758361816406,0.0002264239747054862,0.00824636128198402,0.003938711482571438,1.1500060558319092,2019-08-06 15:05:35:071,-156.57539354626616,-161.72837814353116,0,-5.247863292694092,46.33113479614258,-18.742368698120117
0.03535369038581848,-0.15929874777793884,9.682943344116211,0.0004928051185493561,0.011709315940643939,0.0031395680998037635,1.1602210998535156,2019-08-06 15:05:35:081,-157.04641795785457,-162.07524293373305,0,-5.247863292694092,46.33113479614258,-18.742368698120117
0.037748441100120544,-0.21198324859142303,9.618284225463867,-0.0024373874474785677,0.012508459843560263,0.0026068058446253144,1.1700143814086914,2019-08-06 15:05:35:091,-157.50787059400184,-162.40714633011544,0,-5.247863292694092,46.33113479614258,-18.742368698120117
0.0473274365067482,-0.1952199935913086,9.656600952148438,-0.0019046251923001184,0.013307602706179285,0.006868904146127233,1.179997205734253,2019-08-06 15:05:35:101,-157.95955640993427,-162.73477286653147,0,-5.247863292694092,46.33113479614258,-18.742368698120117
0.03295893967151642,-0.18564099073410034,9.627863883972168,-0.0016382440647108938,0.012242078195822388,0.006336141890948784,1.1900064945220947,2019-08-06 15:05:35:111,-158.40332279458397,-163.05706429037656,0,-5.247863292694092,46.33113479614258,-18.742368698120117
0.05690643563866615,-0.18324624001979828,9.635047912597656,-0.004302055340603139,0.014905889471714633,0.0028731869722145387,1.2001783847808838,2019-08-06 15:05:35:121,-158.83700192331463,-163.3716746685081,0,-5.247863292694092,46.33113479614258,-18.742368698120117
0.05451168864965439,-0.21916748583316803,9.64462661743164,-0.0019046251923001184,0.010910172037727614,0.006069760763359559,1.2102298736572266,2019-08-06 15:05:35:131,-159.25994279720385,-163.6771305639778,0,-5.247863292694092,46.33113479614258,-18.742368698120117
0.07845918089151382,-0.15450924634933472,9.639837265014648,-0.0013718629371216693,0.015971413982071532,0.0023404247170360896,1.2202212810516357,2019-08-06 15:05:35:141,-159.6743776968076,-163.98445292295523,0,-5.247863292694092,46.33113479614258,-18.742368698120117
0.023379940539598465,-0.17606200277805328,9.60391616821289,0.0004928051185493561,0.012774840451000838,0.0026068058446253144,1.2302207946777344,2019-08-06 15:05:35:151,-160.08527321819182,-164.2840356293635,0,-4.9479851722717285,47.230770111083984,-18.44249153137207
0.03295893967151642,-0.15690399706363678,9.63265323638916,-0.0024373874474785677,0.014639508864274061,0.00047575672638364575,1.2402260303497314,2019-08-06 15:05:35:161,-160.48787128985208,-164.57832171458531,0,-4.9479851722717285,47.230770111083984,-18.44249153137207
0.016195692121982574,-0.1880357414484024,9.625469207763672,-0.0013718629371216693,0.012774840451000838,-0.0019216735844658289,1.250220537185669,2019-08-06 15:05:35:171,-160.88335487812276,-164.86360252823593,0,-4.9479851722717285,47.230770111083984,-18.44249153137207
-0.010146554559469223,-0.20240424573421478,9.699706077575684,-0.0019046251923001184,0.009578266919930143,0.006336141890948784,1.2602720260620117,2019-08-06 15:05:35:181,-154.0722923615449,-165.14134711932888,0,-4.9479851722717285,47.230770111083984,-18.44249153137207
-0.005357054993510246,-0.17606200277805328,9.642231941223145,0.0007591862786478714,0.014639508864274061,-0.0013889113292873795,1.2700059413909912,2019-08-06 15:05:35:191,-147.3994845058528,-165.41801363487485,0,-4.9479851722717285,47.230770111083984,-18.44249153137207
0.006616693455725908,-0.1808515042066574,9.678153038024902,-0.0013718629371216693,0.01410674660909561,-0.0032535792224119516,1.2799863815307617,2019-08-06 15:05:35:201,-148.0586168099449,-165.68747382733346,0,-4.9479851722717285,47.230770111083984,-18.44249153137207
-0.0149360541254282,-0.19282524287700653,9.625469207763672,-3.9957173202045016e-05,0.011442934292906064,-0.005118247115536523,1.2900073528289795,2019-08-06 15:05:35:211,-141.50566128146022,-165.95074902303878,0,-4.9479851722717285,47.230770111083984,-18.44249153137207
-0.0029623054433614016,-0.1808515042066574,9.656600952148438,-0.002703768575067792,0.011176553685465489,0.0012749002066791914,1.3000195026397705,2019-08-06 15:05:35:221,-135.08218282685345,-166.20875551888818,0,-4.9479851722717285,47.230770111083984,-18.44249153137207
0.023379940539598465,-0.16648299992084503,9.656600952148438,-0.0019046251923001184,0.012774840451000838,-0.004585484860358075,1.3099956512451172,2019-08-06 15:05:35:231,-135.9849207054754,-166.4637595073801,0,-4.9479851722717285,47.230770111083984,-18.44249153137207
0.02098519168794155,-0.22395698726177216,9.623074531555176,0.003689378747147923,0.015172271119452508,-0.0032535792224119516,1.320021629333496,2019-08-06 15:05:35:241,-136.8712647198389,-166.7098972981114,0,-4.9479851722717285,47.230770111083984,-18.44249153137207
0.00901144277304411,-0.1808515042066574,9.651811599731445,-0.0005727194893354142,0.011442934292906064,-0.0005897678815011245,1.3302357196807861,2019-08-06 15:05:35:251,-137.73933228742786,-166.95390172391666,0,-4.9479851722717285,47.230770111083984,-18.44249153137207
0.02816944010555744,-0.22395698726177216,9.678153038024902,-0.0008391006169246387,0.011176553685465489,-0.001655292456876604,1.3402225971221924,2019-08-06 15:05:35:261,-138.58747770903517,-167.18784086281784,0,-4.9479851722717285,47.230770111083984,-18.44249153137207
0.11677517741918564,-0.23114123940467834,9.723653793334961,-0.002970149702657017,0.01357398435391716,-0.003786341477590401,1.349996566772461,2019-08-06 15:05:35:271,-139.4094165645332,-167.415219544627,0,-5.6976799964904785,44.981685638427734,-17.992673873901367
0.08564343303442001,-0.22635173797607422,9.625469207763672,-0.008297772774590158,0.01410674660909561,-0.0053846282431257485,1.3600037097930908,2019-08-06 15:05:35:281,-140.21895919756673,-167.63531034689385,0,-5.6976799964904785,44.981685638427734,-17.992673873901367
0.05690643563866615,-0.21916748583316803,9.589548110961914,0.005287665772757595,0.008779123017013819,-0.0053846282431257485,1.3700051307678223,2019-08-06 15:05:35:291,-141.0127101505935,-167.85938843226788,0,-5.6976799964904785,44.981685638427734,-17.992673873901367
0.013800942339003086,-0.20958849787712097,9.596732139587402,-0.005633960978549262,0.0047834061031754496,-0.001655292456876604,1.380016565322876,2019-08-06 15:05:35:301,-141.79349696881286,-168.07401125959305,0,-5.6976799964904785,44.981685638427734,-17.992673873901367
0.07127493619918823,-0.17845675349235535,9.62067985534668,-0.0003063383292368989,0.014373127216536186,0.00020937558253977584,1.3902268409729004,2019-08-06 15:05:35:311,-142.55737784783193,-168.29110192893955,0,-5.6976799964904785,44.981685638427734,-17.992673873901367
0.0736696869134903,-0.15211449563503265,9.649415969848633,0.0004928051185493561,0.011709315940643939,0.0010085190140713856,1.400014877319336,2019-08-06 15:05:35:321,-143.30391722715777,-168.50748788641454,0,-5.6976799964904785,44.981685638427734,-17.992673873901367
0.052116937935352325,-0.20958849787712097,9.654206275939941,0.003955759874737148,0.009844647527370716,0.006336141890948784,1.4100000858306885,2019-08-06 15:05:35:331,-144.03717245087697,-168.7146825895624,0,-5.6976799964904785,44.981685638427734,-17.992673873901367
0.09043293446302414,-0.23114123940467834,9.6901273727417,0.0020910919816125757,0.011975696548084513,0.0026068058446253144,1.4200267791748047,2019-08-06 15:05:35:341,-144.75247736308643,-168.91423756388528,0,-5.6976799964904785,44.981685638427734,-17.992673873901367
0.07606443762779236,-0.15211449563503265,9.62067985534668,0.0015583297264341264,0.007979980154394795,0.0012749002066791914,1.4300143718719482,2019-08-06 15:05:35:351,-145.45284318639364,-169.11870993573004,0,-5.6976799964904785,44.981685638427734,-17.992673873901367
0.07845918089151382,-0.17127250134944916,9.654206275939941,-0.0011054818095324445,0.012774840451000838,-0.002987198094822727,1.4400084018707275,2019-08-06 15:05:35:361,-146.14164251059785,-169.31538815398878,0,-5.6976799964904785,44.981685638427734,-17.992673873901367
0.08085393160581589,-0.21916748583316803,9.67336368560791,-0.0013718629371216693,0.014639508864274061,0.003405949227392988,1.450005054473877,2019-08-06 15:05:35:371,-146.81744916478863,-169.50235200806293,0,-5.6976799964904785,44.981685638427734,-17.992673873901367
0.011406192556023598,-0.19761474430561066,9.651811599731445,0.0010255674062370958,0.006115311741121573,-0.0021880547120550534,1.4600028991699219,2019-08-06 15:05:35:381,-147.48317897602593,-169.68942207837418,0,-5.6976799964904785,44.981685638427734,-17.992673873901367
0.02816944010555744,-0.20240424573421478,9.637442588806152,0.0002264239747054862,0.013307602706179285,0.007668047528894907,1.4699997901916504,2019-08-06 15:05:35:391,-148.13763586816015,-169.87169790962312,0,-5.6976799964904785,44.981685638427734,-17.992673873901367
0.0473274365067482,-0.1497197449207306,9.575179100036621,-0.0024373874474785677,0.012774840451000838,0.006868904146127233,1.4799752235412598,2019-08-06 15:05:35:401,-148.77637468987962,-170.0549823791175,0,-4.9479851722717285,45.43150329589844,-18.44249153137207
0.06169593706727028,-0.1952199935913086,9.639837265014648,-0.0003063383292368989,0.015172271119452508,0.007668047528894907,1.49015474319458,2019-08-06 15:05:35:411,-149.40218546625542,-170.2305044363587,0,-4.9479851722717285,45.43150329589844,-18.44249153137207
0.011406192556023598,-0.20958849787712097,9.654206275939941,0.004488522389989922,0.008512742409573244,0.0023404247170360896,1.5002081394195557,2019-08-06 15:05:35:421,-150.01759330432537,-170.4035546967985,0,-4.9479851722717285,45.43150329589844,-18.44249153137207
0.018590440973639488,-0.1688777506351471,9.639837265014648,0.0015583297264341264,0.008779123017013819,0.005004236253002661,1.5101592540740967,2019-08-06 15:05:35:431,-150.61993690876704,-170.57628138764957,0,-4.9479851722717285,45.43150329589844,-18.44249153137207
0.06169593706727028,-0.15450924634933472,9.55362606048584,0.0034229976195586987,0.009844647527370716,0.001541281334268416,1.5202217102050781,2019-08-06 15:05:35:441,-151.20570039652452,-170.74815868090496,0,-4.9479851722717285,45.43150329589844,-18.44249153137207
-0.010146554559469223,-0.1808515042066574,9.6901273727417,0.0010255674062370958,0.011975696548084513,0.0026068058446253144,1.5302228927612305,2019-08-06 15:05:35:451,-144.58951141150007,-170.91238713937034,0,-4.9479851722717285,45.43150329589844,-18.44249153137207
0.02816944010555744,-0.1880357414484024,9.67336368560791,-0.002703768575067792,0.014639508864274061,0.008200809784073356,1.5402183532714844,2019-08-06 15:05:35:461,-145.30260054764517,-171.0703498408225,0,-4.9479851722717285,45.43150329589844,-18.44249153137207
0.06169593706727028,-0.18564099073410034,9.630258560180664,-0.0011054818095324445,0.011975696548084513,-5.7005565367755386e-05,1.5502407550811768,2019-08-06 15:05:35:471,-145.99594676735498,-171.22623382654336,0,-4.9479851722717285,45.43150329589844,-18.44249153137207
-0.0005675556603819132,-0.17845675349235535,9.692522048950195,0.0034229976195586987,0.01357398435391716,0.0026068058446253144,1.559990644454956,2019-08-06 15:05:35:481,-139.48352607736444,-171.3824871048022,0,-4.9479851722717285,45.43150329589844,-18.44249153137207
0.025774691253900528,-0.17845675349235535,9.611100196838379,0.003955759874737148,0.012774840451000838,-0.001122530201698155,1.5700061321258545,2019-08-06 15:05:35:491,-140.29796665427094,-171.53578729747085,0,-4.9479851722717285,45.43150329589844,-18.44249153137207
0.013800942339003086,-0.21916748583316803,9.658995628356934,0.0002264239747054862,0.007979980154394795,0.00020937558253977584,1.5802059173583984,2019-08-06 15:05:35:501,-141.0949402847348,-171.6792042861518,0,-4.9479851722717285,45.43150329589844,-18.44249153137207
0.06409068405628204,-0.18564099073410034,9.649415969848633,-0.0019046251923001184,0.011442934292906064,0.003672330354982212,1.590233564376831,2019-08-06 15:05:35:511,-141.87187346288295,-171.82250473815577,0,-4.9479851722717285,45.43150329589844,-18.44249153137207
0.07127493619918823,-0.20479899644851685,9.613494873046875,-0.0019046251923001184,0.011176553685465489,-0.000856149009090349,1.600222110748291,2019-08-06 15:05:35:521,-142.632208705089,-171.96057835230087,0,-5.6976799964904785,45.28156280517578,-19.19218635559082
0.07606443762779236,-0.19043049216270447,9.587152481079102,-0.004834817595781589,0.010377409782549165,-5.7005565367755386e-05,1.6102290153503418,2019-08-06 15:05:35:531,-143.37630395577548,-172.09589173322968,0,-5.6976799964904785,45.28156280517578,-19.19218635559082
0.052116937935352325,-0.22874648869037628,9.682943344116211,0.00555404690034682,0.010910172037727614,0.0012749002066791914,1.6200084686279297,2019-08-06 15:05:35:541,-144.1086011624145,-172.22995803133475,0,-5.6976799964904785,45.28156280517578,-19.19218635559082
0.10480143129825592,-0.19282524287700653,9.613494873046875,-0.0005727194893354142,0.012242078195822388,0.006069760763359559,1.630007028579712,2019-08-06 15:05:35:551,-144.82081036546413,-172.36205590916165,0,-5.6976799964904785,45.28156280517578,-19.19218635559082
0.08564343303442001,-0.20240424573421478,9.596732139587402,0.0002264239747054862,0.012242078195822388,0.004471473997824211,1.6399953365325928,2019-08-06 15:05:35:561,-145.5210338899896,-172.49077690758014,0,-5.6976799964904785,45.28156280517578,-19.19218635559082
0.059301186352968216,-0.20958849787712097,9.59194278717041,0.0004928051185493561,0.016237795629809405,0.004471473997824211,1.6500062942504883,2019-08-06 15:05:35:571,-146.21265628961993,-172.61620356679146,0,-5.6976799964904785,45.28156280517578,-19.19218635559082
0.06169593706727028,-0.2215622365474701,9.639837265014648,-0.0003063383292368989,0.010910172037727614,0.006336141890948784,1.6602327823638916,2019-08-06 15:05:35:581,-146.88733408228828,-172.7373704777109,0,-5.6976799964904785,45.28156280517578,-19.19218635559082
0.10719618201255798,-0.23114123940467834,9.668574333190918,-0.0008391006169246387,0.01410674660909561,0.003672330354982212,1.670226812362671,2019-08-06 15:05:35:591,-147.54479926249186,-172.85476264476029,0,-5.6976799964904785,45.28156280517578,-19.19218635559082
0.10480143129825592,-0.16408824920654297,9.635047912597656,0.0010255674062370958,0.011442934292906064,0.0026068058446253144,1.6802194118499756,2019-08-06 15:05:35:601,-148.18785996121457,-172.9787293618955,0,-5.6976799964904785,45.28156280517578,-19.19218635559082
0.09761717915534973,-0.1808515042066574,9.697311401367188,0.004754903517579147,0.01570503337463096,0.005004236253002661,1.689995527267456,2019-08-06 15:05:35:611,-148.8211888130612,-173.10039641986324,0,-5.6976799964904785,45.28156280517578,-19.19218635559082
0.08085393160581589,-0.19761474430561066,9.651811599731445,0.0002264239747054862,0.009844647527370716,0.008200809784073356,1.7000048160552979,2019-08-06 15:05:35:621,-149.44069873344364,-173.21505712619796,0,-5.6976799964904785,45.28156280517578,-19.19218635559082
0.08564343303442001,-0.18324624001979828,9.647021293640137,0.0020910919816125757,0.009311885272192268,0.005004236253002661,1.7102367877960205,2019-08-06 15:05:35:631,-150.04706182252895,-173.33019318938432,0,-5.6976799964904785,45.28156280517578,-19.19218635559082
0.0736696869134903,-0.23593074083328247,9.649415969848633,0.0020910919816125757,0.011975696548084513,0.003672330354982212,1.720228672027588,2019-08-06 15:05:35:641,-150.64409099851335,-173.43675016368286,0,-5.6976799964904785,45.28156280517578,-19.19218635559082
0.044932689517736435,-0.19043049216270447,9.627863883972168,-0.0005727194893354142,0.007713599026805571,0.004737855125413436,1.7300081253051758,2019-08-06 15:05:35:651,-151.23009694762123,-173.54503844631068,0,-6.297435760498047,45.58143997192383,-18.89230728149414
0.06409068405628204,-0.19043049216270447,9.625469207763672,-0.0005727194893354142,0.012774840451000838,0.004737855125413436,1.7402188777923584,2019-08-06 15:05:35:661,-151.80518933176808,-173.65114145695335,0,-6.297435760498047,45.58143997192383,-18.89230728149414
0.030564190819859505,-0.18324624001979828,9.66139030456543,0.0012919485988449018,0.009045504664751694,0.006868904146127233,1.7499964237213135,2019-08-06 15:05:35:671,-152.37042646115793,-173.75709610257104,0,-6.297435760498047,45.58143997192383,-18.89230728149414
0.030564190819859505,-0.20240424573421478,9.709284782409668,-3.9957173202045016e-05,0.012774840451000838,-0.0005897678815011245,1.760005235671997,2019-08-06 15:05:35:681,-152.9265900532228,-173.85804689744108,0,-6.297435760498047,45.58143997192383,-18.89230728149414
0.06409068405628204,-0.16648299992084503,9.666179656982422,0.0002264239747054862,0.013041222098738713,-5.7005565367755386e-05,1.7702338695526123,2019-08-06 15:05:35:691,-153.4679505278167,-173.96128156694206,0,-6.297435760498047,45.58143997192383,-18.89230728149414
0.05690643563866615,-0.16408824920654297,9.70210075378418,0.0034229976195586987,0.011176553685465489,0.005270617380591885,1.7800054550170898,2019-08-06 15:05:35:701,-153.99800264787334,-174.06455541910597,0,-6.297435760498047,45.58143997192383,-18.89230728149414
0.08564343303442001,-0.14732499420642853,9.656600952148438,-3.9957173202045016e-05,0.018901606905701654,-0.0003233867214026093,1.7900059223175049,2019-08-06 15:05:35:711,-154.51849357252792,-174.16576068012026,0,-6.297435760498047,45.58143997192383,-18.89230728149414
0.0736696869134903,-0.15450924634933472,9.663784980773926,-0.002171006319889343,0.009311885272192268,-0.000856149009090349,1.8000316619873047,2019-08-06 15:05:35:721,-155.0246303102219,-174.26290342256183,0,-6.297435760498047,45.58143997192383,-18.89230728149414
0.07606443762779236,-0.1880357414484024,9.694916725158691,-0.0016382440647108938,0.012774840451000838,-0.0019216735844658289,1.8099937438964844,2019-08-06 15:05:35:731,-155.52229311353273,-174.3545063889832,0,-6.297435760498047,45.58143997192383,-18.89230728149414
0.08324868232011795,-0.17845675349235535,9.62067985534668,0.0012919485988449018,0.009844647527370716,-0.0032535792224119516,1.8200066089630127,2019-08-06 15:05:35:741,-156.00746664691002,-174.44688914186534,0,-6.297435760498047,45.58143997192383,-18.89230728149414
0.0928276851773262,-0.18324624001979828,9.694916725158691,0.0007591862786478714,0.016770557884987856,0.0012749002066791914,1.8302075862884521,2019-08-06 15:05:35:751,-156.48595154116475,-174.5367295270246,0,-6.297435760498047,45.58143997192383,-18.89230728149414
0.0928276851773262,-0.19761474430561066,9.658995628356934,-0.0013718629371216693,0.010111029175108591,-0.001655292456876604,1.840226650238037,2019-08-06 15:05:35:761,-156.9509081909017,-174.62178199154658,0,-6.297435760498047,45.58143997192383,-18.89230728149414
0.11677517741918564,-0.1880357414484024,9.618284225463867,0.001824710854023351,0.015438651726893083,-5.7005565367755386e-05,1.8502178192138672,2019-08-06 15:05:35:771,-157.40663932494644,-174.7079704275117,0,-6.147497177124023,45.43150329589844,-19.94188117980957
0.08085393160581589,-0.1425355076789856,9.666179656982422,0.003955759874737148,0.008512742409573244,0.0020740435894468653,1.8602116107940674,2019-08-06 15:05:35:781,-157.8536985378284,-174.79913458146234,0,-6.147497177124023,45.43150329589844,-19.94188117980957
0.12156467884778976,-0.18324624001979828,9.613494873046875,-0.0037692930854246903,0.015172271119452508,-0.004851865987947299,1.8702151775360107,2019-08-06 15:05:35:791,-158.29065724216107,-174.87919462280294,0,-6.147497177124023,45.43150329589844,-19.94188117980957
0.0928276851773262,-0.15211449563503265,9.654206275939941,-0.0005727194893354142,0.01064379143028704,0.0018076624618576407,1.8801655769348145,2019-08-06 15:05:35:801,-158.7197729934181,-174.96323685717303,0,-6.147497177124023,45.43150329589844,-19.94188117980957
0.09043293446302414,-0.1880357414484024,9.639837265014648,0.0015583297264341264,0.009844647527370716,-0.001122530201698155,1.8902084827423096,2019-08-06 15:05:35:811,-159.1401792955097,-175.04250135121714,0,-6.147497177124023,45.43150329589844,-19.94188117980957
0.13353842496871948,-0.1808515042066574,9.654206275939941,-3.9957173202045016e-05,0.011442934292906064,0.004737855125413436,1.9001424312591553,2019-08-06 15:05:35:821,-159.54790899724023,-175.12016519828126,0,-6.147497177124023,45.43150329589844,-19.94188117980957
0.07127493619918823,-0.14493025839328766,9.680547714233398,0.0002264239747054862,0.009045504664751694,-0.004052722605179625,1.910003423690796,2019-08-06 15:05:35:831,-159.95352237695155,-175.20073271415725,0,-6.147497177124023,45.43150329589844,-19.94188117980957
0.044932689517736435,-0.18324624001979828,9.697311401367188,-0.0013718629371216693,0.010910172037727614,0.004471473997824211,1.9202258586883545,2019-08-06 15:05:35:841,-160.35540465569963,-175.274279291861,0,-6.147497177124023,45.43150329589844,-19.94188117980957
0.044932689517736435,-0.21198324859142303,9.687732696533203,0.0026238542367910244,0.015438651726893083,-0.0003233867214026093,1.930222749710083,2019-08-06 15:05:35:851,-160.75164781447634,-175.3451960542166,0,-6.147497177124023,45.43150329589844,-19.94188117980957
0.025774691253900528,-0.16648299992084503,9.668574333190918,-0.0003063383292368989,0.013307602706179285,0.0028731869722145387,1.940223217010498,2019-08-06 15:05:35:861,-161.14103260923892,-175.41839056724353,0,-6.147497177124023,45.43150329589844,-19.94188117980957
0.030564190819859505,-0.2071937471628189,9.647021293640137,0.0004928051185493561,0.01357398435391716,-0.000856149009090349,1.9502387046813965,2019-08-06 15:05:35:871,-161.522214998375,-175.48569229312415,0,-6.147497177124023,45.43150329589844,-19.94188117980957
0.00901144277304411,-0.23593074083328247,9.60391616821289,-0.0003063383292368989,0.014373127216536186,0.003405949227392988,1.96000337600708,2019-08-06 15:05:35:881,-161.89857604516698,-175.54766547332372,0,-6.147497177124023,45.43150329589844,-19.94188117980957
-0.0149360541254282,-0.18564099073410034,9.623074531555176,0.0026238542367910244,0.015172271119452508,0.004205092610160662,1.9702296257019043,2019-08-06 15:05:35:891,-155.07109506441122,-175.61611540249484,0,-6.147497177124023,45.43150329589844,-19.94188117980957
0.02816944010555744,-0.22395698726177216,9.613494873046875,0.0031566164919694735,0.015438651726893083,0.0023404247170360896,1.9800059795379639,2019-08-06 15:05:35:901,-155.5747903215144,-175.67883534809314,0,-5.6976799964904785,45.58143997192383,-18.592430114746094
0.0018271940061822534,-0.19043049216270447,9.651811599731445,0.0007591862786478714,0.011442934292906064,0.0026068058446253144,1.9900054931640625,2019-08-06 15:05:35:911,-156.06950246020187,-175.74307889127206,0,-5.6976799964904785,45.58143997192383,-18.592430114746094
0.013800942339003086,-0.2071937471628189,9.651811599731445,0.005021284645168371,0.01357398435391716,0.005270617380591885,1.9999959468841553,2019-08-06 15:05:35:921,-156.55408838693185,-175.80643867497133,0,-5.6976799964904785,45.58143997192383,-18.592430114746094
0.00901144277304411,-0.16408824920654297,9.64462661743164,-0.0016382440647108938,0.011442934292906064,0.0023404247170360896,2.010004758834839,2019-08-06 15:05:35:931,-157.0283667888309,-175.8698951369035,0,-5.6976799964904785,45.58143997192383,-18.592430114746094
0.016195692121982574,-0.18564099073410034,9.63265323638916,-0.0013718629371216693,0.008512742409573244,0.003405949227392988,2.0200233459472656,2019-08-06 15:05:35:941,-157.49066156756427,-175.92964409227906,0,-5.6976799964904785,45.58143997192383,-18.592430114746094
0.025774691253900528,-0.1616934984922409,9.66139030456543,-0.002171006319889343,0.011709315940643939,0.003672330354982212,2.0300183296203613,2019-08-06 15:05:35:951,-157.94436273264745,-175.99065649599603,0,-5.6976799964904785,45.58143997192383,-18.592430114746094
-0.019725553691387177,-0.1616934984922409,9.594337463378906,-0.0011054818095324445,0.018901606905701654,-0.00431910373276885,2.03999924659729,2019-08-06 15:05:35:961,-151.1984244021723,-176.05091352126018,0,-5.6976799964904785,45.58143997192383,-18.592430114746094
0.03535369038581848,-0.1808515042066574,9.613494873046875,0.003689378747147923,0.009578266919930143,-0.005917390498304197,2.050004720687866,2019-08-06 15:05:35:971,-151.7756229489427,-176.11041325371903,0,-5.6976799964904785,45.58143997192383,-18.592430114746094
0.0473274365067482,-0.14014075696468353,9.599126815795898,-0.0008391006169246387,0.012774840451000838,-0.0013889113292873795,2.0600123405456543,2019-08-06 15:05:35:981,-152.34163924655303,-176.1710050718907,0,-5.6976799964904785,45.58143997192383,-18.592430114746094
0.04014318808913231,-0.15211449563503265,9.685338020324707,-0.0013718629371216693,0.004517024975586225,-0.0027208169672335025,2.070002317428589,2019-08-06 15:05:35:991,-152.89259073019048,-176.22881957769383,0,-5.6976799964904785,45.58143997192383,-18.592430114746094
0.059301186352968216,-0.17606200277805328,9.682943344116211,0.0004928051185493561,0.012508459843560263,-0.008048440039166644,2.0800015926361084,2019-08-06 15:05:36:001,-153.43474405412286,-176.28368633786533,0,-5.6976799964904785,45.58143997192383,-18.592430114746094
0.0664854347705841,-0.15929874777793884,9.682943344116211,-0.0011054818095324445,0.012508459843560263,-0.005118247115536523,2.0900063514709473,2019-08-06 15:05:36:011,-153.96520798817613,-176.33854128238156,0,-5.6976799964904785,45.58143997192383,-18.592430114746094
0.025774691253900528,-0.1688777506351471,9.699706077575684,-0.002171006319889343,0.009578266919930143,-0.0061837716258934215,2.0999996662139893,2019-08-06 15:05:36:021,-154.48823342236548,-176.39060318648907,0,-5.6976799964904785,46.481075286865234,-19.19218635559082
0.052116937935352325,-0.1808515042066574,9.685338020324707,-0.0008391006169246387,0.009045504664751694,-0.005651009370714973,2.110015869140625,2019-08-06 15:05:36:031,-154.99738989387006,-176.44092434280913,0,-5.6976799964904785,46.481075286865234,-19.19218635559082
0.030564190819859505,-0.18324624001979828,9.64462661743164,-0.0003063383292368989,0.009045504664751694,-0.004851865987947299,2.120001792907715,2019-08-06 15:05:36:041,-155.49888254698055,-176.4901645105221,0,-5.6976799964904785,46.481075286865234,-19.19218635559082
0.0664854347705841,-0.1808515042066574,9.678153038024902,-0.002171006319889343,0.010111029175108591,-0.008581202294345095,2.13000226020813,2019-08-06 15:05:36:051,-155.98671058582687,-176.53773140388665,0,-5.6976799964904785,46.481075286865234,-19.19218635559082
0.05690643563866615,-0.23114123940467834,9.656600952148438,0.0010255674062370958,0.013041222098738713,-0.0024544358396442778,2.140005350112915,2019-08-06 15:05:36:061,-156.46754845255822,-176.58012930981974,0,-5.6976799964904785,46.481075286865234,-19.19218635559082
0.0473274365067482,-0.16408824920654297,9.67336368560791,-0.0019046251923001184,0.012774840451000838,-0.0061837716258934215,2.150001049041748,2019-08-06 15:05:36:071,-156.93976104677816,-176.62802155774307,0,-5.6976799964904785,46.481075286865234,-19.19218635559082
0.06888018548488617,-0.2215622365474701,9.658995628356934,-3.9957173202045016e-05,0.007713599026805571,-0.0032535792224119516,2.1600146293640137,2019-08-06 15:05:36:081,-157.39713127357243,-176.6691577595259,0,-5.6976799964904785,46.481075286865234,-19.19218635559082
0.06409068405628204,-0.19282524287700653,9.675758361816406,0.001824710854023351,0.01064379143028704,-0.0013889113292873795,2.170246124267578,2019-08-06 15:05:36:091,-157.84771322328442,-176.7139893148632,0,-5.6976799964904785,46.481075286865234,-19.19218635559082
0.052116937935352325,-0.18564099073410034,9.656600952148438,-0.005101198723370813,0.013307602706179285,-0.00431910373276885,2.18022084236145,2019-08-06 15:05:36:101,-158.2920277909261,-176.75482578990918,0,-5.6976799964904785,46.481075286865234,-19.19218635559082
0.10240668058395386,-0.19282524287700653,9.63265323638916,0.0010255674062370958,0.014905889471714633,0.0010085190140713856,2.189998149871826,2019-08-06 15:05:36:111,-158.72218848526808,-176.7973565738122,0,-5.6976799964904785,46.481075286865234,-19.19218635559082
0.06888018548488617,-0.22874648869037628,9.611100196838379,0.0004928051185493561,0.012508459843560263,0.00020937558253977584,2.2000114917755127,2019-08-06 15:05:36:121,-159.14656523934295,-176.83441860304413,0,-5.6976799964904785,46.481075286865234,-19.19218635559082
0.07606443762779236,-0.22874648869037628,9.647021293640137,0.003689378747147923,0.013840364961357736,0.003672330354982212,2.210008382797241,2019-08-06 15:05:36:131,-159.56236778356276,-176.87263474535067,0,-5.6976799964904785,46.481075286865234,-19.19218635559082
0.10480143129825592,-0.2071937471628189,9.666179656982422,0.0015583297264341264,0.014639508864274061,0.0012749002066791914,2.2200076580047607,2019-08-06 15:05:36:141,-159.96691628202723,-176.91149814361333,0,-5.6976799964904785,46.481075286865234,-19.19218635559082
0.07845918089151382,-0.22874648869037628,9.62067985534668,-0.0005727194893354142,0.011176553685465489,0.00553699850818111,2.2302396297454834,2019-08-06 15:05:36:151,-160.36465411610462,-176.9456983632913,0,-5.6976799964904785,46.18119812011719,-19.492063522338867
0.08803818374872208,-0.22635173797607422,9.551231384277344,-0.0003063383292368989,0.01570503337463096,0.0026068058446253144,2.2402267456054688,2019-08-06 15:05:36:161,-160.75560588410275,-176.97946098507526,0,-5.6976799964904785,46.18119812011719,-19.492063522338867
0.07845918089151382,-0.16408824920654297,9.666179656982422,0.004222141002326372,0.012774840451000838,0.0026068058446253144,2.250225305557251,2019-08-06 15:05:36:171,-161.1383647385942,-177.02279152655714,0,-5.6976799964904785,46.18119812011719,-19.492063522338867
0.0928276851773262,-0.15211449563503265,9.642231941223145,0.0015583297264341264,0.015971413982071532,0.008733572559400455,2.2602310180664062,2019-08-06 15:05:36:181,-161.51353887742005,-177.06513489212512,0,-5.6976799964904785,46.18119812011719,-19.492063522338867
0.04972218722105026,-0.14493025839328766,9.635047912597656,0.005820428027936045,0.01357398435391716,0.0113973838352927,2.2700047492980957,2019-08-06 15:05:36:191,-161.88480390963227,-177.10979086165275,0,-5.6976799964904785,46.18119812011719,-19.492063522338867
0.059301186352968216,-0.21677273511886597,9.685338020324707,0.0002264239747054862,0.011975696548084513,0.0026068058446253144,2.279996633529663,2019-08-06 15:05:36:201,-162.2468106109501,-177.14207900896855,0,-5.6976799964904785,46.18119812011719,-19.492063522338867
0.05690643563866615,-0.20000949501991272,9.685338020324707,0.001824710854023351,0.00824636128198402,0.007668047528894907,2.290006637573242,2019-08-06 15:05:36:211,-162.59977657452617,-177.17660237296292,0,-5.6976799964904785,46.18119812011719,-19.492063522338867
0.02816944010555744,-0.1952199935913086,9.678153038024902,-0.0024373874474785677,0.01357398435391716,0.0020740435894468653,2.300022602081299,2019-08-06 15:05:36:221,-162.95207966745505,-177.2085881885746,0,-5.6976799964904785,46.18119812011719,-19.492063522338867
0.04972218722105026,-0.16408824920654297,9.62067985534668,0.004488522389989922,0.01357398435391716,0.007401666401305682,2.310004711151123,2019-08-06 15:05:36:231,-163.29472387333763,-177.24738961962098,0,-5.6976799964904785,46.18119812011719,-19.492063522338867
-0.012541304342448711,-0.17845675349235535,9.680547714233398,-0.0024373874474785677,0.01570503337463096,0.004737855125413436,2.320233106613159,2019-08-06 15:05:36:241,-156.43933370910148,-177.27991990855654,0,-5.6976799964904785,46.18119812011719,-19.492063522338867
0.023379940539598465,-0.17845675349235535,9.687732696533203,0.0023574731092018,0.011442934292906064,0.011663764442733275,2.32999587059021,2019-08-06 15:05:36:251,-156.91405430221926,-177.31450741580585,0,-5.6976799964904785,46.18119812011719,-19.492063522338867
0.04253793880343437,-0.2071937471628189,9.6901273727417,0.0002264239747054862,0.014373127216536186,0.00047575672638364575,2.3400044441223145,2019-08-06 15:05:36:261,-157.37882029312433,-177.34384634484533,0,-5.6976799964904785,46.18119812011719,-19.492063522338867
0.030564190819859505,-0.1688777506351471,9.666179656982422,-0.0003063383292368989,0.012508459843560263,0.005803379635770335,2.350238800048828,2019-08-06 15:05:36:271,-157.83480862883266,-177.37677513237867,0,-5.997558116912842,46.18119812011719,-19.19218635559082
0.030564190819859505,-0.15929874777793884,9.654206275939941,0.0031566164919694735,0.011709315940643939,0.010598239932376376,2.360006093978882,2019-08-06 15:05:36:281,-158.28090638762473,-177.41206441278155,0,-5.997558116912842,46.18119812011719,-19.19218635559082
-0.0005675556603819132,-0.17366725206375122,9.639837265014648,-3.9957173202045016e-05,0.012242078195822388,0.007401666401305682,2.3700082302093506,2019-08-06 15:05:36:291,-151.52223110554388,-177.44315858373562,0,-5.997558116912842,46.18119812011719,-19.19218635559082
0.0473274365067482,-0.16408824920654297,9.704495429992676,0.0010255674062370958,0.016504176237249982,0.006069760763359559,2.380011796951294,2019-08-06 15:05:36:301,-152.09546843908944,-177.47549762956942,0,-5.997558116912842,46.18119812011719,-19.19218635559082
-0.0005675556603819132,-0.16408824920654297,9.639837265014648,-0.0019046251923001184,0.009311885272192268,0.0028731869722145387,2.390021800994873,2019-08-06 15:05:36:311,-145.4588603789395,-177.50541339711964,0,-5.997558116912842,46.18119812011719,-19.19218635559082
0.04972218722105026,-0.15690399706363678,9.627863883972168,-0.0016382440647108938,0.011442934292906064,-0.0032535792224119516,2.4002320766448975,2019-08-06 15:05:36:321,-146.15032555008437,-177.5356927361359,0,-5.997558116912842,46.18119812011719,-19.19218635559082
0.04014318808913231,-0.16648299992084503,9.745206832885742,-0.0013718629371216693,0.010910172037727614,0.004471473997824211,2.4102237224578857,2019-08-06 15:05:36:331,-146.82871965313458,-177.56463479163804,0,-5.997558116912842,46.18119812011719,-19.19218635559082
0.018590440973639488,-0.17606200277805328,9.668574333190918,-0.004035674213013915,0.015438651726893083,0.0031395680998037635,2.4199936389923096,2019-08-06 15:05:36:341,-147.49841125870296,-177.59026371505374,0,-5.997558116912842,46.18119812011719,-19.19218635559082
0.023379940539598465,-0.1808515042066574,9.668574333190918,0.0002264239747054862,0.01064379143028704,0.0023404247170360896,2.4300055503845215,2019-08-06 15:05:36:351,-148.1516556508795,-177.6171537797925,0,-5.997558116912842,46.18119812011719,-19.19218635559082
0.030564190819859505,-0.14493025839328766,9.678153038024902,0.0020910919816125757,0.009844647527370716,-0.0003233867214026093,2.4400229454040527,2019-08-06 15:05:36:361,-148.79054105110075,-177.64882809837687,0,-5.997558116912842,46.18119812011719,-19.19218635559082
0.011406192556023598,-0.19282524287700653,9.639837265014648,-0.0003063383292368989,0.013041222098738713,0.0010085190140713856,2.4499943256378174,2019-08-06 15:05:36:371,-149.4206760145834,-177.67276137713984,0,-5.997558116912842,46.18119812011719,-19.19218635559082
-0.019725553691387177,-0.1616934984922409,9.680547714233398,-0.002703768575067792,0.012774840451000838,-0.003519960350001176,2.460003614425659,2019-08-06 15:05:36:381,-142.84177718269166,-177.69864821026133,0,-5.997558116912842,46.18119812011719,-19.19218635559082
0.04972218722105026,-0.16648299992084503,9.642231941223145,-3.9957173202045016e-05,0.00824636128198402,-0.0005897678815011245,2.4701733589172363,2019-08-06 15:05:36:391,-143.58374145560288,-177.72486898997133,0,-5.997558116912842,46.18119812011719,-19.19218635559082
0.011406192556023598,-0.2143779993057251,9.651811599731445,0.0015583297264341264,0.004517024975586225,-0.005917390498304197,2.4802207946777344,2019-08-06 15:05:36:401,-144.31326075640305,-177.7458028225211,0,-4.648107528686523,44.83174514770508,-18.14261245727539
0.023379940539598465,-0.18564099073410034,9.567995071411133,-0.0003063383292368989,0.009844647527370716,-0.0032535792224119516,2.4902169704437256,2019-08-06 15:05:36:411,-145.02972107912808,-177.76848422889537,0,-4.648107528686523,44.83174514770508,-18.14261245727539
0.025774691253900528,-0.19043049216270447,9.623074531555176,0.0002264239747054862,0.012508459843560263,-0.010445869667321014,2.5002105236053467,2019-08-06 15:05:36:421,-145.73307637024013,-177.79056809793053,0,-4.648107528686523,44.83174514770508,-18.14261245727539
0.05690643563866615,-0.1497197449207306,9.656600952148438,-0.0037692930854246903,0.012508459843560263,-0.0024544358396442778,2.5102083683013916,2019-08-06 15:05:36:431,-146.4186839996053,-177.81487543592337,0,-4.648107528686523,44.83174514770508,-18.14261245727539
0.0664854347705841,-0.1616934984922409,9.656600952148438,0.0010255674062370958,0.008779123017013819,-0.006450152753482647,2.5201683044433594,2019-08-06 15:05:36:441,-147.08733056290416,-177.83996565693633,0,-4.648107528686523,44.83174514770508,-18.14261245727539
0.03295893967151642,-0.1880357414484024,9.654206275939941,-0.002171006319889343,0.01357398435391716,-0.009380345156964117,2.5302248001098633,2019-08-06 15:05:36:451,-147.74933670626945,-177.85962417259037,0,-4.648107528686523,44.83174514770508,-18.14261245727539
0.018590440973639488,-0.21198324859142303,9.627863883972168,0.0015583297264341264,0.01357398435391716,-0.005651009370714973,2.539989471435547,2019-08-06 15:05:36:461,-148.39957973819983,-177.87805976831316,0,-4.648107528686523,44.83174514770508,-18.14261245727539
0.059301186352968216,-0.17606200277805328,9.627863883972168,-0.004834817595781589,0.014639508864274061,-0.0053846282431257485,2.550002098083496,2019-08-06 15:05:36:471,-149.03276060444415,-177.8968277051834,0,-4.648107528686523,44.83174514770508,-18.14261245727539
0.05690643563866615,-0.2071937471628189,9.67336368560791,-0.004834817595781589,0.013840364961357736,-0.004585484860358075,2.5600244998931885,2019-08-06 15:05:36:481,-149.65315303654452,-177.9116297159439,0,-4.648107528686523,44.83174514770508,-18.14261245727539
0.03535369038581848,-0.21677273511886597,9.635047912597656,-0.0003063383292368989,0.010377409782549165,-0.0021880547120550534,2.570004463195801,2019-08-06 15:05:36:491,-150.2617005356002,-177.9274485897909,0,-4.648107528686523,44.83174514770508,-18.14261245727539
0.09043293446302414,-0.2071937471628189,9.63265323638916,-0.002171006319889343,0.013041222098738713,-0.0019216735844658289,2.5800282955169678,2019-08-06 15:05:36:501,-150.85304887669986,-177.9430334015958,0,-4.648107528686523,44.83174514770508,-18.14261245727539
0.059301186352968216,-0.23593074083328247,9.685338020324707,-0.0005727194893354142,0.008512742409573244,-0.0005897678815011245,2.590000867843628,2019-08-06 15:05:36:511,-151.43373858182113,-177.95594353422103,0,-4.648107528686523,44.83174514770508,-18.14261245727539
0.0736696869134903,-0.18324624001979828,9.666179656982422,-0.004035674213013915,0.012508459843560263,0.00020937558253977584,2.6000044345855713,2019-08-06 15:05:36:521,-152.00335650244278,-177.97283677952484,0,-5.547740936279297,46.631011962890625,-19.342124938964844
0.11198568344116211,-0.2143779993057251,9.623074531555176,-0.002171006319889343,0.015971413982071532,-0.0013889113292873795,2.6100046634674072,2019-08-06 15:05:36:531,-152.5589228530655,-177.98663709139944,0,-5.547740936279297,46.631011962890625,-19.342124938964844
0.09043293446302414,-0.1880357414484024,9.630258560180664,0.0002264239747054862,0.011975696548084513,-0.0013889113292873795,2.6200149059295654,2019-08-06 15:05:36:541,-153.10371521764534,-178.00465986921904,0,-5.547740936279297,46.631011962890625,-19.342124938964844
0.08564343303442001,-0.20958849787712097,9.599126815795898,0.002890235364380249,0.012242078195822388,0.0023404247170360896,2.6302101612091064,2019-08-06 15:05:36:551,-153.6384254498232,-178.02120513728022,0,-5.547740936279297,46.631011962890625,-19.342124938964844
0.05451168864965439,-0.1688777506351471,9.637442588806152,0.0004928051185493561,0.008779123017013819,0.003938711482571438,2.640136957168579,2019-08-06 15:05:36:561,-154.1640688162511,-178.04097779391847,0,-5.547740936279297,46.631011962890625,-19.342124938964844
0.1000119298696518,-0.21198324859142303,9.67336368560791,-0.0019046251923001184,0.009311885272192268,0.0020740435894468653,2.650001287460327,2019-08-06 15:05:36:571,-154.6740980310154,-178.05399559006227,0,-5.547740936279297,46.631011962890625,-19.342124938964844
0.08324868232011795,-0.18324624001979828,9.642231941223145,0.0004928051185493561,0.013041222098738713,0.0010085190140713856,2.660167694091797,2019-08-06 15:05:36:581,-155.17816724193662,-178.0714220080567,0,-5.547740936279297,46.631011962890625,-19.342124938964844
0.06169593706727028,-0.17366725206375122,9.64462661743164,-0.0037692930854246903,0.015172271119452508,0.005270617380591885,2.6702170372009277,2019-08-06 15:05:36:591,-155.67583490891974,-178.0872348199105,0,-5.547740936279297,46.631011962890625,-19.342124938964844
0.09043293446302414,-0.1952199935913086,9.663784980773926,-0.0016382440647108938,0.013840364961357736,-0.0024544358396442778,2.680217742919922,2019-08-06 15:05:36:601,-156.15936703093854,-178.1014244719783,0,-5.547740936279297,46.631011962890625,-19.342124938964844
0.0736696869134903,-0.1880357414484024,9.642231941223145,0.0015583297264341264,0.013840364961357736,0.0010085190140713856,2.690004348754883,2019-08-06 15:05:36:611,-156.63503021498863,-178.11790833663994,0,-5.547740936279297,46.631011962890625,-19.342124938964844
0.05451168864965439,-0.19043049216270447,9.66139030456543,-0.002970149702657017,0.014905889471714633,-0.0005897678815011245,2.7002437114715576,2019-08-06 15:05:36:621,-157.10443414609972,-178.13125891107947,0,-5.547740936279297,46.631011962890625,-19.342124938964844
0.07127493619918823,-0.1952199935913086,9.649415969848633,-0.0037692930854246903,0.013041222098738713,-0.002987198094822727,2.71000337600708,2019-08-06 15:05:36:631,-157.561028007724,-178.14338797393899,0,-5.547740936279297,46.631011962890625,-19.342124938964844
0.09522242844104767,-0.19043049216270447,9.670969009399414,0.0002264239747054862,0.011975696548084513,-0.00431910373276885,2.7199947834014893,2019-08-06 15:05:36:641,-158.00524344163577,-178.1580859998841,0,-5.547740936279297,46.631011962890625,-19.342124938964844
0.03295893967151642,-0.17127250134944916,9.642231941223145,-0.0011054818095324445,0.014639508864274061,-0.004052722605179625,2.730079174041748,2019-08-06 15:05:36:651,-158.4495110696897,-178.17394584960127,0,-4.9479851722717285,46.03125762939453,-20.241758346557617
0.09522242844104767,-0.19043049216270447,9.699706077575684,-0.002970149702657017,0.015172271119452508,-0.004585484860358075,2.7399983406066895,2019-08-06 15:05:36:661,-158.87772205330805,-178.18631826079442,0,-4.9479851722717285,46.03125762939453,-20.241758346557617
0.07606443762779236,-0.18324624001979828,9.601521492004395,-0.0008391006169246387,0.013840364961357736,-0.004851865987947299,2.750009775161743,2019-08-06 15:05:36:671,-159.2988699497719,-178.2002529151808,0,-4.9479851722717285,46.03125762939453,-20.241758346557617
0.09522242844104767,-0.20240424573421478,9.658995628356934,0.0020910919816125757,0.015438651726893083,0.0031395680998037635,2.760892391204834,2019-08-06 15:05:36:682,-159.71102990295466,-178.21351648766532,0,-4.9479851722717285,46.03125762939453,-20.241758346557617
0.0928276851773262,-0.2143779993057251,9.618284225463867,-0.0005727194893354142,0.012242078195822388,0.0007421378864821609,2.770228385925293,2019-08-06 15:05:36:691,-160.1121677023742,-178.22340931455935,0,-4.9479851722717285,46.03125762939453,-20.241758346557617
0.1000119298696518,-0.2215622365474701,9.618284225463867,0.0012919485988449018,0.011975696548084513,-0.0003233867214026093,2.7802367210388184,2019-08-06 15:05:36:701,-160.5047393691605,-178.2332750594381,0,-4.9479851722717285,46.03125762939453,-20.241758346557617
0.09761717915534973,-0.19761474430561066,9.647021293640137,0.0004928051185493561,0.013041222098738713,-0.003786341477590401,2.7900094985961914,2019-08-06 15:05:36:711,-160.89020582183008,-178.24540971476776,0,-4.9479851722717285,46.03125762939453,-20.241758346557617
0.09761717915534973,-0.25029924511909485,9.611100196838379,0.0004928051185493561,0.013041222098738713,0.0026068058446253144,2.8002231121063232,2019-08-06 15:05:36:721,-161.2682424203616,-178.25094811943183,0,-4.9479851722717285,46.03125762939453,-20.241758346557617
0.07606443762779236,-0.22874648869037628,9.589548110961914,0.001824710854023351,0.01357398435391716,0.0026068058446253144,2.8099985122680664,2019-08-06 15:05:36:731,-161.64123893196987,-178.25960153970917,0,-4.9479851722717285,46.03125762939453,-20.241758346557617
0.09043293446302414,-0.22635173797607422,9.64462661743164,0.0004928051185493561,0.012508459843560263,0.005270617380591885,2.820002317428589,2019-08-06 15:05:36:741,-162.00469593535018,-178.26779752957395,0,-4.9479851722717285,46.03125762939453,-20.241758346557617
0.06409068405628204,-0.21198324859142303,9.654206275939941,-0.0003063383292368989,0.016237795629809405,0.005004236253002661,2.8300235271453857,2019-08-06 15:05:36:751,-162.36613165918706,-178.27711168623625,0,-4.9479851722717285,46.03125762939453,-20.241758346557617
0.07127493619918823,-0.15690399706363678,9.647021293640137,0.0004928051185493561,0.012774840451000838,0.0026068058446253144,2.8400230407714844,2019-08-06 15:05:36:761,-162.71751553650694,-178.2932100452327,0,-4.9479851722717285,46.03125762939453,-20.241758346557617
0.08085393160581589,-0.15929874777793884,9.58236312866211,-0.0013718629371216693,0.013307602706179285,0.0031395680998037635,2.850001811981201,2019-08-06 15:05:36:771,-163.06095280268275,-178.3075290497007,0,-5.547740936279297,46.03125762939453,-19.64200210571289
0.059301186352968216,-0.21198324859142303,9.64462661743164,0.0012919485988449018,0.014373127216536186,0.005004236253002661,2.8600049018859863,2019-08-06 15:05:36:781,-163.4007610159605,-178.31692162085812,0,-5.547740936279297,46.03125762939453,-19.64200210571289
0.08085393160581589,-0.15690399706363678,9.642231941223145,0.0015583297264341264,0.011709315940643939,0.00553699850818111,2.8700013160705566,2019-08-06 15:05:36:791,-163.72970947240358,-178.33281251645207,0,-5.547740936279297,46.03125762939453,-19.64200210571289
0.018590440973639488,-0.22874648869037628,9.630258560180664,0.0034229976195586987,0.013307602706179285,0.004471473997824211,2.880035638809204,2019-08-06 15:05:36:801,-164.06040103510801,-178.34087117978447,0,-5.547740936279297,46.03125762939453,-19.64200210571289
0.06409068405628204,-0.23593074083328247,9.668574333190918,-0.0003063383292368989,0.009844647527370716,0.004737855125413436,2.890005111694336,2019-08-06 15:05:36:811,-164.37710800478393,-178.34592540309612,0,-5.547740936279297,46.03125762939453,-19.64200210571289
0.06169593706727028,-0.1688777506351471,9.62067985534668,0.001824710854023351,0.014639508864274061,0.005270617380591885,2.8999993801116943,2019-08-06 15:05:36:821,-164.6904327182708,-178.35991798016877,0,-5.547740936279297,46.03125762939453,-19.64200210571289
0.07127493619918823,-0.17606200277805328,9.649415969848633,-0.0016382440647108938,0.014373127216536186,0.003405949227392988,2.910022735595703,2019-08-06 15:05:36:831,-164.99624930911733,-178.37089169159853,0,-5.547740936279297,46.03125762939453,-19.64200210571289
0.03295893967151642,-0.24550974369049072,9.678153038024902,0.0004928051185493561,0.01357398435391716,0.004205092610160662,2.920001745223999,2019-08-06 15:05:36:841,-165.30002769907864,-178.37468730068048,0,-5.547740936279297,46.03125762939453,-19.64200210571289
0.023379940539598465,-0.14732499420642853,9.635047912597656,-0.002171006319889343,0.006648073996300022,-0.0003233867214026093,2.9300107955932617,2019-08-06 15:05:36:851,-165.59498279019257,-178.38845314233785,0,-5.547740936279297,46.03125762939453,-19.64200210571289
0.023379940539598465,-0.21198324859142303,9.658995628356934,-0.0003063383292368989,0.010377409782549165,0.0010085190140713856,2.94000244140625,2019-08-06 15:05:36:861,-165.88613144415976,-178.3953671654627,0,-5.547740936279297,46.03125762939453,-19.64200210571289
-0.0005675556603819132,-0.18324624001979828,9.682943344116211,-0.0005727194893354142,0.011975696548084513,0.0012749002066791914,2.9500091075897217,2019-08-06 15:05:36:871,-158.97520480181,-178.40545457215742,0,-5.547740936279297,46.03125762939453,-19.64200210571289
-0.04127829894423485,-0.18324624001979828,9.704495429992676,-0.0013718629371216693,0.01064379143028704,0.00020937558253977584,2.9600071907043457,2019-08-06 15:05:36:881,-152.20655018400376,-178.41494001871408,0,-5.547740936279297,46.03125762939453,-19.64200210571289
-0.02930455282330513,-0.18324624001979828,9.6901273727417,-0.002171006319889343,0.013840364961357736,-0.0021880547120550534,2.970001220703125,2019-08-06 15:05:36:891,-145.57365131521587,-178.4237555463502,0,-5.547740936279297,46.03125762939453,-19.64200210571289
0.0018271940061822534,-0.1616934984922409,9.637442588806152,0.003955759874737148,0.00718083625147847,0.001541281334268416,2.980186700820923,2019-08-06 15:05:36:901,-146.2660678469795,-178.43831883680053,0,-6.297435760498047,45.881317138671875,-19.791940689086914
0.0018271940061822534,-0.14493025839328766,9.656600952148438,0.0015583297264341264,0.015172271119452508,-0.001122530201698155,2.990037679672241,2019-08-06 15:05:36:911,-146.94892191856798,-178.45321733707266,0,-6.297435760498047,45.881317138671875,-19.791940689086914
-0.0149360541254282,-0.19282524287700653,9.623074531555176,0.0007591862786478714,0.013041222098738713,0.0010085190140713856,3.000040054321289,2019-08-06 15:05:36:921,-140.41904643122928,-178.46162081859643,0,-6.297435760498047,45.881317138671875,-19.791940689086914
-0.007751804776489735,-0.12816700339317322,9.611100196838379,0.0015583297264341264,0.014905889471714633,-0.00431910373276885,3.010025978088379,2019-08-06 15:05:36:931,-134.01994759263414,-178.47798193632883,0,-6.297435760498047,45.881317138671875,-19.791940689086914
-0.04367304965853691,-0.13774600625038147,9.63265323638916,-0.0013718629371216693,0.011709315940643939,-0.0019216735844658289,3.0199975967407227,2019-08-06 15:05:36:941,-127.75130012480746,-178.49126881973964,0,-6.297435760498047,45.881317138671875,-19.791940689086914
-0.06762054562568665,-0.15690399706363678,9.697311401367188,-0.005633960978549262,0.010111029175108591,-0.003786341477590401,3.029991388320923,2019-08-06 15:05:36:951,-121.60993840761309,-178.4997424723443,0,-6.297435760498047,45.881317138671875,-19.791940689086914
-0.005357054993510246,-0.14732499420642853,9.694916725158691,0.0020910919816125757,0.01064379143028704,-0.003519960350001176,3.040011167526245,2019-08-06 15:05:36:961,-115.58436112567031,-178.51351197456768,0,-6.297435760498047,45.881317138671875,-19.791940689086914
-0.04367304965853691,-0.19043049216270447,9.647021293640137,0.0020910919816125757,0.014639508864274061,-0.0032535792224119516,3.0500025749206543,2019-08-06 15:05:36:971,-109.68607454563877,-178.52179763801084,0,-6.297435760498047,45.881317138671875,-19.791940689086914
-0.0005675556603819132,-0.17606200277805328,9.66139030456543,0.0020910919816125757,0.011176553685465489,-0.005118247115536523,3.0599937438964844,2019-08-06 15:05:36:981,-103.89869044888621,-178.53165478997494,0,-6.297435760498047,45.881317138671875,-19.791940689086914
-0.017330802977085114,-0.16408824920654297,9.721259117126465,0.0015583297264341264,0.016504176237249982,0.0028731869722145387,3.069992780685425,2019-08-06 15:05:36:991,-98.23202572555658,-178.54255616992617,0,-6.297435760498047,45.881317138671875,-19.791940689086914
-0.0149360541254282,-0.1497197449207306,9.627863883972168,0.0012919485988449018,0.010910172037727614,-0.003519960350001176,3.0799918174743652,2019-08-06 15:05:37:001,-92.67528836668407,-178.55461208375257,0,-6.297435760498047,45.881317138671875,-19.791940689086914
0.037748441100120544,-0.12577225267887115,9.716469764709473,0.003955759874737148,0.011975696548084513,0.0028731869722145387,3.0900003910064697,2019-08-06 15:05:37:011,-94.42406084730902,-178.57091072965002,0,-6.297435760498047,45.881317138671875,-19.791940689086914
0.025774691253900528,-0.1616934984922409,9.613494873046875,0.003689378747147923,0.012508459843560263,-0.0019216735844658289,3.0999934673309326,2019-08-06 15:05:37:021,-96.1395259497265,-178.5822908326692,0,-5.6976799964904785,46.18119812011719,-18.89230728149414
0.04014318808913231,-0.1808515042066574,9.627863883972168,-0.002703768575067792,0.006115311741121573,0.0007421378864821609,3.1099936962127686,2019-08-06 15:05:37:031,-97.8153914038369,-178.58760426817602,0,-5.6976799964904785,46.18119812011719,-18.89230728149414
0.04972218722105026,-0.17127250134944916,9.584757804870605,0.003689378747147923,0.014373127216536186,0.0007421378864821609,3.119995355606079,2019-08-06 15:05:37:041,-99.46121087237093,-178.5974496264833,0,-5.6976799964904785,46.18119812011719,-18.89230728149414
0.08085393160581589,-0.18564099073410034,9.62067985534668,-0.0008391006169246387,0.009578266919930143,0.003405949227392988,3.129998207092285,2019-08-06 15:05:37:051,-101.06773611742659,-178.6029204602779,0,-5.6976799964904785,46.18119812011719,-18.89230728149414
0.07127493619918823,-0.1808515042066574,9.66139030456543,-0.004834817595781589,0.009844647527370716,0.005270617380591885,3.139991521835327,2019-08-06 15:05:37:061,-102.64345185066188,-178.60670124062054,0,-5.6976799964904785,46.18119812011719,-18.89230728149414
0.09522242844104767,-0.15690399706363678,9.666179656982422,-0.0019046251923001184,0.01410674660909561,0.001541281334268416,3.1499884128570557,2019-08-06 15:05:37:071,-104.1872131149157,-178.61489893087278,0,-5.6976799964904785,46.18119812011719,-18.89230728149414
0.07606443762779236,-0.20240424573421478,9.706890106201172,-0.002171006319889343,0.009844647527370716,0.005004236253002661,3.160001039505005,2019-08-06 15:05:37:081,-105.70002423055304,-178.61748967789484,0,-5.6976799964904785,46.18119812011719,-18.89230728149414
0.0736696869134903,-0.20479899644851685,9.647021293640137,-0.005101198723370813,0.011709315940643939,0.003938711482571438,3.1699886322021484,2019-08-06 15:05:37:091,-107.18383971429064,-178.61795585067205,0,-5.6976799964904785,46.18119812011719,-18.89230728149414
0.03295893967151642,-0.17606200277805328,9.656600952148438,-0.002171006319889343,0.012508459843560263,-0.0003233867214026093,3.1799991130828857,2019-08-06 15:05:37:101,-108.64328265569866,-178.62348608174705,0,-5.6976799964904785,46.18119812011719,-18.89230728149414
0.0473274365067482,-0.1952199935913086,9.64462661743164,0.0015583297264341264,0.01410674660909561,-0.0021880547120550534,3.1899986267089844,2019-08-06 15:05:37:111,-110.0727144247334,-178.6286996380001,0,-5.6976799964904785,46.18119812011719,-18.89230728149414
0.02098519168794155,-0.21677273511886597,9.654206275939941,-0.0037692930854246903,0.01410674660909561,-0.003519960350001176,3.1999919414520264,2019-08-06 15:05:37:121,-111.47668490570545,-178.6282848751771,0,-5.6976799964904785,46.18119812011719,-18.89230728149414
0.0473274365067482,-0.17606200277805328,9.67336368560791,-0.0013718629371216693,0.013041222098738713,-0.0013889113292873795,3.209998369216919,2019-08-06 15:05:37:131,-112.84887213579083,-178.63409421857673,0,-5.6976799964904785,46.18119812011719,-18.89230728149414
0.023379940539598465,-0.19761474430561066,9.709284782409668,0.0010255674062370958,0.013307602706179285,-0.0013889113292873795,3.2199904918670654,2019-08-06 15:05:37:141,-114.19660165039583,-178.63866793777993,0,-5.6976799964904785,46.18119812011719,-18.89230728149414
0.00422194367274642,-0.2143779993057251,9.625469207763672,0.0010255674062370958,0.013041222098738713,-5.7005565367755386e-05,3.2299997806549072,2019-08-06 15:05:37:151,-115.51949642379557,-178.6409534089634,0,-4.9479851722717285,46.93089294433594,-19.64200210571289
0.006616693455725908,-0.18564099073410034,9.596732139587402,0.0020910919816125757,0.01756970178790418,-0.004585484860358075,3.2399885654449463,2019-08-06 15:05:37:161,-116.81817071633073,-178.64714312694417,0,-4.9479851722717285,46.93089294433594,-19.64200210571289
0.00901144277304411,-0.20000949501991272,9.663784980773926,0.0031566164919694735,0.015172271119452508,-0.000856149009090349,3.249999523162842,2019-08-06 15:05:37:171,-118.0892672850774,-178.6522612339175,0,-4.9479851722717285,46.93089294433594,-19.64200210571289
0.0473274365067482,-0.24311499297618866,9.647021293640137,0.003689378747147923,0.010111029175108591,0.003672330354982212,3.2599937915802,2019-08-06 15:05:37:181,-119.32753429866771,-178.65241424675511,0,-4.9479851722717285,46.93089294433594,-19.64200210571289
0.0736696869134903,-0.1952199935913086,9.709284782409668,-0.0011054818095324445,0.012242078195822388,0.004205092610160662,3.269995927810669,2019-08-06 15:05:37:191,-120.53916446600618,-178.65570782440065,0,-4.9479851722717285,46.93089294433594,-19.64200210571289
0.025774691253900528,-0.22635173797607422,9.663784980773926,-0.0013718629371216693,0.013307602706179285,-0.0003233867214026093,3.2800004482269287,2019-08-06 15:05:37:201,-121.7328004423627,-178.65498751377183,0,-4.9479851722717285,46.93089294433594,-19.64200210571289
0.00901144277304411,-0.20479899644851685,9.711679458618164,-0.002171006319889343,0.016770557884987856,0.004205092610160662,3.289992332458496,2019-08-06 15:05:37:211,-122.9064901447468,-178.65650835504792,0,-4.9479851722717285,46.93089294433594,-19.64200210571289
0.06169593706727028,-0.21916748583316803,9.611100196838379,-0.0005727194893354142,0.01357398435391716,0.0028731869722145387,3.2999966144561768,2019-08-06 15:05:37:221,-124.04862957567286,-178.6569300199434,0,-4.9479851722717285,46.93089294433594,-19.64200210571289
0.10959093272686005,-0.2335359901189804,9.6901273727417,0.0007591862786478714,0.016504176237249982,0.0031395680998037635,3.3099939823150635,2019-08-06 15:05:37:231,-125.1639623858653,-178.65660590512894,0,-4.9479851722717285,46.93089294433594,-19.64200210571289
0.07606443762779236,-0.22635173797607422,9.630258560180664,0.0015583297264341264,0.014373127216536186,0.001541281334268416,3.319990634918213,2019-08-06 15:05:37:241,-126.2597001209218,-178.65741959759507,0,-4.9479851722717285,46.93089294433594,-19.64200210571289
0.1383279263973236,-0.16408824920654297,9.697311401367188,0.003955759874737148,0.016237795629809405,0.003405949227392988,3.3299970626831055,2019-08-06 15:05:37:251,-127.32728460057815,-178.66710559462356,0,-4.9479851722717285,46.93089294433594,-19.64200210571289
0.10959093272686005,-0.1808515042066574,9.658995628356934,0.0010255674062370958,0.013307602706179285,0.004471473997824211,3.3399953842163086,2019-08-06 15:05:37:261,-128.37520885852456,-178.67288604279557,0,-4.9479851722717285,46.93089294433594,-19.64200210571289
0.11677517741918564,-0.20240424573421478,9.675758361816406,0.003689378747147923,0.011442934292906064,-0.0005897678815011245,3.349994659423828,2019-08-06 15:05:37:271,-129.40030020744828,-178.6775321888979,0,-5.547740936279297,45.131622314453125,-18.742368698120117
0.13593317568302155,-0.20000949501991272,9.627863883972168,0.002890235364380249,0.013307602706179285,0.003405949227392988,3.3599867820739746,2019-08-06 15:05:37:281,-130.40358272423177,-178.68180127323177,0,-5.547740936279297,45.131622314453125,-18.742368698120117
0.13114367425441742,-0.2143779993057251,9.63265323638916,-0.0005727194893354142,0.012242078195822388,0.00020937558253977584,3.3699960708618164,2019-08-06 15:05:37:291,-131.38679127092357,-178.6823448328814,0,-5.547740936279297,45.131622314453125,-18.742368698120117
0.15988066792488098,-0.23114123940467834,9.658995628356934,-0.005633960978549262,0.01064379143028704,0.0026068058446253144,3.3799965381622314,2019-08-06 15:05:37:301,-132.3460661464589,-178.67811762463666,0,-5.547740936279297,45.131622314453125,-18.742368698120117
0.12874892354011536,-0.18564099073410034,9.639837265014648,0.004488522389989922,0.008779123017013819,0.004737855125413436,3.3899970054626465,2019-08-06 15:05:37:311,-133.2887706691343,-178.6850107301466,0,-5.547740936279297,45.131622314453125,-18.742368698120117
0.09043293446302414,-0.19282524287700653,9.639837265014648,-0.002970149702657017,0.012774840451000838,0.0020740435894468653,3.3999953269958496,2019-08-06 15:05:37:321,-134.21941739579302,-178.68672441745215,0,-5.547740936279297,45.131622314453125,-18.742368698120117
0.11677517741918564,-0.18324624001979828,9.625469207763672,0.0015583297264341264,0.013307602706179285,0.0071352852737164565,3.4099957942962646,2019-08-06 15:05:37:331,-135.12860015275194,-178.69205207384152,0,-5.547740936279297,45.131622314453125,-18.742368698120117
0.10959093272686005,-0.21916748583316803,9.709284782409668,-0.0008391006169246387,0.01410674660909561,0.0023404247170360896,3.4199907779693604,2019-08-06 15:05:37:341,-136.02101143147394,-178.6918777778198,0,-5.547740936279297,45.131622314453125,-18.742368698120117
0.13114367425441742,-0.17845675349235535,9.642231941223145,0.0007591862786478714,0.015971413982071532,0.006069760763359559,3.4299967288970947,2019-08-06 15:05:37:351,-136.89397986811164,-178.69726077242976,0,-5.547740936279297,45.131622314453125,-18.742368698120117
0.08085393160581589,-0.18564099073410034,9.666179656982422,0.0020910919816125757,0.012242078195822388,0.0018076624618576407,3.4400007724761963,2019-08-06 15:05:37:361,-137.7533920341779,-178.70248533496994,0,-5.547740936279297,45.131622314453125,-18.742368698120117
0.05451168864965439,-0.20958849787712097,9.682943344116211,-0.005900342106138487,0.014639508864274061,0.0010085190140713856,3.4501404762268066,2019-08-06 15:05:37:371,-138.60020804700827,-178.70027669867628,0,-5.547740936279297,45.131622314453125,-18.742368698120117
0.02816944010555744,-0.20000949501991272,9.637442588806152,0.0020910919816125757,0.011709315940643939,0.006868904146127233,3.459984064102173,2019-08-06 15:05:37:381,-139.43132640767416,-178.70364873821956,0,-5.547740936279297,45.131622314453125,-18.742368698120117
0.06888018548488617,-0.14732499420642853,9.685338020324707,-0.0019046251923001184,0.010910172037727614,0.0012749002066791914,3.469998359680176,2019-08-06 15:05:37:391,-140.24068529887853,-178.71107545641235,0,-5.547740936279297,45.131622314453125,-18.742368698120117
0.0664854347705841,-0.14014075696468353,9.596732139587402,-0.0011054818095324445,0.012242078195822388,0.004737855125413436,3.479994058609009,2019-08-06 15:05:37:401,-141.03480385705814,-178.7195009101927,0,-5.397802352905273,44.68180847167969,-19.791940689086914
0.052116937935352325,-0.14732499420642853,9.630258560180664,-0.004302055340603139,0.010111029175108591,0.001541281334268416,3.4900002479553223,2019-08-06 15:05:37:411,-141.8135872288295,-178.7251647948013,0,-5.397802352905273,44.68180847167969,-19.791940689086914
0.044932689517736435,-0.16408824920654297,9.635047912597656,-0.0008391006169246387,0.011442934292906064,-0.003519960350001176,3.4999895095825195,2019-08-06 15:05:37:421,-142.57838988045054,-178.73067739248265,0,-5.397802352905273,44.68180847167969,-19.791940689086914
0.05451168864965439,-0.17606200277805328,9.625469207763672,0.0015583297264341264,0.012774840451000838,-0.001122530201698155,3.5099995136260986,2019-08-06 15:05:37:431,-143.3275127474578,-178.7359818119934,0,-5.397802352905273,44.68180847167969,-19.791940689086914
0.03535369038581848,-0.17606200277805328,9.685338020324707,0.0012919485988449018,0.013307602706179285,-0.0003233867214026093,3.519989013671875,2019-08-06 15:05:37:441,-144.06424401314192,-178.7411584537227,0,-5.397802352905273,44.68180847167969,-19.791940689086914
0.05690643563866615,-0.17127250134944916,9.711679458618164,-0.0011054818095324445,0.011176553685465489,-0.004851865987947299,3.5300028324127197,2019-08-06 15:05:37:451,-144.78252890884926,-178.7455067436788,0,-5.397802352905273,44.68180847167969,-19.791940689086914
0.02098519168794155,-0.17366725206375122,9.726048469543457,-0.0005727194893354142,0.01357398435391716,-0.0005897678815011245,3.5399935245513916,2019-08-06 15:05:37:461,-145.49202055478028,-178.74981615829836,0,-5.397802352905273,44.68180847167969,-19.791940689086914
0.016195692121982574,-0.18324624001979828,9.692522048950195,-0.0016382440647108938,0.012774840451000838,-0.0053846282431257485,3.5499958992004395,2019-08-06 15:05:37:471,-146.1874401399523,-178.7522377141949,0,-5.397802352905273,44.68180847167969,-19.791940689086914
0.018590440973639488,-0.1880357414484024,9.627863883972168,0.0015583297264341264,0.015971413982071532,-0.004052722605179625,3.5599987506866455,2019-08-06 15:05:37:481,-146.87044917606605,-178.75569089914603,0,-5.397802352905273,44.68180847167969,-19.791940689086914
0.02098519168794155,-0.19761474430561066,9.630258560180664,-0.0005727194893354142,0.014639508864274061,-0.0061837716258934215,3.5699968338012695,2019-08-06 15:05:37:491,-147.53876163291167,-178.75674445453197,0,-5.397802352905273,44.68180847167969,-19.791940689086914
0.03535369038581848,-0.17845675349235535,9.726048469543457,0.0010255674062370958,0.01064379143028704,-0.006982915528809746,3.5799944400787354,2019-08-06 15:05:37:501,-148.18979611764513,-178.76116200315283,0,-5.397802352905273,44.68180847167969,-19.791940689086914
0.07845918089151382,-0.1425355076789856,9.658995628356934,-0.0016382440647108938,0.01410674660909561,-0.010445869667321014,3.5899946689605713,2019-08-06 15:05:37:511,-148.824613327714,-178.76811009292408,0,-5.397802352905273,44.68180847167969,-19.791940689086914
0.0736696869134903,-0.20240424573421478,9.685338020324707,-0.0019046251923001184,0.012508459843560263,-0.006450152753482647,3.59999680519104,2019-08-06 15:05:37:521,-149.44643002318261,-178.7677343532569,0,-5.09792423248291,46.481075286865234,-18.89230728149414
0.06888018548488617,-0.2143779993057251,9.630258560180664,0.0023574731092018,0.012242078195822388,-0.008581202294345095,3.6099984645843506,2019-08-06 15:05:37:531,-150.05618048054436,-178.76819873041478,0,-5.09792423248291,46.481075286865234,-18.89230728149414
0.0473274365067482,-0.21198324859142303,9.666179656982422,-0.0013718629371216693,0.011176553685465489,-0.009113964549523543,3.619990825653076,2019-08-06 15:05:37:541,-150.65571712295306,-178.76693867801896,0,-5.09792423248291,46.481075286865234,-18.89230728149414
0.06169593706727028,-0.22874648869037628,9.654206275939941,-0.0008391006169246387,0.015971413982071532,-0.007249296656398971,3.6299996376037598,2019-08-06 15:05:37:551,-151.24425564944372,-178.76398212328863,0,-5.09792423248291,46.481075286865234,-18.89230728149414
0.07606443762779236,-0.22395698726177216,9.58236312866211,0.003955759874737148,0.014905889471714633,-0.005651009370714973,3.6399855613708496,2019-08-06 15:05:37:561,-151.81863234806357,-178.76414328340275,0,-5.09792423248291,46.481075286865234,-18.89230728149414
0.08803818374872208,-0.20958849787712097,9.666179656982422,0.004754903517579147,0.016770557884987856,-0.0061837716258934215,3.6499998569488525,2019-08-06 15:05:37:571,-152.38125326121624,-178.7666914995654,0,-5.09792423248291,46.481075286865234,-18.89230728149414
0.044932689517736435,-0.1688777506351471,9.635047912597656,-0.004834817595781589,0.01756970178790418,-0.005651009370714973,3.659989356994629,2019-08-06 15:05:37:581,-152.93813930482494,-178.76856286303948,0,-5.09792423248291,46.481075286865234,-18.89230728149414
0.06888018548488617,-0.21198324859142303,9.66139030456543,0.0015583297264341264,0.015438651726893083,-0.0032535792224119516,3.669999361038208,2019-08-06 15:05:37:591,-153.47988438879875,-178.76892866244344,0,-5.09792423248291,46.481075286865234,-18.89230728149414
0.07127493619918823,-0.1616934984922409,9.611100196838379,-0.0005727194893354142,0.011709315940643939,-0.002987198094822727,3.6803126335144043,2019-08-06 15:05:37:601,-154.00856959822613,-178.77394180367588,0,-5.09792423248291,46.481075286865234,-18.89230728149414
0.05690643563866615,-0.21198324859142303,9.663784980773926,0.0020910919816125757,0.012774840451000838,-0.000856149009090349,3.6900200843811035,2019-08-06 15:05:37:611,-154.52861362194093,-178.77447017205185,0,-5.09792423248291,46.481075286865234,-18.89230728149414
0.0664854347705841,-0.1616934984922409,9.649415969848633,0.0015583297264341264,0.014905889471714633,-0.0024544358396442778,3.700005292892456,2019-08-06 15:05:37:621,-155.0385032588849,-178.78065437335945,0,-5.09792423248291,46.481075286865234,-18.89230728149414
-0.02930455282330513,-0.21198324859142303,9.654206275939941,-0.0037692930854246903,0.011975696548084513,0.001541281334268416,3.7100064754486084,2019-08-06 15:05:37:631,-148.34793664849616,-178.77776706330556,0,-5.09792423248291,46.481075286865234,-18.89230728149414
0.011406192556023598,-0.21916748583316803,9.611100196838379,0.004488522389989922,0.013307602706179285,0.007401666401305682,3.720259189605713,2019-08-06 15:05:37:641,-148.9872790085834,-178.77866926369407,0,-5.09792423248291,46.481075286865234,-18.89230728149414
-0.005357054993510246,-0.20240424573421478,9.587152481079102,-0.0016382440647108938,0.013307602706179285,0.0071352852737164565,3.730006217956543,2019-08-06 15:05:37:651,-142.41545691191055,-178.7780102664389,0,-5.09792423248291,46.18119812011719,-18.292551040649414
-0.02212030254304409,-0.21677273511886597,9.647021293640137,0.002890235364380249,0.014905889471714633,0.008200809784073356,3.7399954795837402,2019-08-06 15:05:37:661,-135.97813596485457,-178.77832629585225,0,-5.09792423248291,46.18119812011719,-18.292551040649414
-0.010146554559469223,-0.23593074083328247,9.637442588806152,0.0002264239747054862,0.01410674660909561,0.007401666401305682,3.7499759197235107,2019-08-06 15:05:37:671,-129.66768512118355,-178.77483951556047,0,-5.09792423248291,46.18119812011719,-18.292551040649414
0.006616693455725908,-0.18324624001979828,9.656600952148438,-0.0016382440647108938,0.012242078195822388,-0.0003233867214026093,3.759997606277466,2019-08-06 15:05:37:681,-130.68043505604047,-178.77667826768476,0,-5.09792423248291,46.18119812011719,-18.292551040649414
0.0018271940061822534,-0.18564099073410034,9.735627174377441,0.0020910919816125757,0.014905889471714633,0.008200809784073356,3.770020008087158,2019-08-06 15:05:37:691,-131.67499967428645,-178.78047356564156,0,-5.09792423248291,46.18119812011719,-18.292551040649414
-0.007751804776489735,-0.2071937471628189,9.627863883972168,0.0012919485988449018,0.009045504664751694,0.00899995316684103,3.7800052165985107,2019-08-06 15:05:37:701,-125.44749383213392,-178.78093189914094,0,-5.09792423248291,46.18119812011719,-18.292551040649414
-0.038883551955223083,-0.1952199935913086,9.639837265014648,0.0010255674062370958,0.010910172037727614,0.01193014609047115,3.7899959087371826,2019-08-06 15:05:37:711,-119.34928647644242,-178.7826853811338,0,-5.09792423248291,46.18119812011719,-18.292551040649414
-0.010146554559469223,-0.15929874777793884,9.651811599731445,-0.0005727194893354142,0.015438651726893083,0.009532715422019479,3.799999952316284,2019-08-06 15:05:37:721,-113.37217768786293,-178.78779886515832,0,-5.09792423248291,46.18119812011719,-18.292551040649414
0.030564190819859505,-0.15690399706363678,9.649415969848633,0.0031566164919694735,0.01064379143028704,0.009266334814578904,3.810039520263672,2019-08-06 15:05:37:731,-114.70710462039439,-178.79519085773023,0,-5.09792423248291,46.18119812011719,-18.292551040649414
0.011406192556023598,-0.17366725206375122,9.63265323638916,0.0015583297264341264,0.01410674660909561,0.0020740435894468653,3.8200244903564453,2019-08-06 15:05:37:741,-116.01951464395864,-178.799503233845,0,-5.09792423248291,46.18119812011719,-18.292551040649414
0.025774691253900528,-0.1497197449207306,9.642231941223145,0.0012919485988449018,0.006648073996300022,0.008200809784073356,3.8300280570983887,2019-08-06 15:05:37:751,-117.29979542245826,-178.80644708212668,0,-5.09792423248291,46.18119812011719,-18.292551040649414
0.0018271940061822534,-0.17366725206375122,9.66139030456543,0.0002264239747054862,0.010910172037727614,0.005004236253002661,3.840029001235962,2019-08-06 15:05:37:761,-118.55970941981103,-178.80984922848745,0,-5.09792423248291,46.18119812011719,-18.292551040649414
0.006616693455725908,-0.1616934984922409,9.627863883972168,0.0012919485988449018,0.013307602706179285,0.009799097069757354,3.850024700164795,2019-08-06 15:05:37:771,-119.79519669467854,-178.81513428668944,0,-5.6976799964904785,45.881317138671875,-18.89230728149414
0.025774691253900528,-0.12098275125026703,9.611100196838379,0.001824710854023351,0.012242078195822388,0.008733572559400455,3.86003041267395,2019-08-06 15:05:37:781,-121.00309753129261,-178.8254329472466,0,-5.6976799964904785,45.881317138671875,-18.89230728149414
0.006616693455725908,-0.15929874777793884,9.692522048950195,0.0002264239747054862,0.011442934292906064,0.003672330354982212,3.8700201511383057,2019-08-06 15:05:37:791,-122.18867190928304,-178.83021961338844,0,-5.6976799964904785,45.881317138671875,-18.89230728149414
0.016195692121982574,-0.17845675349235535,9.596732139587402,-0.0008391006169246387,0.014639508864274061,0.007668047528894907,3.8800320625305176,2019-08-06 15:05:37:801,-123.35119445184137,-178.831837002277,0,-5.6976799964904785,45.881317138671875,-18.89230728149414
0.023379940539598465,-0.14493025839328766,9.601521492004395,-0.0008391006169246387,0.011176553685465489,0.009266334814578904,3.890026330947876,2019-08-06 15:05:37:811,-124.48765225848861,-178.83743365803457,0,-5.6976799964904785,45.881317138671875,-18.89230728149414
0.04972218722105026,-0.21677273511886597,9.601521492004395,-0.0024373874474785677,0.009578266919930143,0.0028731869722145387,3.900027275085449,2019-08-06 15:05:37:821,-125.59734374957846,-178.83344942131126,0,-5.6976799964904785,45.881317138671875,-18.89230728149414
0.05451168864965439,-0.20240424573421478,9.596732139587402,-0.002970149702657017,0.011709315940643939,0.007668047528894907,3.9100279808044434,2019-08-06 15:05:37:831,-126.68546310432167,-178.83094770867038,0,-5.6976799964904785,45.881317138671875,-18.89230728149414
0.06169593706727028,-0.20240424573421478,9.599126815795898,0.0010255674062370958,0.008779123017013819,0.005803379635770335,3.9200220108032227,2019-08-06 15:05:37:841,-127.74931538646669,-178.8307454204905,0,-5.6976799964904785,45.881317138671875,-18.89230728149414
0.07845918089151382,-0.17127250134944916,9.608705520629883,-0.0003063383292368989,0.012508459843560263,0.0007421378864821609,3.9300336837768555,2019-08-06 15:05:37:851,-128.79200407856763,-178.83353483910895,0,-5.6976799964904785,45.881317138671875,-18.89230728149414
0.0736696869134903,-0.22395698726177216,9.67336368560791,-0.005101198723370813,0.009578266919930143,0.005270617380591885,3.940031051635742,2019-08-06 15:05:37:861,-129.81281395483228,-178.82747516733326,0,-5.6976799964904785,45.881317138671875,-18.89230728149414
0.06169593706727028,-0.19282524287700653,9.596732139587402,0.0010255674062370958,0.01064379143028704,0.0031395680998037635,3.950024366378784,2019-08-06 15:05:37:871,-130.81516333847338,-178.82847957591642,0,-5.6976799964904785,45.881317138671875,-18.89230728149414
0.023379940539598465,-0.2071937471628189,9.587152481079102,-0.003236530830246241,0.010377409782549165,0.005803379635770335,3.960026264190674,2019-08-06 15:05:37:881,-131.80189356986992,-178.82533111191137,0,-5.6976799964904785,45.881317138671875,-18.89230728149414
0.05690643563866615,-0.21198324859142303,9.709284782409668,-0.002171006319889343,0.0074472173790676955,0.004471473997824211,3.970020294189453,2019-08-06 15:05:37:891,-132.76331863263292,-178.822591348239,0,-5.6976799964904785,45.881317138671875,-18.89230728149414
0.018590440973639488,-0.20958849787712097,9.654206275939941,-0.003502911957835466,0.015971413982071532,0.0018076624618576407,3.9800302982330322,2019-08-06 15:05:37:901,-133.71482255064677,-178.81929726580742,0,-5.84761905670166,45.731380462646484,-18.742368698120117
0.04014318808913231,-0.20479899644851685,9.66139030456543,-0.004834817595781589,0.005316168358353898,0.0010085190140713856,3.990023136138916,2019-08-06 15:05:37:911,-134.63874771794485,-178.81591141416533,0,-5.84761905670166,45.731380462646484,-18.742368698120117
0.03295893967151642,-0.18564099073410034,9.627863883972168,-0.0008391006169246387,0.011176553685465489,-0.004052722605179625,4.000027418136597,2019-08-06 15:05:37:921,-135.54832828806124,-178.81702943771765,0,-5.84761905670166,45.731380462646484,-18.742368698120117
0.023379940539598465,-0.19282524287700653,9.74281120300293,-0.002171006319889343,0.006914455123889247,0.0028731869722145387,4.0100321769714355,2019-08-06 15:05:37:931,-136.438496164975,-178.81679277742202,0,-5.84761905670166,45.731380462646484,-18.742368698120117
0.016195692121982574,-0.1952199935913086,9.699706077575684,-0.002970149702657017,0.0021195946972460415,0.001541281334268416,4.0200159549713135,2019-08-06 15:05:37:941,-137.30900111609688,-178.81573187021488,0,-5.84761905670166,45.731380462646484,-18.742368698120117
0.006616693455725908,-0.21677273511886597,9.670969009399414,0.0012919485988449018,0.011709315940643939,-0.002987198094822727,4.030026912689209,2019-08-06 15:05:37:951,-138.16861904960712,-178.81446229864915,0,-5.84761905670166,45.731380462646484,-18.742368698120117
0.030564190819859505,-0.20958849787712097,9.706890106201172,-0.0008391006169246387,0.012774840451000838,-0.005917390498304197,4.040024995803833,2019-08-06 15:05:37:961,-139.00881020415042,-178.81296353919728,0,-5.84761905670166,45.731380462646484,-18.742368698120117
0.016195692121982574,-0.15450924634933472,9.647021293640137,0.0007591862786478714,0.012774840451000838,-0.0019216735844658289,4.050030469894409,2019-08-06 15:05:37:971,-139.83388718850568,-178.81877906553072,0,-5.84761905670166,45.731380462646484,-18.742368698120117
0.06169593706727028,-0.20479899644851685,9.706890106201172,-0.002171006319889343,0.01810246300278533,-0.005917390498304197,4.060024738311768,2019-08-06 15:05:37:981,-140.64008491050333,-178.81701186751317,0,-5.84761905670166,45.731380462646484,-18.742368698120117
0.016195692121982574,-0.1616934984922409,9.714075088500977,0.0020910919816125757,0.012242078195822388,-0.0019216735844658289,4.0700273513793945,2019-08-06 15:05:37:991,-141.43224840448875,-178.8227737578705,0,-5.84761905670166,45.731380462646484,-18.742368698120117
-0.07959429919719696,-0.15929874777793884,9.73083782196045,0.005820428027936045,0.0194343681205828,-0.001122530201698155,4.0800251960754395,2019-08-06 15:05:38:001,-135.0238863705534,-178.83082819717012,0,-5.84761905670166,45.731380462646484,-18.742368698120117
-0.04127829894423485,-0.16648299992084503,9.682943344116211,0.0063531902831144935,0.01810246300278533,0.003672330354982212,4.090035676956177,2019-08-06 15:05:38:011,-128.73846880287746,-178.83808240238886,0,-5.84761905670166,45.731380462646484,-18.742368698120117
0.02098519168794155,-0.16648299992084503,9.656600952148438,0.0063531902831144935,0.012508459843560263,-0.0005897678815011245,4.100017786026001,2019-08-06 15:05:38:021,-129.7682201078043,-178.84512767234375,0,-5.997558116912842,47.380706787109375,-18.292551040649414
0.02098519168794155,-0.20958849787712097,9.663784980773926,0.00555404690034682,0.01357398435391716,-0.0005897678815011245,4.110037803649902,2019-08-06 15:05:38:031,-130.77800435106846,-178.84650119054555,0,-5.997558116912842,47.380706787109375,-18.292551040649414
0.0018271940061822534,-0.1952199935913086,9.63265323638916,0.003955759874737148,0.017036938492428433,-0.003786341477590401,4.12002158164978,2019-08-06 15:05:38:041,-131.77177759763634,-178.8485682184353,0,-5.997558116912842,47.380706787109375,-18.292551040649414
0.00422194367274642,-0.20000949501991272,9.618284225463867,0.004222141002326372,0.019167987513142228,-0.002987198094822727,4.130037546157837,2019-08-06 15:05:38:051,-132.74661902751262,-178.85014580907233,0,-5.997558116912842,47.380706787109375,-18.292551040649414
0.07127493619918823,-0.15450924634933472,9.627863883972168,0.005021284645168371,0.01570503337463096,-0.004585484860358075,4.1400206089019775,2019-08-06 15:05:38:061,-133.6920070244886,-178.8575693339554,0,-5.997558116912842,47.380706787109375,-18.292551040649414
0.08324868232011795,-0.19282524287700653,9.615889549255371,-3.9957173202045016e-05,0.01810246300278533,-0.00831482116675587,4.1500396728515625,2019-08-06 15:05:38:071,-134.6184303585705,-178.85741976356994,0,-5.997558116912842,47.380706787109375,-18.292551040649414
0.09522242844104767,-0.18564099073410034,9.64462661743164,-0.003502911957835466,0.01863522629826108,-0.000856149009090349,4.1600282192230225,2019-08-06 15:05:38:081,-135.52520004153683,-178.85625273617285,0,-5.997558116912842,47.380706787109375,-18.292551040649414
0.12874892354011536,-0.19761474430561066,9.642231941223145,0.0015583297264341264,0.021299036533856022,-0.002987198094822727,4.1701977252960205,2019-08-06 15:05:38:091,-136.41155808941772,-178.85653559327133,0,-5.997558116912842,47.380706787109375,-18.292551040649414
0.15509118139743805,-0.19282524287700653,9.647021293640137,-0.002171006319889343,0.016237795629809405,-0.002987198094822727,4.180012941360474,2019-08-06 15:05:38:101,-137.2738551257194,-178.8553068095008,0,-5.997558116912842,47.380706787109375,-18.292551040649414
0.22214417159557343,-0.20240424573421478,9.60391616821289,0.0002264239747054862,0.017303320140166306,-0.003786341477590401,4.190036058425903,2019-08-06 15:05:38:111,-138.11161530485504,-178.85418130318888,0,-5.997558116912842,47.380706787109375,-18.292551040649414
0.20298616588115692,-0.25748348236083984,9.615889549255371,-0.002970149702657017,0.01357398435391716,0.00020937558253977584,4.200015306472778,2019-08-06 15:05:38:121,-138.93280289693075,-178.84475669362885,0,-5.997558116912842,47.380706787109375,-18.292551040649414
0.2245389223098755,-0.1880357414484024,9.637442588806152,-0.0011054818095324445,0.013041222098738713,-5.7005565367755386e-05,4.210038185119629,2019-08-06 15:05:38:131,-139.73479282062698,-178.84488433807627,0,-5.997558116912842,47.380706787109375,-18.292551040649414
0.20777566730976105,-0.2862204909324646,9.623074531555176,-0.002171006319889343,0.0074472173790676955,0.006602523018538008,4.220139026641846,2019-08-06 15:05:38:141,-140.51958265451498,-178.83268225439144,0,-5.997558116912842,47.380706787109375,-18.292551040649414
0.1455121785402298,-0.23593074083328247,9.565600395202637,-0.0008391006169246387,0.011975696548084513,0.0071352852737164565,4.230020999908447,2019-08-06 15:05:38:151,-141.29840561825134,-178.82730531160433,0,-7.047130584716797,46.03125762939453,-18.742368698120117
0.1646701693534851,-0.23114123940467834,9.666179656982422,-0.005633960978549262,0.00718083625147847,0.008733572559400455,4.240031719207764,2019-08-06 15:05:38:161,-142.05695426778888,-178.82019601928286,0,-7.047130584716797,46.03125762939453,-18.742368698120117
0.12395942956209183,-0.24790449440479279,9.606310844421387,-0.002703768575067792,0.005582549485943123,0.007401666401305682,4.250033378601074,2019-08-06 15:05:38:171,-142.80416427077637,-178.8127082674158,0,-7.047130584716797,46.03125762939453,-18.742368698120117
0.07127493619918823,-0.2143779993057251,9.63265323638916,-0.0013718629371216693,0.010377409782549165,0.009266334814578904,4.260037660598755,2019-08-06 15:05:38:181,-143.54543155805274,-178.8101849380913,0,-7.047130584716797,46.03125762939453,-18.742368698120117
0.059301186352968216,-0.23114123940467834,9.647021293640137,-3.9957173202045016e-05,0.004250643847997001,0.00553699850818111,4.270029067993164,2019-08-06 15:05:38:191,-144.26986363996858,-178.80650810248832,0,-7.047130584716797,46.03125762939453,-18.742368698120117
0.011406192556023598,-0.17845675349235535,9.656600952148438,-0.002703768575067792,0.006648073996300022,0.010864621580114251,4.280026912689209,2019-08-06 15:05:38:201,-144.98684491414843,-178.8076856669938,0,-7.047130584716797,46.03125762939453,-18.742368698120117
-0.024515053257346153,-0.20958849787712097,9.649415969848633,-0.0019046251923001184,0.005582549485943123,0.014593957366363397,4.2900309562683105,2019-08-06 15:05:38:211,-138.49315515414835,-178.80557632512384,0,-7.047130584716797,46.03125762939453,-18.742368698120117
-0.02212030254304409,-0.1952199935913086,9.651811599731445,-0.003502911957835466,0.011709315940643939,0.0071352852737164565,4.300020694732666,2019-08-06 15:05:38:221,-132.13248630739398,-178.8043255166649,0,-7.047130584716797,46.03125762939453,-18.742368698120117
-0.04127829894423485,-0.1688777506351471,9.697311401367188,-0.0024373874474785677,0.009578266919930143,0.012729288953090175,4.310110569000244,2019-08-06 15:05:38:231,-125.90014086142561,-178.80690412312907,0,-7.047130584716797,46.03125762939453,-18.742368698120117
-0.08677854388952255,-0.17127250134944916,9.745206832885742,-0.002171006319889343,0.006115311741121573,0.010864621580114251,4.320041656494141,2019-08-06 15:05:38:241,-119.79575193262738,-178.8094179730566,0,-7.047130584716797,46.03125762939453,-18.742368698120117
-0.08198904246091843,-0.15211449563503265,9.711679458618164,0.002890235364380249,0.012242078195822388,0.006602523018538008,4.330027103424072,2019-08-06 15:05:38:251,-113.81637474938935,-178.81690305241693,0,-7.047130584716797,46.03125762939453,-18.742368698120117
-0.06522579491138458,-0.17845675349235535,9.749996185302734,-0.003236530830246241,0.01410674660909561,0.00899995316684103,4.339966297149658,2019-08-06 15:05:38:261,-107.9555858728109,-178.8177870802845,0,-7.047130584716797,46.03125762939453,-18.742368698120117
-0.09396279603242874,-0.15211449563503265,9.668574333190918,-0.004302055340603139,0.011176553685465489,0.004737855125413436,4.349978923797607,2019-08-06 15:05:38:271,-102.21389378173434,-178.82098562803063,0,-4.798046588897705,44.981685638427734,-19.791940689086914
-0.060436297208070755,-0.15211449563503265,9.649415969848633,0.0020910919816125757,0.01064379143028704,0.006868904146127233,4.360006809234619,2019-08-06 15:05:38:281,-96.58278605976304,-178.8276804868116,0,-4.798046588897705,44.981685638427734,-19.791940689086914
-0.04127829894423485,-0.17606200277805328,9.706890106201172,0.0012919485988449018,0.014639508864274061,0.003672330354982212,4.369995832443237,2019-08-06 15:05:38:291,-91.06421432689686,-178.83106935530958,0,-4.798046588897705,44.981685638427734,-19.791940689086914
-0.026909802109003067,-0.19043049216270447,9.721259117126465,0.0020910919816125757,0.013840364961357736,0.0026068058446253144,4.379998207092285,2019-08-06 15:05:38:301,-85.6538752780694,-178.83317783433864,0,-4.798046588897705,44.981685638427734,-19.791940689086914
-0.03409405052661896,-0.1497197449207306,9.627863883972168,0.004488522389989922,0.012508459843560263,0.003672330354982212,4.390009164810181,2019-08-06 15:05:38:311,-80.35188683436111,-178.84121901825748,0,-4.798046588897705,44.981685638427734,-19.791940689086914
0.04253793880343437,-0.16648299992084503,9.685338020324707,0.0034229976195586987,0.014373127216536186,0.0071352852737164565,4.400008201599121,2019-08-06 15:05:38:321,-82.3478859905595,-178.84662105376478,0,-4.798046588897705,44.981685638427734,-19.791940689086914
0.044932689517736435,-0.18324624001979828,9.613494873046875,0.0026238542367910244,0.015438651726893083,0.004737855125413436,4.409999132156372,2019-08-06 15:05:38:331,-84.30423331374664,-178.84932052787283,0,-4.798046588897705,44.981685638427734,-19.791940689086914
0.07606443762779236,-0.1616934984922409,9.654206275939941,0.0031566164919694735,0.016237795629809405,0.008733572559400455,4.419986248016357,2019-08-06 15:05:38:341,-86.21822604344635,-178.8549136936197,0,-4.798046588897705,44.981685638427734,-19.791940689086914
0.08564343303442001,-0.17606200277805328,9.627863883972168,0.0020910919816125757,0.016504176237249982,0.004737855125413436,4.429995775222778,2019-08-06 15:05:38:351,-88.09294434713287,-178.85803798723043,0,-4.798046588897705,44.981685638427734,-19.791940689086914
0.09761717915534973,-0.21198324859142303,9.647021293640137,0.007685095921060616,0.017036938492428433,0.007934428656484131,4.439997911453247,2019-08-06 15:05:38:361,-89.92905871967797,-178.8600170698589,0,-4.798046588897705,44.981685638427734,-19.791940689086914
0.08564343303442001,-0.20000949501991272,9.587152481079102,0.0023574731092018,0.01756970178790418,0.004737855125413436,4.450011491775513,2019-08-06 15:05:38:371,-91.73011994740183,-178.8602393430921,0,-4.798046588897705,44.981685638427734,-19.791940689086914
0.0928276851773262,-0.2215622365474701,9.548836708068848,0.005021284645168371,0.013041222098738713,0.0071352852737164565,4.460009813308716,2019-08-06 15:05:38:381,-93.49169944004349,-178.85926954873187,0,-4.798046588897705,44.981685638427734,-19.791940689086914
0.1263541728258133,-0.20479899644851685,9.637442588806152,-0.0008391006169246387,0.021299036533856022,0.007934428656484131,4.4700047969818115,2019-08-06 15:05:38:391,-95.2187958713591,-178.85726580112595,0,-4.798046588897705,44.981685638427734,-19.791940689086914
0.13353842496871948,-0.19761474430561066,9.594337463378906,0.0002264239747054862,0.015172271119452508,0.005270617380591885,4.4800050258636475,2019-08-06 15:05:38:401,-96.90699100528839,-178.85664851721333,0,-5.397802352905273,44.981685638427734,-17.69279670715332
0.13353842496871948,-0.2143779993057251,9.63265323638916,0.0023574731092018,0.012774840451000838,0.00846719091166258,4.489987134933472,2019-08-06 15:05:38:411,-98.56012648379757,-178.85533836159556,0,-5.397802352905273,44.981685638427734,-17.69279670715332
0.1383279263973236,-0.2335359901189804,9.623074531555176,-0.004035674213013915,0.014905889471714633,0.006069760763359559,4.5001060962677,2019-08-06 15:05:38:421,-100.18092220380997,-178.84813460672277,0,-5.397802352905273,44.981685638427734,-17.69279670715332
