ACCELEROMETER X (m/s²),ACCELEROMETER Y (m/s²),ACCELEROMETER Z (m/s²),GYROSCOPE X (rad/s),GYROSCOPE Y (rad/s),GYROSCOPE Z (rad/s),Pitch (Deg),Roll (Deg),Heading (Deg),Time since start in ms ,YYYY-MO-DD HH-MI-SS_SSS
0.019610606133937836,0.0714808851480484,9.819833755493164,-0.0029235329403103213,-0.0035521926614952163,-0.005640887277978069,-3.59771156314977,3.5916587575681644,0,0.0,2019-08-07 14:30:57:031
0.014821105636656284,0.10261262953281403,9.728833198547363,-0.010648586160546484,-0.005949623069872562,-0.008038317426281092,-7.122845406640343,7.1098270316870416,0,0.003490924835205078,2019-08-07 14:30:57:034
0.017215855419635773,0.12656012177467346,9.795886039733887,-0.009849443297927462,-0.005949623069872562,-0.00963660471196509,-10.576959724308042,10.555168697326675,0,0.007726192474365234,2019-08-07 14:30:57:039
0.03876860439777374,0.10740213096141815,9.86054515838623,-0.008251156012243464,-0.005949623069872562,-0.015230607871190155,-13.96014863012848,13.932647443143583,0,0.010020732879638672,2019-08-07 14:30:57:041
-0.006731641478836536,0.1361391246318817,9.795886039733887,-0.007185631501886564,-0.0038185737890844406,-0.007239174043513418,-10.080982475299624,17.239482595579364,0,0.013521671295166016,2019-08-07 14:30:57:044
-0.006731641478836536,0.10979688167572021,9.755175590515137,-0.006919250374297341,-0.007814290962997135,-0.010169366967143538,-6.2784793760131095,20.483278366160008,0,0.017337322235107422,2019-08-07 14:30:57:048
0.012426355853676796,0.08824413269758224,9.795886039733887,-0.004521819705845669,-0.008613434345764809,-0.010968509829762562,-9.750168040636598,23.66396657337116,0,0.020000696182250977,2019-08-07 14:30:57:051
0.02200535498559475,0.09303363412618637,9.757570266723633,-0.0031899140678995457,-0.007281528707818685,-0.014964227263749581,-13.151043550683994,26.780435101392808,0,0.02375960350036621,2019-08-07 14:30:57:055
-0.028284389525651932,0.08345463126897812,9.764754295349121,-0.005054581961024118,-0.005150479166956239,-0.017095276284463376,-9.290276347658978,29.83607877048427,0,0.027444124221801758,2019-08-07 14:30:57:058
-0.06420563161373138,0.10740213096141815,9.815044403076172,-0.006386488119118891,-0.007281528707818685,-0.012833178243035783,-5.510919173624497,32.827737232878945,0,0.03000640869140625,2019-08-07 14:30:57:061
-0.01870539039373398,0.124165378510952,9.843781471252441,-0.005054581961024118,-0.0046177169117777896,-0.015230607871190155,-1.8019058841729918,35.757793545381396,0,0.03375673294067383,2019-08-07 14:30:57:065
-0.09054788202047348,0.10979688167572021,9.79349136352539,-0.005853725863940442,-0.0035521926614952163,-0.014431465008571131,1.8242703818874846,38.63099848004247,0,0.0374300479888916,2019-08-07 14:30:57:068
-0.04744238778948784,0.14811287820339203,9.848570823669434,-0.007185631501886564,-0.0064823853250510115,-0.014431465008571131,5.3832084971693135,41.44219229039978,0,0.04002237319946289,2019-08-07 14:30:57:071
-0.004336891695857048,0.1624813675880432,9.85096549987793,-0.009849443297927462,-0.0064823853250510115,-0.014964227263749581,8.876397956949011,44.19651302895771,0,0.043753623962402344,2019-08-07 14:30:57:075
-0.02588963881134987,0.06190188601613045,9.819833755493164,-0.007185631501886564,-0.0024866678910639927,-0.01602975177410648,12.29636262887184,46.906843963829175,0,0.04743337631225586,2019-08-07 14:30:57:078
0.04116335138678551,0.1505076289176941,9.7982816696167,-0.008517537139832687,-0.006748766452640236,-0.013898702753392682,8.456226169647998,49.55233923304887,0,0.05001091957092285,2019-08-07 14:30:57:081
-0.01870539039373398,0.02119114063680172,9.771939277648926,-0.006386488119118891,-0.0019539056358855436,-0.019492705912617748,11.885330766837262,52.16018882851916,0,0.0538630485534668,2019-08-07 14:30:57:085
-0.023494889959692955,0.0714808851480484,9.817439079284668,-0.010914967808284359,-0.00435133604426289,-0.0178944201873797,15.24575823627842,54.71084030460274,0,0.057450294494628906,2019-08-07 14:30:57:088
0.017215855419635773,0.1361391246318817,9.910834312438965,-0.004521819705845669,-0.005150479166956239,-0.020558230422974645,11.343573860949547,57.20153363745793,0,0.06000995635986328,2019-08-07 14:30:57:091
-0.02588963881134987,0.13374437391757965,9.795886039733887,-0.007984774884654239,-0.007281528707818685,-0.021090993718450395,14.715204553563073,59.643537166949315,0,0.06375384330749512,2019-08-07 14:30:57:095
-0.06420563161373138,0.07627038657665253,9.85096549987793,-0.0031899140678995457,-0.009678958335973056,-0.017361656891903953,18.015426365481286,62.04245177396922,0,0.06742382049560547,2019-08-07 14:30:57:098
0.031584352254867554,0.08105988055467606,9.836597442626953,-0.007452012629475789,-0.0056832419422833385,-0.01842718140226085,14.059622135198287,64.39324148452542,0,0.07000875473022461,2019-08-07 14:30:57:101
-0.05462663620710373,0.10979688167572021,9.803071022033691,-0.007185631501886564,-0.003285811533905992,-0.021623754933331542,17.372733853660684,66.69405069958124,0,0.0737464427947998,2019-08-07 14:30:57:105
0.04355810210108757,0.12177062779664993,9.762359619140625,-0.007452012629475789,-0.007547909835407911,-0.022422898836247866,13.431950455961413,68.94741548760675,0,0.0774235725402832,2019-08-07 14:30:57:108
-0.02588963881134987,0.15290237963199615,9.800676345825195,-0.008783917747273263,-0.0027530490186532175,-0.02189013762136672,16.760684413131333,71.15186730333897,0,0.08001136779785156,2019-08-07 14:30:57:111
0.03397910296916962,0.04992813616991043,9.79349136352539,-0.012246872926081832,-0.008347053218175584,-0.018693564090296027,12.831199450605894,73.32555992189721,0,0.08375144004821777,2019-08-07 14:30:57:115
-0.021100139245390892,0.17924462258815765,9.74080753326416,-0.006386488119118891,-0.00435133604426289,-0.02482032846440224,16.172991477003276,75.43928300080384,0,0.08742785453796387,2019-08-07 14:30:57:118
-0.0019421420292928815,0.11937587708234787,9.891676902770996,-0.005853725863940442,-0.001687524508296319,-0.020025469208093498,19.44955233628827,77.51752095880633,0,0.09002065658569336,2019-08-07 14:30:57:121
0.06511084735393524,0.08584938198328018,9.815044403076172,-0.009583061650189587,-0.004084954916673665,-0.024553947856961668,15.469019531556846,79.55915733564595,0,0.09375524520874023,2019-08-07 14:30:57:125
-0.011521141044795513,0.12177062779664993,9.736018180847168,-0.004788200833434893,-0.0035521926614952163,-0.02375480395404534,18.7590157335218,81.55463023699667,0,0.0974283218383789,2019-08-07 14:30:57:128
0.0028473574202507734,0.07866512984037399,9.795886039733887,-0.01038220555310591,-0.008080672090586358,-0.024553947856961668,14.785343847401304,83.51584574917466,0,0.10001873970031738,2019-08-07 14:30:57:131
-0.0498371347784996,0.12895487248897552,9.7982816696167,-0.010914967808284359,-0.009412577728532483,-0.024553947856961668,18.085826675184066,85.43278861286188,0,0.10383725166320801,2019-08-07 14:30:57:135
0.012426355853676796,0.09063888341188431,9.728833198547363,-0.008517537139832687,-0.008080672090586358,-0.023222042739164193,14.127228574286969,87.3152014537705,0,0.10748434066772461,2019-08-07 14:30:57:138
0.04595285281538963,0.08345463126897812,9.848570823669434,-0.0039890577107415445,-0.0046177169117777896,-0.022955662131723616,10.250684898637402,89.15975252151226,0,0.11000728607177734,2019-08-07 14:30:57:141
0.019610606133937836,0.11219162493944168,9.824623107910156,-0.005320963088613342,-0.007015147580229461,-0.021623754933331542,6.449429011359932,90.96458769428493,0,0.11374044418334961,2019-08-07 14:30:57:145
0.00045260769547894597,0.10979688167572021,9.831808090209961,-0.006652869246708115,-0.0027530490186532175,-0.022689279443688443,2.7210599478582007,92.73386905308301,0,0.11740684509277344,2019-08-07 14:30:57:148
0.024400103837251663,0.13374437391757965,9.795886039733887,-0.005320963088613342,-0.0054168602945454634,-0.022422898836247866,-0.9295721413379301,94.46446558490744,0,0.12048029899597168,2019-08-07 14:30:57:151
0.0076368567533791065,0.14092862606048584,9.7982816696167,-0.005320963088613342,-0.0056832419422833385,-0.026951379565710636,-4.508733141983718,96.15996379606676,0,0.1247246265411377,2019-08-07 14:30:57:156
0.06511084735393524,0.12656012177467346,9.668964385986328,-0.008517537139832687,-0.006216004197461787,-0.02428756724952109,-8.009861393177522,97.82310980553318,0,0.1275341510772705,2019-08-07 14:30:57:158
-0.009126391261816025,0.09063888341188431,9.743202209472656,-0.006386488119118891,-0.0038185737890844406,-0.023222042739164193,-4.250208087543578,99.45687320682038,0,0.1300034523010254,2019-08-07 14:30:57:161
0.04355810210108757,0.08105988055467606,9.846176147460938,-0.005320963088613342,-0.007015147580229461,-0.022422898836247866,-7.758658934401126,101.05942134042552,0,0.13374972343444824,2019-08-07 14:30:57:165
0.024400103837251663,0.10021787881851196,9.843781471252441,-0.009583061650189587,-0.001687524508296319,-0.02082461311100982,-11.200297145152248,102.62854427836528,0,0.13742446899414062,2019-08-07 14:30:57:168
0.0483475998044014,0.1313496232032776,9.78151798248291,-0.004521819705845669,-0.00435133604426289,-0.02029184981553407,-14.569990695163199,104.1612480844023,0,0.1400299072265625,2019-08-07 14:30:57:171
0.03876860439777374,0.14092862606048584,9.74080753326416,-0.009583061650189587,-0.007015147580229461,-0.020025469208093498,-17.872561715557293,105.66345127833694,0,0.14375782012939453,2019-08-07 14:30:57:175
0.04355810210108757,0.12656012177467346,9.846176147460938,-0.006386488119118891,-0.008080672090586358,-0.020558230422974645,-21.10831928581135,107.13681462640618,0,0.1475527286529541,2019-08-07 14:30:57:178
0.13455858826637268,0.12177062779664993,9.862939834594727,-0.007984774884654239,-0.007547909835407911,-0.024021186642080517,-24.269463789624997,108.58104893556218,0,0.15004563331604004,2019-08-07 14:30:57:181
0.0675055980682373,0.14571812748908997,9.76954460144043,-0.005587344736351217,-0.008879815473354034,-0.019492705912617748,-27.374296664708627,109.99350756436955,0,0.15377593040466309,2019-08-07 14:30:57:185
0.00045260769547894597,0.09542837738990784,9.805465698242188,-0.007452012629475789,-0.006748766452640236,-0.021357374325890972,-30.425366676026506,111.38402165488486,0,0.15744709968566895,2019-08-07 14:30:57:188
0.017215855419635773,0.1505076289176941,9.726438522338867,-0.006386488119118891,-0.003285811533905992,-0.018693564090296027,-33.41439132181243,112.73946536787494,0,0.15983057022094727,2019-08-07 14:30:57:191
0.08666359633207321,0.1361391246318817,9.829413414001465,-0.007984774884654239,-0.008347053218175584,-0.016828894636725503,-36.334291823658106,114.07044044963013,0,0.16347622871398926,2019-08-07 14:30:57:194
0.03637385368347168,0.15290237963199615,9.817439079284668,-0.007984774884654239,-0.003285811533905992,-0.0178944201873797,-39.20272610217867,115.37272724038384,0,0.1669139862060547,2019-08-07 14:30:57:198
0.06511084735393524,0.13374437391757965,9.817439079284668,-0.0037226765831523197,-0.007814290962997135,-0.019759088600652924,-42.00995642849453,116.65019404213591,0,0.16945600509643555,2019-08-07 14:30:57:200
0.00045260769547894597,0.17445512115955353,9.79349136352539,-0.01038220555310591,-0.0019539056358855436,-0.01549698951892803,-44.76928721130156,117.89899614472515,0,0.17325806617736816,2019-08-07 14:30:57:204
0.031584352254867554,0.1169811263680458,9.874913215637207,-0.009316680002451712,-0.007281528707818685,-0.01762803957993913,-47.46872725981504,119.12937285569598,0,0.17694902420043945,2019-08-07 14:30:57:208
0.04355810210108757,0.11937587708234787,9.771939277648926,-0.005853725863940442,-0.007281528707818685,-0.017361656891903953,-50.11299040877446,120.3337958480862,0,0.18001723289489746,2019-08-07 14:30:57:211
0.08187409490346909,0.07866512984037399,9.788702011108398,-0.006652869246708115,-0.008879815473354034,-0.015763370126368605,-52.69940184258624,121.51921809826098,0,0.1835157871246338,2019-08-07 14:30:57:214
0.05792659893631935,0.10979688167572021,9.76954460144043,-0.007185631501886564,-0.0035521926614952163,-0.013898702753392682,-55.23793168037764,122.67734686465586,0,0.18696379661560059,2019-08-07 14:30:57:218
0.08187409490346909,0.13853387534618378,9.817439079284668,-0.005587344736351217,-0.0064823853250510115,-0.013632321105654805,-57.722488746132356,123.80860322047384,0,0.1900627613067627,2019-08-07 14:30:57:221
0.14413759112358093,0.1696656197309494,9.817439079284668,-0.006386488119118891,-0.008347053218175584,-0.012300415987857336,-60.149621172479854,124.91384963844212,0,0.1934657096862793,2019-08-07 14:30:57:224
0.0675055980682373,0.1576918661594391,9.81025505065918,-0.007452012629475789,-0.004084954916673665,-0.010968509829762562,-62.537938542455606,125.99862335789022,0,0.1969759464263916,2019-08-07 14:30:57:228
0.10821634531021118,0.15529713034629822,9.800676345825195,-0.009583061650189587,-0.0046177169117777896,-0.010968509829762562,-64.8737450953234,127.0621182556841,0,0.19999313354492188,2019-08-07 14:30:57:231
0.06990034878253937,0.04753338545560837,9.817439079284668,-0.005054581961024118,-0.006216004197461787,-0.013099558850476358,-67.16688996546613,128.11632093013242,0,0.2034926414489746,2019-08-07 14:30:57:234
0.060321349650621414,0.11219162493944168,9.815044403076172,-0.007452012629475789,-0.003285811533905992,-0.011234891477500435,-69.41587634578455,129.1423329692297,0,0.2069253921508789,2019-08-07 14:30:57:238
0.08905834704637527,0.1505076289176941,9.812649726867676,-0.008783917747273263,-0.007547909835407911,-0.010169366967143538,-71.61584371810204,130.14344206859954,0,0.21002864837646484,2019-08-07 14:30:57:241
0.05074235051870346,0.08824413269758224,9.78151798248291,-0.008517537139832687,-0.0046177169117777896,-0.012034034340119461,-73.7766916369512,131.13187860712964,0,0.21346402168273926,2019-08-07 14:30:57:244
0.060321349650621414,0.11219162493944168,9.7982816696167,-0.006120106991529666,-0.0035521926614952163,-0.010968509829762562,-75.89341721236111,132.09730274017127,0,0.2169036865234375,2019-08-07 14:30:57:248
0.08905834704637527,0.04992813616991043,9.815044403076172,-0.005587344736351217,-0.005150479166956239,-0.009370223064227214,-77.9642650827276,133.05048919174973,0,0.2199687957763672,2019-08-07 14:30:57:251
0.0746898502111435,0.08824413269758224,9.783912658691406,-0.010914967808284359,-0.005150479166956239,-0.012566796595297908,-79.99522314413001,133.9812825030507,0,0.22345757484436035,2019-08-07 14:30:57:254
0.13216383755207062,0.10500738024711609,9.827017784118652,-0.0031899140678995457,-0.006216004197461787,-0.010169366967143538,-81.97871178156961,134.89002650112667,0,0.22688531875610352,2019-08-07 14:30:57:258
0.09624259918928146,0.06669138371944427,9.795886039733887,-0.006919250374297341,-0.004084954916673665,-0.010169366967143538,-83.92717669490986,135.78561505260754,0,0.2299494743347168,2019-08-07 14:30:57:261
0.10342684388160706,0.11219162493944168,9.707281112670898,-0.007185631501886564,-0.005150479166956239,-0.00857107968145954,-85.83539834238182,136.65809093630338,0,0.23349738121032715,2019-08-07 14:30:57:264
0.09863734245300293,0.14571812748908997,9.807860374450684,-0.008251156012243464,-0.008080672090586358,-0.008038317426281092,-87.70560781620034,137.50949657332728,0,0.23693227767944336,2019-08-07 14:30:57:268
0.09863734245300293,0.08584938198328018,9.819833755493164,-0.008517537139832687,-0.004884098039367014,-0.006972792915924193,-89.53913769343751,138.3507675897019,0,0.24002432823181152,2019-08-07 14:30:57:271
0.03397910296916962,0.11458637565374374,9.805465698242188,-0.006652869246708115,-0.007015147580229461,-0.006440030660745744,-91.34302581864738,139.171649742998,0,0.24347233772277832,2019-08-07 14:30:57:274
0.11300584673881531,0.09542837738990784,9.779123306274414,-0.006386488119118891,-0.005150479166956239,-0.005374506150388846,-93.10193121245605,139.9782657264993,0,0.24690485000610352,2019-08-07 14:30:57:278
0.14413759112358093,0.12177062779664993,9.786307334899902,-0.005320963088613342,-0.007547909835407911,-0.0035098379971899483,-94.821714733324,140.7653600426852,0,0.24997568130493164,2019-08-07 14:30:57:281
0.18724308907985687,0.1169811263680458,9.886886596679688,-0.007452012629475789,0.00017714346610147965,-0.007505555171102641,-96.50361567407772,141.53795047956916,0,0.25345396995544434,2019-08-07 14:30:57:284
0.13455858826637268,0.08105988055467606,9.767149925231934,-0.010115823905368035,-0.006748766452640236,0.001285022689527582,-98.15645522325245,142.29963344108376,0,0.25689053535461426,2019-08-07 14:30:57:288
0.1393480896949768,0.11937587708234787,9.724043846130371,-0.006386488119118891,-0.005150479166956239,-0.0051081250227996205,-99.77602065040705,143.04067158649215,0,0.2599518299102783,2019-08-07 14:30:57:291
0.11779534071683884,0.16487611830234528,9.771939277648926,-0.0077183937570650145,-0.0022202867634747683,-0.0008460265262419585,-101.366249254802,143.76204920039385,0,0.26346731185913086,2019-08-07 14:30:57:294
0.10342684388160706,0.08345463126897812,9.774333953857422,-0.006652869246708115,-0.007281528707818685,-0.004308981379957623,-102.92517251747246,144.47851075139755,0,0.26744604110717773,2019-08-07 14:30:57:298
0.11779534071683884,0.12656012177467346,9.86054515838623,-0.0039890577107415445,-0.00435133604426289,-0.002977075742011499,-104.45239904923947,145.1747665217911,0,0.26982569694519043,2019-08-07 14:30:57:301
0.13695333898067474,0.124165378510952,9.803071022033691,-0.0029235329403103213,-0.004884098039367014,-0.002977075742011499,-105.94620042959534,145.8574418497988,0,0.27399253845214844,2019-08-07 14:30:57:305
0.13216383755207062,0.1768498718738556,9.800676345825195,-0.008517537139832687,-0.008613434345764809,-0.002177932229206663,-107.40993283249065,146.5214881915033,0,0.27790379524230957,2019-08-07 14:30:57:309
0.12497959285974503,0.1696656197309494,9.73122787475586,-0.0037226765831523197,-0.007547909835407911,-0.002977075742011499,-108.84604970858167,147.17155869751406,0,0.28018808364868164,2019-08-07 14:30:57:311
0.08905834704637527,0.10021787881851196,9.834202766418457,-0.006652869246708115,-0.0056832419422833385,-0.0016451699740282137,-110.25763441313288,147.8177579936819,0,0.283689022064209,2019-08-07 14:30:57:314
0.09145309776067734,0.06429663300514221,9.877307891845703,-0.005320963088613342,-0.003019430146242442,-4.688308251936486e-05,-111.64129297889204,148.45496411719802,0,0.28710484504699707,2019-08-07 14:30:57:318
0.12497959285974503,0.13853387534618378,9.759964942932129,-0.0077183937570650145,-0.0054168602945454634,0.0007522603693305514,-112.99298553330443,149.07075279275537,0,0.2897632122039795,2019-08-07 14:30:57:321
0.15850608050823212,0.07387563586235046,9.759964942932129,-0.0031899140678995457,-0.004084954916673665,-0.0027106946144222744,-114.31365182991307,149.68134001077857,0,0.2935364246368408,2019-08-07 14:30:57:324
0.09863734245300293,0.07866512984037399,9.803071022033691,-0.004788200833434893,-0.0035521926614952163,0.001018641496919776,-115.61516063105361,150.27944600959813,0,0.29698824882507324,2019-08-07 14:30:57:328
0.09145309776067734,0.10500738024711609,9.79349136352539,-0.007984774884654239,0.0007099057700438648,-0.00031326423855421875,-116.89225913254765,150.86271965497144,0,0.29955053329467773,2019-08-07 14:30:57:330
0.14413759112358093,0.02837538905441761,9.791096687316895,-0.009050299395011138,-0.0008883811255286454,0.001285022689527582,-118.13735760530953,151.44406163905367,0,0.30332350730895996,2019-08-07 14:30:57:334
0.09145309776067734,0.13853387534618378,9.824623107910156,-0.009316680002451712,-0.005150479166956239,-0.0011124077188497644,-119.36286493283916,152.0009750926426,0,0.3070545196533203,2019-08-07 14:30:57:338
0.04355810210108757,0.07387563586235046,9.817439079284668,-0.006120106991529666,-8.92376858697129e-05,0.001018641496919776,-120.57051061535873,152.55321364725907,0,0.3096177577972412,2019-08-07 14:30:57:340
0.02200535498559475,0.10261262953281403,9.795886039733887,-0.005054581961024118,-0.0038185737890844406,-0.0032434568696007235,-121.75569584539018,153.0912454383774,0,0.313490629196167,2019-08-07 14:30:57:344
0.1273743361234665,0.06669138371944427,9.771939277648926,-0.009583061650189587,-0.0038185737890844406,0.00021949806538816636,-122.90491156194855,153.623443423801,0,0.31691646575927734,2019-08-07 14:30:57:348
0.06990034878253937,0.1624813675880432,9.7982816696167,-0.007185631501886564,-0.003285811533905992,0.001018641496919776,-124.03801791014583,154.13333130761936,0,0.3202805519104004,2019-08-07 14:30:57:351
0.07229509949684143,0.10500738024711609,9.867729187011719,-0.005054581961024118,-0.0038185737890844406,0.001285022689527582,-125.14817115669614,154.6393856720508,0,0.3235037326812744,2019-08-07 14:30:57:354
0.10103209316730499,0.08345463126897812,9.855754852294922,-0.010115823905368035,-0.0014211433807070943,0.00048587920923203625,-126.23318754408756,155.1388434863388,0,0.3269340991973877,2019-08-07 14:30:57:358
0.09624259918928146,0.13374437391757965,9.807860374450684,-0.0034562954555630953,-0.00435133604426289,-0.0008460265262419585,-127.29646718521913,155.62108660259378,0,0.330258846282959,2019-08-07 14:30:57:361
0.10821634531021118,0.07627038657665253,9.791096687316895,-0.009583061650189587,-0.0014211433807070943,0.0023505473299216427,-128.3376153060178,156.1014769633695,0,0.33348941802978516,2019-08-07 14:30:57:364
0.07229509949684143,0.09063888341188431,9.803071022033691,0.0005394218158774704,-0.00435133604426289,-0.002177932229206663,-129.36156388208786,156.56874744814067,0,0.3369619846343994,2019-08-07 14:30:57:368
0.07708460092544556,0.1361391246318817,9.872518539428711,-0.006120106991529666,-0.0038185737890844406,-4.688308251936486e-05,-130.36467516909786,157.0227100920827,0,0.3402748107910156,2019-08-07 14:30:57:371
0.04355810210108757,0.07866512984037399,9.853360176086426,-0.005054581961024118,-0.0027530490186532175,-0.0027106946144222744,-131.35182031795676,157.47401768621435,0,0.34348154067993164,2019-08-07 14:30:57:374
0.11779534071683884,0.12895487248897552,9.74080753326416,-0.007984774884654239,-0.0056832419422833385,-0.0051081250227996205,-132.30983010068658,157.91090906602068,0,0.34691905975341797,2019-08-07 14:30:57:378
0.08666359633207321,0.17206037044525146,9.783912658691406,-0.005853725863940442,-0.007814290962997135,-0.0027106946144222744,-133.25202136203274,158.3336361389164,0,0.3502514362335205,2019-08-07 14:30:57:381
0.08426884561777115,0.09542837738990784,9.726438522338867,-0.0039890577107415445,-0.0024866678910639927,-0.0008460265262419585,-134.176600387223,158.75644714579923,0,0.35349369049072266,2019-08-07 14:30:57:384
0.09863734245300293,0.12895487248897552,9.846176147460938,-0.0034562954555630953,-0.005150479166956239,-0.004575362767621172,-135.08059656398876,159.1669771653743,0,0.35692596435546875,2019-08-07 14:30:57:388
0.05553185194730759,0.10740213096141815,9.786307334899902,-0.0077183937570650145,-0.0038185737890844406,-0.002977075742011499,-135.9717670502565,159.5725076612757,0,0.3602616786956787,2019-08-07 14:30:57:391
0.05553185194730759,0.1313496232032776,9.700096130371094,-0.006652869246708115,-0.0035521926614952163,-0.0011124077188497644,-136.84512962685844,159.96674380265628,0,0.3634800910949707,2019-08-07 14:30:57:394
0.04595285281538963,0.1576918661594391,9.788702011108398,-0.008783917747273263,-0.004084954916673665,-0.004308981379957623,-137.70206088490173,160.35064198154043,0,0.3669099807739258,2019-08-07 14:30:57:398
0.02918960340321064,0.06908613443374634,9.76954460144043,-0.008251156012243464,-0.004084954916673665,-0.006440030660745744,-138.54382673381727,160.73707945583627,0,0.37026333808898926,2019-08-07 14:30:57:401
0.06511084735393524,0.09303363412618637,9.855754852294922,-0.0029235329403103213,-0.0056832419422833385,-0.005640887277978069,-139.36434295221798,161.11205473899156,0,0.37351298332214355,2019-08-07 14:30:57:404
0.07229509949684143,0.10979688167572021,9.927597999572754,-0.009583061650189587,-0.005150479166956239,-0.006706411788334968,-140.16771832249958,161.47898836805282,0,0.37694692611694336,2019-08-07 14:30:57:408
0.031584352254867554,0.1361391246318817,9.827017784118652,-0.005320963088613342,-0.0024866678910639927,-0.0035098379971899483,-140.96021727033082,161.83452681175024,0,0.380267858505249,2019-08-07 14:30:57:411
0.024400103837251663,0.10500738024711609,9.733622550964355,-0.006120106991529666,-0.004084954916673665,-0.008038317426281092,-141.73739630879228,162.18658924493278,0,0.3835117816925049,2019-08-07 14:30:57:414
0.10342684388160706,0.08824413269758224,9.73122787475586,-0.00425543883833077,-0.0038185737890844406,-0.00617364953315652,-142.48973429557398,162.53328591112606,0,0.38694143295288086,2019-08-07 14:30:57:418
0.04116335138678551,0.11458637565374374,9.855754852294922,-0.006120106991529666,-0.003019430146242442,-0.0051081250227996205,-143.23460458207148,162.8704108543482,0,0.3901798725128174,2019-08-07 14:30:57:421
0.08666359633207321,0.12895487248897552,9.812649726867676,-0.005320963088613342,0.0009762868976330894,-0.007239174043513418,-143.95997321810432,163.1989306578985,0,0.3934814929962158,2019-08-07 14:30:57:424
0.060321349650621414,0.08824413269758224,9.743202209472656,-0.005853725863940442,-0.0054168602945454634,-0.0077719362986918665,-144.6726364102706,163.52570081980716,0,0.3969104290008545,2019-08-07 14:30:57:428
0.09145309776067734,0.08584938198328018,9.841386795043945,-0.007452012629475789,-0.0035521926614952163,-0.008038317426281092,-145.36787133994616,163.8465838579741,0,0.4002394676208496,2019-08-07 14:30:57:431
0.060321349650621414,0.11937587708234787,9.82222843170166,-0.006919250374297341,-0.00435133604426289,-0.00963660471196509,-146.05268260291703,164.15698835105184,0,0.4034891128540039,2019-08-07 14:30:57:434
0.02200535498559475,0.0451386384665966,9.812649726867676,-0.006919250374297341,-0.006748766452640236,-0.009902985319405663,-146.72775610928994,164.46991334773267,0,0.40692782402038574,2019-08-07 14:30:57:438
0.10582159459590912,0.16008661687374115,9.843781471252441,-0.004521819705845669,-0.0035521926614952163,-0.006972792915924193,-147.38022195140485,164.76272220989975,0,0.41024088859558105,2019-08-07 14:30:57:441
0.10821634531021118,0.07866512984037399,9.853360176086426,-0.006919250374297341,-0.0046177169117777896,-0.007505555171102641,-148.01919033109448,165.05958179710407,0,0.41349005699157715,2019-08-07 14:30:57:444
0.053137101233005524,0.06429663300514221,9.728833198547363,-0.004521819705845669,-0.003285811533905992,-0.011234891477500435,-148.65191482279016,165.35168814926223,0,0.41692090034484863,2019-08-07 14:30:57:448
0.08187409490346909,0.10740213096141815,9.733622550964355,-0.0077183937570650145,-0.001687524508296319,-0.010169366967143538,-149.26892134639996,165.63345863667698,0,0.42026185989379883,2019-08-07 14:30:57:451
0.04595285281538963,0.08824413269758224,9.827017784118652,-0.006386488119118891,-0.0056832419422833385,-0.012566796595297908,-149.87715003885143,165.911662125826,0,0.42350339889526367,2019-08-07 14:30:57:454
0.031584352254867554,0.11219162493944168,9.786307334899902,-0.0034562954555630953,-0.0006219999979394207,-0.010702129222321988,-150.4757890387466,166.18095755775693,0,0.42693018913269043,2019-08-07 14:30:57:458
0.04595285281538963,0.11937587708234787,9.733622550964355,-0.009849443297927462,-0.0038185737890844406,-0.012833178243035783,-151.0601420282271,166.4451459035017,0,0.4302945137023926,2019-08-07 14:30:57:461
0.02918960340321064,0.13853387534618378,9.800676345825195,-0.0037226765831523197,-0.001687524508296319,-0.011234891477500435,-151.63522370198424,166.70071389825327,0,0.4334878921508789,2019-08-07 14:30:57:464
0.0938478484749794,0.08584938198328018,9.79349136352539,-0.005320963088613342,-0.0035521926614952163,-0.012833178243035783,-152.1908535667575,166.95768100145062,0,0.436922550201416,2019-08-07 14:30:57:468
0.11779534071683884,0.07627038657665253,9.848570823669434,-0.0034562954555630953,-0.0022202867634747683,-0.011767653732678886,-152.73291619293119,167.21029934766202,0,0.44025182723999023,2019-08-07 14:30:57:471
0.04116335138678551,0.1313496232032776,9.86054515838623,-0.0037226765831523197,-0.008613434345764809,-0.013632321105654805,-153.27190542749696,167.45150785576098,0,0.443495512008667,2019-08-07 14:30:57:474
0.03876860439777374,0.10979688167572021,9.831808090209961,-0.007185631501886564,-0.0008883811255286454,-0.009902985319405663,-153.80177749555665,167.69106669958856,0,0.4469294548034668,2019-08-07 14:30:57:478
0.03397910296916962,0.12177062779664993,9.831808090209961,-0.006120106991529666,-0.0056832419422833385,-0.010435747574584113,-154.32072401026286,167.92419241888393,0,0.4502437114715576,2019-08-07 14:30:57:481
0.024400103837251663,0.05471763759851456,9.83899211883545,-0.006120106991529666,-0.004884098039367014,-0.011234891477500435,-154.83057863961258,168.16044994653964,0,0.45348572731018066,2019-08-07 14:30:57:484
0.06990034878253937,0.12177062779664993,9.819833755493164,-0.005320963088613342,-0.004884098039367014,-0.008837460809048764,-155.32486970142534,168.3840564569271,0,0.45691537857055664,2019-08-07 14:30:57:488
0.060321349650621414,0.0978231281042099,9.848570823669434,-0.006919250374297341,-0.0046177169117777896,-0.013898702753392682,-155.81049130854987,168.60628600209753,0,0.46024179458618164,2019-08-07 14:30:57:491
0.02200535498559475,0.10979688167572021,9.819833755493164,-0.005054581961024118,-0.00435133604426289,-0.013099558850476358,-156.29091658904326,168.82227399341042,0,0.4635038375854492,2019-08-07 14:30:57:494
0.05792659893631935,0.07387563586235046,9.738412857055664,-0.006120106991529666,0.00044352460994534954,-0.012833178243035783,-156.75836770116342,169.03831646684412,0,0.46693968772888184,2019-08-07 14:30:57:498
0.00045260769547894597,0.05711238458752632,9.85096549987793,-0.005587344736351217,-0.0035521926614952163,-0.009902985319405663,-157.2224866519471,169.25194637930372,0,0.47025394439697266,2019-08-07 14:30:57:501
0.03876860439777374,0.06908613443374634,9.736018180847168,-0.0077183937570650145,-0.004084954916673665,-0.01150127208494101,-157.67273096919072,169.46018005454223,0,0.4734930992126465,2019-08-07 14:30:57:504
0.04116335138678551,0.12177062779664993,9.824623107910156,-0.005054581961024118,-0.0024866678910639927,-0.011767653732678886,-158.11398731364554,169.65776592824875,0,0.476987361907959,2019-08-07 14:30:57:508
0.0076368567533791065,0.13853387534618378,9.745596885681152,-0.005853725863940442,-0.0038185737890844406,-0.013632321105654805,-158.55026047379664,169.84916428623282,0,0.47954845428466797,2019-08-07 14:30:57:510
0.11779534071683884,0.11219162493944168,9.70249080657959,-0.0034562954555630953,-0.003019430146242442,-0.010702129222321988,-158.96470482990068,170.03966246309264,0,0.48331665992736816,2019-08-07 14:30:57:514
0.060321349650621414,0.15290237963199615,9.834202766418457,-0.006386488119118891,-0.0054168602945454634,-0.014165083360833256,-159.37725208894327,170.22238605984495,0,0.4870314598083496,2019-08-07 14:30:57:518
0.0483475998044014,0.06429663300514221,9.75278091430664,-0.005320963088613342,-0.0003556188378409054,-0.008038317426281092,-159.78397515694945,170.41115100770259,0,0.48959922790527344,2019-08-07 14:30:57:520
0.019610606133937836,0.19361311197280884,9.812649726867676,-0.004788200833434893,-0.003285811533905992,-0.012566796595297908,-160.18528700214793,170.5813679741889,0,0.49349379539489746,2019-08-07 14:30:57:524
0.019610606133937836,0.11219162493944168,9.78151798248291,-0.006120106991529666,-0.0027530490186532175,-0.010702129222321988,-160.57875350992234,170.75777680466146,0,0.49692463874816895,2019-08-07 14:30:57:528
0.02200535498559475,0.1169811263680458,9.700096130371094,-0.004521819705845669,-0.0003556188378409054,-0.010702129222321988,-160.96451267937013,170.92964386439633,0,0.5002386569976807,2019-08-07 14:30:57:531
0.03876860439777374,0.09542837738990784,9.76954460144043,-0.006120106991529666,-0.005949623069872562,-0.011767653732678886,-161.33958367363405,171.10098080162462,0,0.5035057067871094,2019-08-07 14:30:57:534
0.06271609663963318,0.09542837738990784,9.803071022033691,-0.004788200833434893,-0.00435133604426289,-0.01150127208494101,-161.7046205331747,171.26873141936593,0,0.5069456100463867,2019-08-07 14:30:57:538
0.05074235051870346,0.0978231281042099,9.783912658691406,-0.007452012629475789,-0.0035521926614952163,-0.012833178243035783,-162.06392287422648,171.4332891673971,0,0.5102658271789551,2019-08-07 14:30:57:541
0.02918960340321064,0.12895487248897552,9.757570266723633,-0.004788200833434893,-0.0054168602945454634,-0.014964227263749581,-162.41823202962573,171.59035014711455,0,0.5135023593902588,2019-08-07 14:30:57:544
-0.004336891695857048,0.09303363412618637,9.90125560760498,-0.009583061650189587,-0.0035521926614952163,-0.010702129222321988,-155.56968359049682,171.74962621488834,0,0.5169403553009033,2019-08-07 14:30:57:548
-0.006731641478836536,0.08824413269758224,9.719254493713379,-0.005853725863940442,-0.0027530490186532175,-0.01150127208494101,-148.85857045016903,171.90532092611573,0,0.5202598571777344,2019-08-07 14:30:57:551
-0.004336891695857048,0.18163937330245972,9.747991561889648,-0.004788200833434893,-0.0056832419422833385,-0.011767653732678886,-142.28087421385177,172.04673624207737,0,0.5235021114349365,2019-08-07 14:30:57:554
0.07229509949684143,0.14811287820339203,9.882097244262695,-0.009050299395011138,-0.0027530490186532175,-0.01150127208494101,-143.02627929775585,172.19058161206624,0,0.5273468494415283,2019-08-07 14:30:57:558
0.0076368567533791065,0.11458637565374374,9.85096549987793,-0.004521819705845669,-0.0056832419422833385,-0.011234891477500435,-143.76401513076678,172.33411776881206,0,0.5300111770629883,2019-08-07 14:30:57:561
0.019610606133937836,0.10979688167572021,9.82222843170166,-0.006120106991529666,-0.006216004197461787,-0.010169366967143538,-144.4851406447114,172.47591258592206,0,0.5337538719177246,2019-08-07 14:30:57:565
0.06511084735393524,0.11458637565374374,9.7982816696167,-0.006919250374297341,-0.0035521926614952163,-0.010968509829762562,-145.18709532816823,172.61441177417473,0,0.5374031066894531,2019-08-07 14:30:57:568
-0.02588963881134987,0.16727086901664734,9.815044403076172,-0.006120106991529666,-0.005949623069872562,-0.012566796595297908,-138.68550876025367,172.74348854479052,0,0.53999924659729,2019-08-07 14:30:57:571
0.005242106970399618,0.12895487248897552,9.70249080657959,-0.005054581961024118,-0.0038185737890844406,-0.008038317426281092,-139.51037805782767,172.87445022519339,0,0.5437369346618652,2019-08-07 14:30:57:575
0.019610606133937836,0.16008661687374115,9.764754295349121,-0.005054581961024118,-0.0024866678910639927,-0.012300415987857336,-140.31736182042474,172.99920762196308,0,0.547370433807373,2019-08-07 14:30:57:578
0.00045260769547894597,0.13853387534618378,9.69051742553711,-0.0039890577107415445,-0.006216004197461787,-0.010968509829762562,-141.11004195613145,173.1234326116888,0,0.5500037670135498,2019-08-07 14:30:57:581
0.07947934418916702,0.08105988055467606,9.719254493713379,-0.008517537139832687,-0.00435133604426289,-0.010702129222321988,-141.87755859002291,173.25319227870676,0,0.5537364482879639,2019-08-07 14:30:57:585
0.005242106970399618,0.14092862606048584,9.81025505065918,-0.006120106991529666,-0.003019430146242442,-0.011767653732678886,-142.63877672856404,173.37292136337692,0,0.5573837757110596,2019-08-07 14:30:57:588
0.026794854551553726,0.1624813675880432,9.767149925231934,-0.009050299395011138,-0.003285811533905992,-0.012833178243035783,-143.38237358457613,173.48773480120684,0,0.560006856918335,2019-08-07 14:30:57:591
0.03397910296916962,0.18403412401676178,9.862939834594727,-0.0039890577107415445,-0.003019430146242442,-0.009902985319405663,-144.1101439241183,173.5974388634824,0,0.5637485980987549,2019-08-07 14:30:57:595
0.017215855419635773,0.124165378510952,9.764754295349121,-0.004521819705845669,-0.0035521926614952163,-0.007239174043513418,-144.8251917765336,173.7118477200946,0,0.5674033164978027,2019-08-07 14:30:57:598
0.026794854551553726,0.1768498718738556,9.827017784118652,-0.005054581961024118,-0.0054168602945454634,-0.010435747574584113,-145.52477278939872,173.81772852951525,0,0.5700027942657471,2019-08-07 14:30:57:601
-0.01870539039373398,0.08345463126897812,9.759964942932129,-0.006386488119118891,-0.004884098039367014,-0.01150127208494101,-139.01545019821097,173.9329139193095,0,0.5737342834472656,2019-08-07 14:30:57:605
0.031584352254867554,0.08824413269758224,9.836597442626953,-0.006386488119118891,-0.0054168602945454634,-0.009103842456786639,-139.83035431303773,174.04528161623156,0,0.5773754119873047,2019-08-07 14:30:57:608
-0.009126391261816025,0.1576918661594391,9.73122787475586,-0.006919250374297341,-0.007281528707818685,-0.00857107968145954,-133.43374730934474,174.1468295068168,0,0.5800037384033203,2019-08-07 14:30:57:611
-0.023494889959692955,0.1505076289176941,9.817439079284668,-0.005054581961024118,-0.007015147580229461,-0.009103842456786639,-127.16634068104332,174.24738876705246,0,0.5837459564208984,2019-08-07 14:30:57:615
0.05792659893631935,0.059507135301828384,9.755175590515137,-0.005587344736351217,-0.0035521926614952163,-0.011767653732678886,-128.21547926884676,174.35659946166095,0,0.5874068737030029,2019-08-07 14:30:57:618
0.014821105636656284,0.07387563586235046,9.815044403076172,-0.0039890577107415445,-0.0003556188378409054,-0.00857107968145954,-129.24938749584993,174.46142376200277,0,0.5900015830993652,2019-08-07 14:30:57:621
0.05792659893631935,0.10740213096141815,9.759964942932129,-0.007452012629475789,-0.006216004197461787,-0.008837460809048764,-130.25629145517286,174.56115288367053,0,0.5937469005584717,2019-08-07 14:30:57:625
-0.021100139245390892,0.124165378510952,9.791096687316895,-0.005320963088613342,-0.001687524508296319,-0.00857107968145954,-124.05328885348675,174.65649050753186,0,0.5974011421203613,2019-08-07 14:30:57:628
-0.02588963881134987,0.04992813616991043,9.704886436462402,-0.007984774884654239,-0.0046177169117777896,-0.00857107968145954,-117.97460589085613,174.7586311015907,0,0.6000010967254639,2019-08-07 14:30:57:631
0.026794854551553726,0.09063888341188431,9.81025505065918,-0.010115823905368035,-0.007547909835407911,-0.0077719362986918665,-119.21038973985647,174.85500799743278,0,0.6037626266479492,2019-08-07 14:30:57:635
0.0028473574202507734,0.1624813675880432,9.843781471252441,-0.004788200833434893,-0.0024866678910639927,-0.011767653732678886,-120.42534222061747,174.9399737684676,0,0.6074028015136719,2019-08-07 14:30:57:638
0.010031606070697308,0.13374437391757965,9.745596885681152,-0.0077183937570650145,-0.005949623069872562,-0.010169366967143538,-121.61478710374155,175.0265762208262,0,0.6100032329559326,2019-08-07 14:30:57:641
0.05553185194730759,0.12895487248897552,9.791096687316895,-0.007984774884654239,-0.00435133604426289,-0.010702129222321988,-122.77507930998951,175.1126282720791,0,0.6137394905090332,2019-08-07 14:30:57:645
0.0483475998044014,0.1313496232032776,9.733622550964355,-0.005853725863940442,-0.0046177169117777896,-0.007505555171102641,-123.91294190065739,175.1961098843787,0,0.6173803806304932,2019-08-07 14:30:57:648
0.06990034878253937,0.12895487248897552,9.815044403076172,-0.00425543883833077,-0.0022202867634747683,-0.008038317426281092,-125.02619451021455,175.2777611405333,0,0.6200094223022461,2019-08-07 14:30:57:651
0.02918960340321064,0.15529713034629822,9.812649726867676,-0.007452012629475789,-0.007547909835407911,-0.005374506150388846,-126.12067749689425,175.3556361802922,0,0.6237478256225586,2019-08-07 14:30:57:655
0.024400103837251663,0.1169811263680458,9.846176147460938,-0.005054581961024118,-0.00435133604426289,-0.007239174043513418,-127.19453430803784,175.4359433664179,0,0.6273901462554932,2019-08-07 14:30:57:658
0.026794854551553726,0.04034913703799248,9.829413414001465,-0.005853725863940442,-8.92376858697129e-05,-0.009103842456786639,-128.24750677683463,175.523380039613,0,0.6300048828125,2019-08-07 14:30:57:661
0.053137101233005524,0.06669138371944427,9.882097244262695,-0.007185631501886564,-0.006748766452640236,-0.01150127208494101,-129.27496524961384,175.60670139733705,0,0.6337778568267822,2019-08-07 14:30:57:665
0.03397910296916962,0.11219162493944168,9.750386238098145,-0.006652869246708115,-0.0054168602945454634,-0.006972792915924193,-130.28436472810668,175.68274323079348,0,0.6374201774597168,2019-08-07 14:30:57:668
0.03637385368347168,0.10261262953281403,9.757570266723633,-0.008251156012243464,-0.004084954916673665,-0.008304698553870315,-131.27381279795762,175.75823583855254,0,0.640005350112915,2019-08-07 14:30:57:671
0.0675055980682373,0.12656012177467346,9.834202766418457,-0.006919250374297341,-0.0046177169117777896,-0.005907268405567294,-132.2395023581832,175.82977565282425,0,0.6437399387359619,2019-08-07 14:30:57:675
0.02200535498559475,0.1361391246318817,9.79349136352539,-0.006919250374297341,-0.00435133604426289,-0.010968509829762562,-133.1912474238161,175.89866719030698,0,0.6473829746246338,2019-08-07 14:30:57:678
0.03876860439777374,0.13853387534618378,9.843781471252441,-0.00425543883833077,-0.005150479166956239,-0.00857107968145954,-134.12215195305856,175.96519402228512,0,0.6500022411346436,2019-08-07 14:30:57:681
0.07229509949684143,0.11219162493944168,9.750386238098145,-0.007452012629475789,-0.003285811533905992,-0.006972792915924193,-135.0305221461365,176.03427124070936,0,0.6537444591522217,2019-08-07 14:30:57:685
0.026794854551553726,0.07387563586235046,9.74080753326416,-0.005054581961024118,-0.004884098039367014,-0.009902985319405663,-135.92576040844787,176.10592921226632,0,0.6573877334594727,2019-08-07 14:30:57:688
0.09145309776067734,0.12656012177467346,9.841386795043945,-0.005853725863940442,-0.007547909835407911,-0.006440030660745744,-136.7954875782619,176.1699352679866,0,0.6600050926208496,2019-08-07 14:30:57:691
0.10821634531021118,0.11458637565374374,9.724043846130371,-0.005587344736351217,-0.0027530490186532175,-0.006972792915924193,-137.64624753115643,176.23420744273037,0,0.663745641708374,2019-08-07 14:30:57:695
0.014821105636656284,0.12895487248897552,9.843781471252441,-0.0039890577107415445,-0.007281528707818685,-0.009902985319405663,-138.49010767779777,176.2953285418258,0,0.667388916015625,2019-08-07 14:30:57:698
0.12258484214544296,0.13374437391757965,9.747991561889648,-0.006386488119118891,-0.009412577728532483,-0.007505555171102641,-139.30451061327074,176.35464072276784,0,0.6700100898742676,2019-08-07 14:30:57:701
0.05553185194730759,0.09063888341188431,9.747991561889648,-0.004788200833434893,-0.0008883811255286454,-0.004841743895210396,-140.11170604595952,176.41789808913825,0,0.6737475395202637,2019-08-07 14:30:57:705
0.02200535498559475,0.0978231281042099,9.76954460144043,-0.007452012629475789,-0.005150479166956239,-0.008038317426281092,-140.90583718816427,176.4795908319005,0,0.6773908138275146,2019-08-07 14:30:57:708
0.010031606070697308,0.11937587708234787,9.738412857055664,-0.005054581961024118,-0.0056832419422833385,-0.0051081250227996205,-141.68569984990316,176.53670004335905,0,0.6800236701965332,2019-08-07 14:30:57:711
0.09863734245300293,0.12895487248897552,9.877307891845703,-0.010115823905368035,-0.00435133604426289,-0.009370223064227214,-142.43963018952388,176.59312785719183,0,0.6837589740753174,2019-08-07 14:30:57:715
0.0076368567533791065,0.08345463126897812,9.786307334899902,-0.005054581961024118,-0.004884098039367014,-0.006440030660745744,-143.1889429131116,176.6525288856833,0,0.6874070167541504,2019-08-07 14:30:57:718
0.019610606133937836,0.10261262953281403,9.783912658691406,-0.005054581961024118,-0.006216004197461787,-0.006972792915924193,-143.92196150725107,176.70819699119374,0,0.6900019645690918,2019-08-07 14:30:57:721
0.07708460092544556,0.12895487248897552,9.82222843170166,-0.0039890577107415445,-0.003285811533905992,-0.005374506150388846,-144.63383952966103,176.7598267790133,0,0.6937408447265625,2019-08-07 14:30:57:725
0.04355810210108757,0.12895487248897552,9.726438522338867,-0.008251156012243464,-0.008347053218175584,-0.00857107968145954,-145.33432344560447,176.81112631206943,0,0.6973841190338135,2019-08-07 14:30:57:728
0.05074235051870346,0.10740213096141815,9.7982816696167,-0.0026571518127210965,-0.003019430146242442,-0.007505555171102641,-146.02125852509653,176.86273440018576,0,0.7000038623809814,2019-08-07 14:30:57:731
0.005242106970399618,0.10979688167572021,9.817439079284668,-0.006386488119118891,-0.0024866678910639927,-0.008837460809048764,-146.69969963767588,176.91400473598102,0,0.7037413120269775,2019-08-07 14:30:57:735
0.08666359633207321,0.08584938198328018,9.755175590515137,-0.006652869246708115,-0.00435133604426289,-0.006706411788334968,-147.35463491211144,176.9670024356339,0,0.7073874473571777,2019-08-07 14:30:57:738
0.0483475998044014,0.17206037044525146,9.827017784118652,-0.006386488119118891,-0.004084954916673665,-0.008304698553870315,-148.00130383856848,177.00853980293383,0,0.7100062370300293,2019-08-07 14:30:57:741
0.053137101233005524,0.12656012177467346,9.877307891845703,-0.004788200833434893,-0.008347053218175584,-0.006440030660745744,-148.6333571857902,177.05469421611917,0,0.7137527465820312,2019-08-07 14:30:57:745
0.0675055980682373,0.13853387534618378,9.86054515838623,-0.005587344736351217,-0.0046177169117777896,-0.012566796595297908,-149.2518983221174,177.0986477575443,0,0.7174046039581299,2019-08-07 14:30:57:748
0.031584352254867554,0.11219162493944168,9.714465141296387,-0.0039890577107415445,0.0015090491528115383,-0.007239174043513418,-149.86335460531643,177.144022634348,0,0.7200000286102295,2019-08-07 14:30:57:751
0.04116335138678551,0.1505076289176941,9.834202766418457,-0.006919250374297341,-0.005150479166956239,-0.006706411788334968,-150.4602077651577,177.18506117426705,0,0.7237458229064941,2019-08-07 14:30:57:755
0.05074235051870346,0.08584938198328018,9.764754295349121,-0.0077183937570650145,-0.004884098039367014,-0.008837460809048764,-151.04404299923675,177.2328752877167,0,0.7274138927459717,2019-08-07 14:30:57:758
0.026794854551553726,0.1169811263680458,9.7982816696167,-0.004521819705845669,-0.008347053218175584,-0.009370223064227214,-151.61881393160766,177.27519535910918,0,0.7300052642822266,2019-08-07 14:30:57:761
0.09624259918928146,0.10261262953281403,9.757570266723633,-0.0037226765831523197,-0.007547909835407911,-0.004841743895210396,-152.17355194274356,177.318422192119,0,0.7337415218353271,2019-08-07 14:30:57:765
0.07947934418916702,0.10979688167572021,9.870123863220215,-0.005054581961024118,-0.0019539056358855436,-0.010702129222321988,-152.72045347035817,177.36034201574694,0,0.7373886108398438,2019-08-07 14:30:57:768
0.05553185194730759,0.06908613443374634,9.73122787475586,-0.005054581961024118,-0.007281528707818685,-0.007239174043513418,-153.25843618101146,177.40574206798132,0,0.7400033473968506,2019-08-07 14:30:57:771
0.03397910296916962,0.10979688167572021,9.745596885681152,-0.009050299395011138,-0.0027530490186532175,-0.009370223064227214,-153.7886943276941,177.44661692898566,0,0.7437410354614258,2019-08-07 14:30:57:775
0.04116335138678551,0.09542837738990784,9.834202766418457,-0.006919250374297341,-0.003019430146242442,-0.010169366967143538,-154.30750600611142,177.4879814071895,0,0.7473859786987305,2019-08-07 14:30:57:778
0.04116335138678551,0.06429663300514221,9.795886039733887,-0.005320963088613342,-0.00435133604426289,-0.007505555171102641,-154.81590005745764,177.53148385927014,0,0.7500078678131104,2019-08-07 14:30:57:781
0.03397910296916962,0.15529713034629822,9.800676345825195,-0.007185631501886564,-8.92376858697129e-05,-0.009902985319405663,-155.3155904503547,177.56420493503705,0,0.7537426948547363,2019-08-07 14:30:57:785
0.08187409490346909,0.09542837738990784,9.846176147460938,-0.009849443297927462,-0.0038185737890844406,-0.004042600252368397,-155.79896751057703,177.60383390878798,0,0.7573931217193604,2019-08-07 14:30:57:788
0.04355810210108757,0.11219162493944168,9.853360176086426,-0.0013252461747749735,-0.004884098039367014,-0.014431465008571131,-156.27720499277467,177.63890494526524,0,0.7600095272064209,2019-08-07 14:30:57:791
0.10342684388160706,0.11458637565374374,9.79349136352539,-0.009316680002451712,-0.003285811533905992,-0.007239174043513418,-156.7388695084608,177.67467661996736,0,0.7637498378753662,2019-08-07 14:30:57:795
0.0675055980682373,0.11937587708234787,9.728833198547363,-0.0039890577107415445,-0.004884098039367014,-0.00857107968145954,-157.19514225465343,177.70793881643814,0,0.7673919200897217,2019-08-07 14:30:57:798
0.0938478484749794,0.06669138371944427,9.872518539428711,-0.007452012629475789,-0.004884098039367014,-0.008837460809048764,-157.63963054661502,177.7471318916671,0,0.7700033187866211,2019-08-07 14:30:57:801
0.08187409490346909,0.08105988055467606,9.743202209472656,-0.0026571518127210965,-0.0056832419422833385,-0.005907268405567294,-158.07600669833113,177.78321790855927,0,0.7737703323364258,2019-08-07 14:30:57:805
0.07947934418916702,0.1361391246318817,9.817439079284668,-0.004521819705845669,-0.0038185737890844406,-0.007239174043513418,-158.50443006215687,177.81258734624288,0,0.7774066925048828,2019-08-07 14:30:57:808
0.060321349650621414,0.1624813675880432,9.841386795043945,-0.0037226765831523197,-0.008347053218175584,-0.009103842456786639,-158.92610261608152,177.8379602109591,0,0.7799994945526123,2019-08-07 14:30:57:811
0.146532341837883,0.08584938198328018,9.762359619140625,-0.007452012629475789,-0.0014211433807070943,-0.012566796595297908,-159.33006750425037,177.8727719381711,0,0.7839374542236328,2019-08-07 14:30:57:815
0.08905834704637527,0.0714808851480484,9.76954460144043,-0.005320963088613342,-0.005150479166956239,-0.007239174043513418,-159.73200673433863,177.90797951266083,0,0.7874424457550049,2019-08-07 14:30:57:818
0.012426355853676796,0.09063888341188431,9.874913215637207,-0.005054581961024118,-0.003285811533905992,-0.007239174043513418,-160.1354516075424,177.9400298187445,0,0.790006160736084,2019-08-07 14:30:57:821
0.024400103837251663,0.13853387534618378,9.7982816696167,-0.005587344736351217,-0.0024866678910639927,-0.007505555171102641,-160.52936799298112,177.96619927274384,0,0.7937374114990234,2019-08-07 14:30:57:825
0.07947934418916702,0.10500738024711609,9.853360176086426,-0.007984774884654239,-0.001687524508296319,-0.010702129222321988,-160.90919171330663,177.9963004670328,0,0.7973880767822266,2019-08-07 14:30:57:828
0.053137101233005524,0.12656012177467346,9.831808090209961,-0.006652869246708115,-0.0056832419422833385,-0.00963660471196509,-161.28398115077408,178.02260022914615,0,0.8000001907348633,2019-08-07 14:30:57:831
0.07229509949684143,0.10021787881851196,9.819833755493164,-0.005320963088613342,-0.0022202867634747683,-0.009103842456786639,-161.64939579605613,178.05157892590543,0,0.8037660121917725,2019-08-07 14:30:57:835
0.07708460092544556,0.11458637565374374,9.843781471252441,-0.005587344736351217,-0.005150479166956239,-0.012566796595297908,-162.00638286885908,178.07834991826812,0,0.8074028491973877,2019-08-07 14:30:57:838
0.08187409490346909,0.12177062779664993,9.791096687316895,-0.0031899140678995457,-0.001687524508296319,-0.010435747574584113,-162.3564267083619,178.10299794757103,0,0.8100039958953857,2019-08-07 14:30:57:841
0.08666359633207321,0.16008661687374115,9.700096130371094,-0.004521819705845669,-0.0035521926614952163,-0.008304698553870315,-162.698314465514,178.12297762299409,0,0.813744306564331,2019-08-07 14:30:57:845
0.05074235051870346,0.1361391246318817,9.791096687316895,-0.005853725863940442,-0.008080672090586358,-0.006972792915924193,-163.036834893447,178.1457265303407,0,0.8172147274017334,2019-08-07 14:30:57:848
0.02200535498559475,0.11219162493944168,9.807860374450684,-0.0037226765831523197,-0.0027530490186532175,-0.013099558850476358,-163.3729687372281,178.1704596169124,0,0.8208272457122803,2019-08-07 14:30:57:852
0.10103209316730499,0.1361391246318817,9.83899211883545,-0.0029235329403103213,-0.004084954916673665,-0.007239174043513418,-163.6928411229482,178.19184113569415,0,0.824758768081665,2019-08-07 14:30:57:856
0.0746898502111435,0.1361391246318817,9.843781471252441,-0.007185631501886564,-0.0035521926614952163,-0.010702129222321988,-164.0097493177645,178.2132507095951,0,0.8274686336517334,2019-08-07 14:30:57:858
0.09145309776067734,0.12656012177467346,9.827017784118652,-0.005320963088613342,-0.005150479166956239,-0.008304698553870315,-164.31816216054344,178.2349808614452,0,0.8299868106842041,2019-08-07 14:30:57:861
0.053137101233005524,0.11937587708234787,9.800676345825195,-0.0037226765831523197,-0.0035521926614952163,-0.009103842456786639,-164.62483601088016,178.25711032194224,0,0.833747386932373,2019-08-07 14:30:57:865
0.10342684388160706,0.14571812748908997,9.884491920471191,-0.0039890577107415445,-0.0035521926614952163,-0.010968509829762562,-164.91962186107222,178.2758931418615,0,0.8373949527740479,2019-08-07 14:30:57:868
0.12497959285974503,0.12177062779664993,9.795886039733887,-0.004788200833434893,-0.0014211433807070943,-0.007505555171102641,-165.20640223234784,178.29683205577314,0,0.840001106262207,2019-08-07 14:30:57:871
0.03876860439777374,0.07627038657665253,9.7982816696167,-0.002390770685131872,-0.0056832419422833385,-0.012300415987857336,-165.49654387545604,178.32247897904566,0,0.84375,2019-08-07 14:30:57:875
0.06271609663963318,0.10500738024711609,9.81025505065918,-0.004788200833434893,-0.005150479166956239,-0.009902985319405663,-165.77823345427487,178.34474394865862,0,0.8473942279815674,2019-08-07 14:30:57:878
0.08666359633207321,0.14571812748908997,9.843781471252441,-0.006386488119118891,-0.005150479166956239,-0.00963660471196509,-166.0518282796133,178.36182001904842,0,0.8499953746795654,2019-08-07 14:30:57:881
0.031584352254867554,0.06908613443374634,9.815044403076172,-0.007185631501886564,-0.001687524508296319,-0.00963660471196509,-166.32674931674066,178.38802910901316,0,0.853740930557251,2019-08-07 14:30:57:885
0.0938478484749794,0.10500738024711609,9.83899211883545,-0.005054581961024118,-0.006216004197461787,-0.009902985319405663,-166.58801398429216,178.40907225410203,0,0.8573811054229736,2019-08-07 14:30:57:888
0.14892709255218506,0.09542837738990784,9.745596885681152,-0.006652869246708115,-0.004884098039367014,-0.013099558850476358,-166.83801259525825,178.4306664144253,0,0.8600473403930664,2019-08-07 14:30:57:891
0.03876860439777374,0.19840261340141296,9.750386238098145,-0.007452012629475789,-0.006748766452640236,-0.008038317426281092,-167.0952793518093,178.4403033648794,0,0.863785982131958,2019-08-07 14:30:57:895
0.06511084735393524,0.11937587708234787,9.745596885681152,-0.007185631501886564,-0.0014211433807070943,-0.00963660471196509,-167.34542652980377,178.45893495640357,0,0.8674380779266357,2019-08-07 14:30:57:898
0.03637385368347168,0.1313496232032776,9.791096687316895,-0.004788200833434893,-0.0046177169117777896,-0.00963660471196509,-167.59355492536503,178.47511657188036,0,0.8701610565185547,2019-08-07 14:30:57:901
0.024400103837251663,0.1313496232032776,9.843781471252441,-0.006120106991529666,-0.003019430146242442,-0.009103842456786639,-167.83823009678878,178.4915678627893,0,0.8737785816192627,2019-08-07 14:30:57:905
0.031584352254867554,0.10261262953281403,9.79349136352539,-0.0015916273023641983,-0.0035521926614952163,-0.012566796595297908,-168.07704245917088,178.51005639846798,0,0.8774256706237793,2019-08-07 14:30:57:908
0.04595285281538963,0.1169811263680458,9.75278091430664,-0.007185631501886564,-0.001687524508296319,-0.00857107968145954,-168.30985855614725,178.5271492204885,0,0.8799986839294434,2019-08-07 14:30:57:911
0.04595285281538963,0.07627038657665253,9.7982816696167,-0.00425543883833077,-0.0035521926614952163,-0.00857107968145954,-168.53753942391626,178.54858236984487,0,0.8837478160858154,2019-08-07 14:30:57:915
0.03876860439777374,0.11219162493944168,9.803071022033691,-0.0039890577107415445,-0.0046177169117777896,-0.00857107968145954,-168.76131172206536,178.56531328592484,0,0.8873929977416992,2019-08-07 14:30:57:918
0.06271609663963318,0.1768498718738556,9.668964385986328,-0.005853725863940442,-0.004884098039367014,-0.00857107968145954,-168.9779391357107,178.57390537805244,0,0.8899953365325928,2019-08-07 14:30:57:921
0.053137101233005524,0.10261262953281403,9.877307891845703,-0.0034562954555630953,-0.0022202867634747683,-0.008837460809048764,-169.1917481945006,178.591250878583,0,0.8937454223632812,2019-08-07 14:30:57:925
0.0483475998044014,0.10979688167572021,9.963519096374512,-0.007984774884654239,-0.007281528707818685,-0.012300415987857336,-169.40086786351853,178.6084268180776,0,0.8973772525787354,2019-08-07 14:30:57:928
0.05792659893631935,0.08824413269758224,9.918018341064453,-0.0039890577107415445,-0.007547909835407911,-0.007239174043513418,-169.6050439938705,178.62665158504754,0,0.9000053405761719,2019-08-07 14:30:57:931
0.06271609663963318,0.11937587708234787,9.817439079284668,-0.0039890577107415445,-0.0035521926614952163,-0.009103842456786639,-169.80486944180055,178.64103144559016,0,0.9037826061248779,2019-08-07 14:30:57:935
0.0675055980682373,0.08824413269758224,9.767149925231934,-0.005320963088613342,-0.004884098039367014,-0.009103842456786639,-169.99985311893883,178.65894642826146,0,0.9074256420135498,2019-08-07 14:30:57:938
0.053137101233005524,0.07387563586235046,9.764754295349121,-0.009849443297927462,-0.004884098039367014,-0.010169366967143538,-170.19291473446395,178.67852118714342,0,0.9099986553192139,2019-08-07 14:30:57:941
0.0675055980682373,0.06429663300514221,9.630648612976074,-0.009050299395011138,-0.007015147580229461,-0.009370223064227214,-170.37958107289967,178.69916241095655,0,0.9136626720428467,2019-08-07 14:30:57:944
0.012426355853676796,0.14811287820339203,9.726438522338867,-0.006386488119118891,-0.0003556188378409054,-0.007239174043513418,-170.57046168675166,178.70887572657185,0,0.9168558120727539,2019-08-07 14:30:57:948
-0.01870539039373398,0.13853387534618378,9.76954460144043,-0.004521819705845669,-0.0035521926614952163,-0.010702129222321988,-163.56057798162468,178.71930100691114,0,0.9202075004577637,2019-08-07 14:30:57:951
0.017215855419635773,0.08584938198328018,9.762359619140625,-0.00425543883833077,-0.004084954916673665,-0.012034034340119461,-163.88659553663754,178.73561953674408,0,0.9234776496887207,2019-08-07 14:30:57:954
0.026794854551553726,0.14571812748908997,9.867729187011719,-0.00425543883833077,-0.0035521926614952163,-0.0077719362986918665,-164.2051133640553,178.7447515652946,0,0.9266796112060547,2019-08-07 14:30:57:957
0.012426355853676796,0.1169811263680458,9.831808090209961,-0.005320963088613342,-0.003019430146242442,-0.012034034340119461,-164.51900508538114,178.75720560538764,0,0.929969072341919,2019-08-07 14:30:57:961
0.03876860439777374,0.08345463126897812,9.803071022033691,-0.006919250374297341,-0.0019539056358855436,-0.009103842456786639,-164.82370270636355,178.77368928349867,0,0.9335284233093262,2019-08-07 14:30:57:964
0.07229509949684143,0.09303363412618637,9.812649726867676,-0.006120106991529666,-0.0038185737890844406,-0.008304698553870315,-165.11809620845452,178.78845731259133,0,0.9367465972900391,2019-08-07 14:30:57:968
-0.009126391261816025,0.124165378510952,9.78151798248291,-0.008251156012243464,-0.0056832419422833385,-0.008837460809048764,-158.2157884337111,178.79961647888166,0,0.939927339553833,2019-08-07 14:30:57:971
0.07229509949684143,0.07866512984037399,9.82222843170166,-0.006120106991529666,-0.005150479166956239,-0.010169366967143538,-158.6420088349839,178.81567031000662,0,0.9434876441955566,2019-08-07 14:30:57:974
0.03637385368347168,0.10021787881851196,9.788702011108398,-0.0034562954555630953,-0.0024866678910639927,-0.00617364953315652,-159.06446315810442,178.82824716456858,0,0.9466919898986816,2019-08-07 14:30:57:977
0.026794854551553726,0.16727086901664734,9.697701454162598,-0.006919250374297341,-0.004884098039367014,-0.00857107968145954,-159.47911621145462,178.83318184722177,0,0.9499428272247314,2019-08-07 14:30:57:981
0.04595285281538963,0.12895487248897552,9.848570823669434,-0.0077183937570650145,-0.0014211433807070943,-0.009103842456786639,-159.88390327785518,178.84305646712065,0,0.9535002708435059,2019-08-07 14:30:57:984
0.05792659893631935,0.11937587708234787,9.877307891845703,-0.00425543883833077,-0.0022202867634747683,-0.010702129222321988,-160.27910441438718,178.85311427076033,0,0.9567129611968994,2019-08-07 14:30:57:987
-0.013915890827775002,0.13374437391757965,9.78151798248291,-0.007452012629475789,-0.0022202867634747683,-0.006972792915924193,-153.47475066766822,178.8617336343391,0,0.9599368572235107,2019-08-07 14:30:57:991
0.04116335138678551,0.08584938198328018,9.795886039733887,-0.005587344736351217,-0.0027530490186532175,-0.005640887277978069,-153.99988692743287,178.87557994822865,0,0.963517427444458,2019-08-07 14:30:57:994
0.005242106970399618,0.10979688167572021,9.83899211883545,-0.005054581961024118,-0.0022202867634747683,-0.009103842456786639,-154.51888057276284,178.88618745047924,0,0.9667105674743652,2019-08-07 14:30:57:997
-0.006731641478836536,0.11219162493944168,9.831808090209961,-0.005853725863940442,-0.005150479166956239,-0.009103842456786639,-147.82835761327638,178.8964450320548,0,0.969926118850708,2019-08-07 14:30:58:001
0.06511084735393524,0.14092862606048584,9.78151798248291,-0.0077183937570650145,-0.004084954916673665,-0.009370223064227214,-148.4633460310394,178.9035505256465,0,0.9734869003295898,2019-08-07 14:30:58:004
0.053137101233005524,0.14811287820339203,9.82222843170166,-0.005853725863940442,-0.003019430146242442,-0.005907268405567294,-149.08733639305515,178.90925484914223,0,0.9766926765441895,2019-08-07 14:30:58:007
0.019610606133937836,0.18642887473106384,9.812649726867676,-0.006652869246708115,-0.0064823853250510115,-0.010435747574584113,-149.70211707776775,178.91051488806414,0,0.9799413681030273,2019-08-07 14:30:58:011
-0.009126391261816025,0.10979688167572021,9.85096549987793,-0.0034562954555630953,-0.003019430146242442,-0.0051081250227996205,-143.10853254698728,178.92022415580445,0,0.9835028648376465,2019-08-07 14:30:58:014
-0.009126391261816025,0.13374437391757965,9.874913215637207,-0.008251156012243464,-0.004084954916673665,-0.009103842456786639,-136.64668433025187,178.92778840043067,0,0.9867143630981445,2019-08-07 14:30:58:017
0.10582159459590912,0.059507135301828384,9.836597442626953,-0.004788200833434893,-0.005150479166956239,-0.0077719362986918665,-137.500493555586,178.9431648850096,0,0.9899296760559082,2019-08-07 14:30:58:021
-0.006731641478836536,0.14811287820339203,9.788702011108398,-0.005587344736351217,-0.0038185737890844406,-0.008038317426281092,-131.15050850467924,178.94808080343316,0,0.9934892654418945,2019-08-07 14:30:58:024
0.010031606070697308,0.14092862606048584,9.764754295349121,-0.01038220555310591,-0.0035521926614952163,-0.006972792915924193,-132.12568236098846,178.95444894005715,0,0.9966917037963867,2019-08-07 14:30:58:027
0.0028473574202507734,0.15290237963199615,9.73122787475586,-0.005054581961024118,-0.00435133604426289,-0.010968509829762562,-133.08203950127879,178.95827841713532,0,0.9999411106109619,2019-08-07 14:30:58:031
0.012426355853676796,0.18163937330245972,9.786307334899902,-0.004788200833434893,-0.0046177169117777896,-0.007505555171102641,-134.01801867801788,178.95880558739287,0,1.0035085678100586,2019-08-07 14:30:58:034
0.05792659893631935,0.08584938198328018,9.704886436462402,-0.007185631501886564,-0.0054168602945454634,-0.011234891477500435,-134.92972298531495,178.97094639028128,0,1.007110834121704,2019-08-07 14:30:58:038
0.024400103837251663,0.124165378510952,9.750386238098145,-0.0029235329403103213,-0.0019539056358855436,-0.009902985319405663,-135.82792483718387,178.97743853955637,0,1.010174036026001,2019-08-07 14:30:58:041
0.06990034878253937,0.13374437391757965,9.865334510803223,-0.006386488119118891,-0.0054168602945454634,-0.005907268405567294,-136.702240546403,178.9835423227637,0,1.0134835243225098,2019-08-07 14:30:58:044
0.00045260769547894597,0.16487611830234528,9.803071022033691,-0.006386488119118891,-0.0038185737890844406,-0.00963660471196509,-137.56745639055367,178.98574839536525,0,1.0166850090026855,2019-08-07 14:30:58:047
-0.030679138377308846,0.10979688167572021,9.800676345825195,-0.005320963088613342,-0.0027530490186532175,-0.005640887277978069,-131.21919087345364,178.9941693211737,0,1.019941806793213,2019-08-07 14:30:58:051
0.031584352254867554,0.11937587708234787,9.903650283813477,-0.005853725863940442,-0.003019430146242442,-0.007239174043513418,-132.19054906220484,179.0016440391176,0,1.0235013961791992,2019-08-07 14:30:58:054
0.06990034878253937,0.1433233767747879,9.848570823669434,-0.005853725863940442,-0.008347053218175584,-0.007505555171102641,-133.13709876657316,179.00599251816246,0,1.0267152786254883,2019-08-07 14:30:58:057
0.019610606133937836,0.10500738024711609,9.716859817504883,-0.007185631501886564,-0.0046177169117777896,-0.010435747574584113,-134.07120949581736,179.01478829369594,0,1.0299341678619385,2019-08-07 14:30:58:061
0.07947934418916702,0.0978231281042099,9.827017784118652,-0.006386488119118891,-0.0014211433807070943,-0.009902985319405663,-134.98023371013636,179.0243613229119,0,1.0334908962249756,2019-08-07 14:30:58:064
0.04355810210108757,0.1696656197309494,9.803071022033691,-0.007452012629475789,-0.0056832419422833385,-0.007505555171102641,-135.87451455552704,179.02538445473104,0,1.036696195602417,2019-08-07 14:30:58:067
0.06990034878253937,0.07866512984037399,9.719254493713379,-0.007452012629475789,-0.005150479166956239,-0.010435747574584113,-136.74784483667923,179.03695967691306,0,1.039940357208252,2019-08-07 14:30:58:071
0.05074235051870346,0.08345463126897812,9.747991561889648,-0.005587344736351217,-0.0046177169117777896,-0.007505555171102641,-137.60599859772051,179.04752883602515,0,1.0435056686401367,2019-08-07 14:30:58:074
0.005242106970399618,0.06908613443374634,9.759964942932129,-0.006386488119118891,-0.0011547622531178697,-0.009103842456786639,-138.45305516568394,179.0596172818697,0,1.0467133522033691,2019-08-07 14:30:58:077
0.09145309776067734,0.13374437391757965,9.721649169921875,-0.008517537139832687,-0.005150479166956239,-0.008038317426281092,-139.2722837407371,179.0642004874008,0,1.0499320030212402,2019-08-07 14:30:58:081
0.10103209316730499,0.07866512984037399,9.788702011108398,-0.006120106991529666,-0.005150479166956239,-0.009103842456786639,-140.07373481179778,179.07522435612063,0,1.0543453693389893,2019-08-07 14:30:58:085
0.03637385368347168,0.08105988055467606,9.783912658691406,-0.005054581961024118,-0.0054168602945454634,-0.00617364953315652,-140.86703489248688,179.08512666279367,0,1.0575182437896729,2019-08-07 14:30:58:088
0.06271609663963318,0.11937587708234787,9.817439079284668,-0.005853725863940442,-0.00435133604426289,-0.010169366967143538,-141.64172003786933,179.09037061596956,0,1.060194492340088,2019-08-07 14:30:58:091
0.031584352254867554,0.11219162493944168,9.779123306274414,-0.005054581961024118,-0.0054168602945454634,-0.008038317426281092,-142.40388191708055,179.09663275156495,0,1.0644774436950684,2019-08-07 14:30:58:095
0.053137101233005524,0.11458637565374374,9.74080753326416,-0.008251156012243464,-0.005150479166956239,-0.00963660471196509,-143.14858291581984,179.1027751932292,0,1.0678327083587646,2019-08-07 14:30:58:099
0.053137101233005524,0.1576918661594391,9.79349136352539,-0.0029235329403103213,-0.0046177169117777896,-0.006972792915924193,-143.87879768495782,179.10264753918239,0,1.0701320171356201,2019-08-07 14:30:58:101
0.09145309776067734,0.08345463126897812,9.812649726867676,-0.009316680002451712,-0.0014211433807070943,-0.008837460809048764,-144.5902588596632,179.1127065538603,0,1.0736827850341797,2019-08-07 14:30:58:104
0.053137101233005524,0.08105988055467606,9.82222843170166,-0.005853725863940442,-0.0027530490186532175,-0.007239174043513418,-145.29176834976545,179.1220293747576,0,1.0768275260925293,2019-08-07 14:30:58:108
0.08426884561777115,0.07627038657665253,9.803071022033691,-0.006120106991529666,-0.0019539056358855436,-0.007239174043513418,-145.97574439817254,179.1317332287378,0,1.079911470413208,2019-08-07 14:30:58:111
0.04595285281538963,0.08584938198328018,9.757570266723633,-0.005320963088613342,-0.0019539056358855436,-0.010702129222321988,-146.65041128145958,179.14016499026692,0,1.083754539489746,2019-08-07 14:30:58:115
0.0076368567533791065,0.12177062779664993,9.791096687316895,-0.0015916273023641983,-0.004884098039367014,-0.009902985319405663,-147.3154958091569,179.1434410828057,0,1.0874500274658203,2019-08-07 14:30:58:118
0.0483475998044014,0.11937587708234787,9.786307334899902,-0.007452012629475789,-0.004084954916673665,-0.006706411788334968,-147.9628481613902,179.14782903088002,0,1.0903997421264648,2019-08-07 14:30:58:121
0.02918960340321064,0.10979688167572021,9.74080753326416,-0.004788200833434893,-0.003019430146242442,-0.005907268405567294,-148.59954319676484,179.15293029160688,0,1.0940220355987549,2019-08-07 14:30:58:125
0.07229509949684143,0.10500738024711609,9.7982816696167,-0.006652869246708115,-0.0054168602945454634,-0.00857107968145954,-149.21812522570224,179.15878563059343,0,1.0972187519073486,2019-08-07 14:30:58:128
0.08187409490346909,0.1169811263680458,9.791096687316895,-0.004521819705845669,-0.0046177169117777896,-0.0077719362986918665,-149.82329198989035,179.16278975108682,0,1.1006462574005127,2019-08-07 14:30:58:131
0.017215855419635773,0.07866512984037399,9.733622550964355,-0.005587344736351217,-0.005949623069872562,-0.00857107968145954,-150.42350619663404,179.1714875365509,0,1.1045172214508057,2019-08-07 14:30:58:135
0.031584352254867554,0.10979688167572021,9.815044403076172,-0.006386488119118891,-0.0064823853250510115,-0.00617364953315652,-151.0104870230635,179.17608824642156,0,1.106884241104126,2019-08-07 14:30:58:138
0.03876860439777374,0.08584938198328018,9.853360176086426,-0.005320963088613342,-0.006748766452640236,-0.010169366967143538,-151.5846095757539,179.18349655765624,0,1.10994291305542,2019-08-07 14:30:58:141
0.0938478484749794,0.1313496232032776,9.786307334899902,-0.0077183937570650145,-0.003019430146242442,-0.005907268405567294,-152.14133302946476,179.18597006449747,0,1.1134564876556396,2019-08-07 14:30:58:144
0.09145309776067734,0.07866512984037399,9.829413414001465,-0.004521819705845669,-0.0056832419422833385,-0.00963660471196509,-152.6867459621759,179.19395453709862,0,1.1169006824493408,2019-08-07 14:30:58:148
0.03397910296916962,0.09303363412618637,9.829413414001465,-0.006652869246708115,-0.006748766452640236,-0.006706411788334968,-153.22787977377504,179.20038325187716,0,1.119988203048706,2019-08-07 14:30:58:151
0.053137101233005524,0.12177062779664993,9.759964942932129,-0.004788200833434893,-0.0038185737890844406,-0.007239174043513418,-153.75633973089833,179.20301179635908,0,1.1234567165374756,2019-08-07 14:30:58:154
0.07708460092544556,0.14571812748908997,9.800676345825195,-0.008251156012243464,-0.0046177169117777896,-0.007239174043513418,-154.27130726586216,179.20351073670997,0,1.1269006729125977,2019-08-07 14:30:58:158
0.06511084735393524,0.07866512984037399,9.79349136352539,-0.0029235329403103213,-0.0027530490186532175,-0.008304698553870315,-154.7777849190128,179.21074370245563,0,1.1299917697906494,2019-08-07 14:30:58:161
0.04116335138678551,0.1169811263680458,9.812649726867676,-0.009050299395011138,-0.005150479166956239,-0.007239174043513418,-155.27642250529397,179.21462515532465,0,1.133448600769043,2019-08-07 14:30:58:164
0.08666359633207321,0.11219162493944168,9.75278091430664,-0.005587344736351217,-0.0046177169117777896,-0.009370223064227214,-155.7598227886096,179.2182266648184,0,1.1368768215179443,2019-08-07 14:30:58:168
0.07229509949684143,0.0978231281042099,9.8797025680542,-0.007452012629475789,-0.007281528707818685,-0.008304698553870315,-156.23496130139532,179.22382617242894,0,1.1400072574615479,2019-08-07 14:30:58:171
0.04116335138678551,0.08824413269758224,9.82222843170166,-0.005054581961024118,-0.005949623069872562,-0.006706411788334968,-156.70430533173845,179.23003563550745,0,1.143462896347046,2019-08-07 14:30:58:174
0.05792659893631935,0.09303363412618637,9.918018341064453,-0.007984774884654239,-0.0038185737890844406,-0.006972792915924193,-157.16270488335863,179.2364043468052,0,1.1472949981689453,2019-08-07 14:30:58:178
0.10582159459590912,0.124165378510952,9.759964942932129,-0.007185631501886564,-0.0024866678910639927,-0.009103842456786639,-157.60667427767197,179.2381174250518,0,1.1498196125030518,2019-08-07 14:30:58:181
0.03637385368347168,0.15290237963199615,9.81025505065918,-0.005853725863940442,-0.0027530490186532175,-0.00963660471196509,-158.0497298257921,179.2366917674691,0,1.153456687927246,2019-08-07 14:30:58:184
0.09145309776067734,0.0714808851480484,9.817439079284668,-0.006919250374297341,-0.004884098039367014,-0.006706411788334968,-158.47712205543752,179.2449447176457,0,1.1568801403045654,2019-08-07 14:30:58:188
0.0028473574202507734,0.09542837738990784,9.815044403076172,-0.005587344736351217,-0.004084954916673665,-0.006440030660745744,-158.90653719450694,179.24987593427207,0,1.159975528717041,2019-08-07 14:30:58:191
0.04355810210108757,0.1361391246318817,9.783912658691406,-0.005587344736351217,-0.003285811533905992,-0.005374506150388846,-159.32265726649865,179.25003568694984,0,1.1634855270385742,2019-08-07 14:30:58:194
0.0483475998044014,0.08824413269758224,9.721649169921875,-0.005853725863940442,-0.0035521926614952163,-0.006440030660745744,-159.72982215518223,179.2557594869297,0,1.1669106483459473,2019-08-07 14:30:58:198
0.031584352254867554,0.13374437391757965,9.795886039733887,-0.007185631501886564,-0.007015147580229461,-0.009103842456786639,-160.13029943563404,179.2562614549449,0,1.1700372695922852,2019-08-07 14:30:58:201
0.08187409490346909,0.13374437391757965,9.886886596679688,-0.007984774884654239,-0.0038185737890844406,-0.008304698553870315,-160.51747205529145,179.25716689053513,0,1.1734521389007568,2019-08-07 14:30:58:204
0.0675055980682373,0.10261262953281403,9.724043846130371,-0.004521819705845669,-0.0064823853250510115,-0.00963660471196509,-160.8979226870905,179.26080019381766,0,1.1768724918365479,2019-08-07 14:30:58:208
0.04595285281538963,0.09303363412618637,9.786307334899902,-0.010115823905368035,-0.0064823853250510115,-0.005907268405567294,-161.27344387480008,179.26646922456493,0,1.1800034046173096,2019-08-07 14:30:58:211
0.08187409490346909,0.11219162493944168,9.791096687316895,-0.005320963088613342,-0.007281528707818685,-0.009370223064227214,-161.63698039476577,179.26904213290857,0,1.1834583282470703,2019-08-07 14:30:58:214
0.04116335138678551,0.09063888341188431,9.86054515838623,-0.005853725863940442,-0.0027530490186532175,-0.004575362767621172,-161.99892486359673,179.27425998821352,0,1.186901569366455,2019-08-07 14:30:58:218
0.02200535498559475,0.124165378510952,9.841386795043945,-0.005853725863940442,-0.0011547622531178697,-0.005640887277978069,-162.35618059942277,179.27534952882527,0,1.190040111541748,2019-08-07 14:30:58:221
0.0028473574202507734,0.13374437391757965,9.76954460144043,-0.002390770685131872,-0.0038185737890844406,-0.009103842456786639,-162.70799168629026,179.27461388776467,0,1.193450927734375,2019-08-07 14:30:58:224
0.053137101233005524,0.16727086901664734,9.85096549987793,-0.007185631501886564,-0.003285811533905992,-0.005907268405567294,-163.04699856633184,179.27109185262756,0,1.1969857215881348,2019-08-07 14:30:58:228
0.04595285281538963,0.1361391246318817,9.78151798248291,-0.005320963088613342,-0.0019539056358855436,-0.012034034340119461,-163.3803476398867,179.2706142434568,0,1.1999714374542236,2019-08-07 14:30:58:231
0.06990034878253937,0.10979688167572021,9.795886039733887,-0.009583061650189587,-0.007547909835407911,-0.007505555171102641,-163.70323256314865,179.27404888755913,0,1.2031128406524658,2019-08-07 14:30:58:234
0.005242106970399618,0.12177062779664993,9.836597442626953,-0.006120106991529666,-0.005150479166956239,-0.010435747574584113,-164.0275388354844,179.27559307025172,0,1.206634283065796,2019-08-07 14:30:58:237
0.04116335138678551,0.08824413269758224,9.8797025680542,-0.006120106991529666,-0.006748766452640236,-0.012034034340119461,-164.34101251700554,179.28093559348582,0,1.2098040580749512,2019-08-07 14:30:58:241
0.019610606133937836,0.06669138371944427,9.831808090209961,-0.004788200833434893,-0.0038185737890844406,-0.010435747574584113,-164.65111533201272,179.2885362065911,0,1.2134945392608643,2019-08-07 14:30:58:244
0.014821105636656284,0.11937587708234787,9.75278091430664,-0.005587344736351217,-0.005949623069872562,-0.010702129222321988,-164.955201555338,179.28981997899223,0,1.2169370651245117,2019-08-07 14:30:58:248
0.06271609663963318,0.13374437391757965,9.704886436462402,-0.004788200833434893,-0.0054168602945454634,-0.010435747574584113,-165.24774296716313,179.28907176203364,0,1.2200584411621094,2019-08-07 14:30:58:251
-0.016310639679431915,0.11219162493944168,9.79349136352539,-0.0034562954555630953,-0.004084954916673665,-0.00857107968145954,-158.3439075151695,179.2908312277158,0,1.2234985828399658,2019-08-07 14:30:58:254
0.053137101233005524,0.13853387534618378,9.812649726867676,-0.005853725863940442,-0.0056832419422833385,-0.008038317426281092,-158.76956798282836,179.2901315749019,0,1.2274348735809326,2019-08-07 14:30:58:258
0.03876860439777374,0.1169811263680458,9.74080753326416,-0.007452012629475789,-0.007547909835407911,-0.008304698553870315,-159.1886019936886,179.29156886681116,0,1.2298271656036377,2019-08-07 14:30:58:261
-0.05941613391041756,0.1313496232032776,9.767149925231934,-0.007185631501886564,-0.0056832419422833385,-0.007239174043513418,-152.4104711545173,179.29200913788864,0,1.2339937686920166,2019-08-07 14:30:58:265
0.04595285281538963,0.1696656197309494,9.728833198547363,-0.008517537139832687,-0.0027530490186532175,-0.00963660471196509,-152.9562476721998,179.2880478428373,0,1.2378849983215332,2019-08-07 14:30:58:269
0.012426355853676796,0.11458637565374374,9.78151798248291,-0.006919250374297341,-0.00435133604426289,-0.0077719362986918665,-153.49510971889802,179.2897496708475,0,1.2401657104492188,2019-08-07 14:30:58:271
0.02200535498559475,0.09303363412618637,9.85096549987793,-0.0077183937570650145,-0.0014211433807070943,-0.00963660471196509,-154.02236808251757,179.29465175610687,0,1.2436704635620117,2019-08-07 14:30:58:274
-0.0019421420292928815,0.1169811263680458,9.81025505065918,-0.005320963088613342,-0.0022202867634747683,-0.008304698553870315,-147.34171647087,179.29612820352872,0,1.2471284866333008,2019-08-07 14:30:58:278
-0.01870539039373398,0.06429663300514221,9.82222843170166,-0.006652869246708115,-0.005949623069872562,-0.009902985319405663,-140.7962176688176,179.30365137492953,0,1.2496631145477295,2019-08-07 14:30:58:280
0.017215855419635773,0.11937587708234787,9.795886039733887,-0.0077183937570650145,0.0036400983035624977,-0.011234891477500435,-141.57906339750502,179.30527686788085,0,1.2534987926483154,2019-08-07 14:30:58:284
0.10103209316730499,0.14571812748908997,9.736018180847168,-0.0018580084299534227,-0.007015147580229461,-0.010435747574584113,-142.33423802957415,179.30238019509565,0,1.2569341659545898,2019-08-07 14:30:58:288
0.031584352254867554,0.11458637565374374,9.81025505065918,-0.006919250374297341,-0.0038185737890844406,-0.010435747574584113,-143.0831444152018,179.30425245084703,0,1.2602901458740234,2019-08-07 14:30:58:291
0.06990034878253937,0.12656012177467346,9.688122749328613,-0.009316680002451712,-0.005949623069872562,-0.00857107968145954,-143.81214366627316,179.30487445566445,0,1.263493537902832,2019-08-07 14:30:58:294
0.08187409490346909,0.08824413269758224,9.783912658691406,-0.0039890577107415445,-0.006216004197461787,-0.010169366967143538,-144.52510669191025,179.30921519706587,0,1.2669460773468018,2019-08-07 14:30:58:298
0.03876860439777374,0.12895487248897552,9.71207046508789,-0.0026571518127210965,-0.0046177169117777896,-0.00857107968145954,-145.22918452492357,179.30830324846315,0,1.2702081203460693,2019-08-07 14:30:58:301
0.031584352254867554,0.11458637565374374,9.8797025680542,-0.006386488119118891,-0.006216004197461787,-0.011234891477500435,-145.91978911435018,179.31002712519214,0,1.273498296737671,2019-08-07 14:30:58:304
0.02200535498559475,0.08584938198328018,9.817439079284668,-0.005320963088613342,-0.005949623069872562,-0.010702129222321988,-146.5976783550723,179.3148316101175,0,1.2769300937652588,2019-08-07 14:30:58:308
0.02200535498559475,0.11458637565374374,9.759964942932129,-0.007185631501886564,-0.0027530490186532175,-0.011767653732678886,-147.26262045285773,179.31644107872918,0,1.2802984714508057,2019-08-07 14:30:58:311
-0.013915890827775002,0.12177062779664993,9.815044403076172,-0.009316680002451712,-0.005949623069872562,-0.010702129222321988,-140.71792409041234,179.3175695738462,0,1.2834973335266113,2019-08-07 14:30:58:314
0.02200535498559475,0.1576918661594391,9.767149925231934,-0.005853725863940442,-0.0038185737890844406,-0.010968509829762562,-141.5002460556042,179.31384987761004,0,1.2869384288787842,2019-08-07 14:30:58:318
0.019610606133937836,0.11937587708234787,9.779123306274414,-0.008251156012243464,-0.00435133604426289,-0.008837460809048764,-142.26730921354172,179.3147872671331,0,1.2895331382751465,2019-08-07 14:30:58:320
0.005242106970399618,0.05711238458752632,9.848570823669434,-0.008517537139832687,-0.008080672090586358,-0.0077719362986918665,-143.01962712247004,179.3236656514215,0,1.293337106704712,2019-08-07 14:30:58:324
-0.016310639679431915,0.08345463126897812,9.846176147460938,-0.006919250374297341,-0.004084954916673665,-0.01150127208494101,-136.56028482406978,179.3289163725118,0,1.2970342636108398,2019-08-07 14:30:58:328
0.04595285281538963,0.15290237963199615,9.855754852294922,-0.007185631501886564,-0.0024866678910639927,-0.00963660471196509,-137.4233766296509,179.3256010073089,0,1.2996101379394531,2019-08-07 14:30:58:330
0.05074235051870346,0.10979688167572021,9.843781471252441,-0.007185631501886564,-0.0054168602945454634,-0.01150127208494101,-138.2678165110435,179.32788094010064,0,1.3035085201263428,2019-08-07 14:30:58:334
0.06271609663963318,0.08345463126897812,9.82222843170166,-0.00425543883833077,-0.0019539056358855436,-0.008304698553870315,-139.09476482031607,179.33241194881666,0,1.306959867477417,2019-08-07 14:30:58:338
0.05074235051870346,0.12177062779664993,9.803071022033691,-0.005587344736351217,-0.005150479166956239,-0.010968509829762562,-139.90597157841427,179.33257877188453,0,1.3103020191192627,2019-08-07 14:30:58:341
-0.01870539039373398,0.1433233767747879,9.759964942932129,-0.01144773006346281,-0.006216004197461787,-0.014165083360833256,-133.5089369247508,179.33114767931292,0,1.3134863376617432,2019-08-07 14:30:58:344
0.060321349650621414,0.18163937330245972,9.812649726867676,-0.005853725863940442,-0.0011547622531178697,-0.00963660471196509,-134.43149067722766,179.32444738635797,0,1.3169302940368652,2019-08-07 14:30:58:348
-0.009126391261816025,0.10261262953281403,9.817439079284668,-0.005320963088613342,-0.006216004197461787,-0.009370223064227214,-128.1427522914735,179.32698648437335,0,1.3202934265136719,2019-08-07 14:30:58:351
0.06271609663963318,0.10261262953281403,9.829413414001465,-0.004521819705845669,-0.0064823853250510115,-0.010968509829762562,-129.17141929160022,179.32929834556313,0,1.3234984874725342,2019-08-07 14:30:58:354
0.0938478484749794,0.0978231281042099,9.747991561889648,-0.005320963088613342,-0.0024866678910639927,-0.009370223064227214,-130.17647782252894,179.3322430018056,0,1.3269450664520264,2019-08-07 14:30:58:358
0.09145309776067734,0.09542837738990784,9.7982816696167,-0.006120106991529666,-0.004084954916673665,-0.008837460809048764,-131.1614859953671,179.33558732707962,0,1.330289363861084,2019-08-07 14:30:58:361
0.05074235051870346,0.07387563586235046,9.795886039733887,-0.006652869246708115,-8.92376858697129e-05,-0.008304698553870315,-132.1323044635301,179.3414312798059,0,1.3334949016571045,2019-08-07 14:30:58:364
0.06511084735393524,0.1169811263680458,9.865334510803223,-0.007452012629475789,-0.006748766452640236,-0.010702129222321988,-133.08076991348346,179.3424789562064,0,1.3369929790496826,2019-08-07 14:30:58:368
-0.011521141044795513,0.11937587708234787,9.75278091430664,-0.007984774884654239,-0.004884098039367014,-0.010968509829762562,-126.81980820210293,179.34274825692745,0,1.339545488357544,2019-08-07 14:30:58:370
0.053137101233005524,0.11219162493944168,9.779123306274414,-0.0077183937570650145,-0.0024866678910639927,-0.00857107968145954,-127.87665636934227,179.34438966766768,0,1.3433351516723633,2019-08-07 14:30:58:374
0.04116335138678551,0.1768498718738556,9.786307334899902,-0.00425543883833077,-0.001687524508296319,-0.009902985319405663,-128.91395207345042,179.33768179632426,0,1.3470418453216553,2019-08-07 14:30:58:378
-0.011521141044795513,0.11937587708234787,9.884491920471191,-0.005587344736351217,-0.0008883811255286454,-0.008038317426281092,-122.73688101437929,179.33789247441285,0,1.3496012687683105,2019-08-07 14:30:58:380
0.09863734245300293,0.1505076289176941,9.867729187011719,-0.004788200833434893,-0.005150479166956239,-0.009902985319405663,-123.8695642650883,179.33470375530635,0,1.3534913063049316,2019-08-07 14:30:58:384
0.04116335138678551,0.0714808851480484,9.78151798248291,-0.006652869246708115,-0.006216004197461787,-0.006440030660745744,-124.98614972167258,179.3409211235585,0,1.3569321632385254,2019-08-07 14:30:58:388
0.10821634531021118,0.059507135301828384,9.827017784118652,-0.009583061650189587,-0.0046177169117777896,-0.007239174043513418,-126.072942941237,179.34895954187235,0,1.360269546508789,2019-08-07 14:30:58:391
0.05553185194730759,0.10021787881851196,9.745596885681152,-0.007452012629475789,-0.007814290962997135,-0.013099558850476358,-127.14354251400279,179.35154343600013,0,1.363487720489502,2019-08-07 14:30:58:394
0.053137101233005524,0.14811287820339203,9.83899211883545,-0.009316680002451712,-0.005150479166956239,-0.008038317426281092,-128.19348737459924,179.34906465661555,0,1.3669304847717285,2019-08-07 14:30:58:398
0.024400103837251663,0.12177062779664993,9.815044403076172,-0.005853725863940442,-0.0035521926614952163,-0.007239174043513418,-129.2260971054198,179.3489743183739,0,1.3702986240386963,2019-08-07 14:30:58:401
0.11061109602451324,0.1505076289176941,9.812649726867676,-0.008251156012243464,-0.007547909835407911,-0.009370223064227214,-130.227303897776,179.34590094812296,0,1.373495101928711,2019-08-07 14:30:58:404
0.04595285281538963,0.1313496232032776,9.82222843170166,-0.006652869246708115,-0.0038185737890844406,-0.00857107968145954,-131.21665887988868,179.34494540445343,0,1.376936435699463,2019-08-07 14:30:58:408
0.12258484214544296,0.10261262953281403,9.724043846130371,-0.010115823905368035,-0.004884098039367014,-0.010435747574584113,-132.17696466970636,179.34785184181837,0,1.3802764415740967,2019-08-07 14:30:58:411
0.031584352254867554,0.09063888341188431,9.86054515838623,-0.0077183937570650145,-0.005150479166956239,-0.008304698553870315,-133.128802973531,179.3517882969502,0,1.3835680484771729,2019-08-07 14:30:58:414
0.07229509949684143,0.07387563586235046,9.7982816696167,-0.009050299395011138,-0.0011547622531178697,-0.011234891477500435,-134.0575495131441,179.35785744238134,0,1.3870010375976562,2019-08-07 14:30:58:418
0.11061109602451324,0.10021787881851196,9.721649169921875,-0.007984774884654239,-0.003285811533905992,-0.009103842456786639,-134.96289018481596,179.36003207029964,0,1.3895533084869385,2019-08-07 14:30:58:420
0.04116335138678551,0.08584938198328018,9.709675788879395,-0.006919250374297341,-0.00435133604426289,-0.009370223064227214,-135.85784655863927,179.36417532641025,0,1.3933508396148682,2019-08-07 14:30:58:424
0.04116335138678551,0.10979688167572021,9.750386238098145,-0.009316680002451712,-0.00435133604426289,-0.011767653732678886,-136.73494843748284,179.36592293947277,0,1.3970487117767334,2019-08-07 14:30:58:428
0.07229509949684143,0.19121836125850677,9.82222843170166,-0.006919250374297341,-0.00435133604426289,-0.009103842456786639,-137.59118807403817,179.35729604331453,0,1.39961576461792,2019-08-07 14:30:58:430
0.031584352254867554,0.18403412401676178,9.815044403076172,-0.0077183937570650145,-0.00435133604426289,-0.012566796595297908,-138.43472783808127,179.35034979179693,0,1.4034998416900635,2019-08-07 14:30:58:434
0.02918960340321064,0.11937587708234787,9.805465698242188,-0.005054581961024118,-0.00435133604426289,-0.005907268405567294,-139.26178193738718,179.35036851221582,0,1.4069383144378662,2019-08-07 14:30:58:438
0.09624259918928146,0.08345463126897812,9.805465698242188,-0.002390770685131872,-0.007814290962997135,-0.008837460809048764,-140.0638283312524,179.35405848484172,0,1.4102907180786133,2019-08-07 14:30:58:441
-0.006731641478836536,0.1433233767747879,9.788702011108398,-0.007984774884654239,-0.00435133604426289,-0.00963660471196509,-133.6625579455302,179.351635070602,0,1.4134907722473145,2019-08-07 14:30:58:444
0.026794854551553726,0.10979688167572021,9.783912658691406,-0.006652869246708115,-0.00435133604426289,-0.00857107968145954,-134.58532805509378,179.35302823415427,0,1.4169306755065918,2019-08-07 14:30:58:448
0.06511084735393524,0.1576918661594391,9.815044403076172,-0.005054581961024118,-0.0006219999979394207,-0.010702129222321988,-135.48590233691698,179.34851355889148,0,1.4202954769134521,2019-08-07 14:30:58:451
0.07947934418916702,0.10500738024711609,9.76954460144043,-0.005853725863940442,-0.0054168602945454634,-0.009103842456786639,-136.3658867907378,179.35028080532564,0,1.42350172996521,2019-08-07 14:30:58:454
0.014821105636656284,0.08345463126897812,9.74080753326416,-0.007185631501886564,-0.003285811533905992,-0.009902985319405663,-137.23618670109096,179.35485471449374,0,1.4269640445709229,2019-08-07 14:30:58:458
0.060321349650621414,0.06669138371944427,9.805465698242188,-0.006120106991529666,-0.004084954916673665,-0.010169366967143538,-138.08375004265255,179.36095800265394,0,1.4298570156097412,2019-08-07 14:30:58:461
0.03637385368347168,0.07627038657665253,9.874913215637207,-0.00425543883833077,-0.005150479166956239,-0.009103842456786639,-138.9168014610656,179.36575810094726,0,1.4334969520568848,2019-08-07 14:30:58:464
0.026794854551553726,0.1169811263680458,9.853360176086426,-0.009583061650189587,-0.003285811533905992,-0.008304698553870315,-139.7347159448666,179.3666861521936,0,1.436929702758789,2019-08-07 14:30:58:468
0.014821105636656284,0.08824413269758224,9.762359619140625,-0.009849443297927462,-0.004084954916673665,-0.00963660471196509,-140.53751581499955,179.3708416994231,0,1.4402697086334229,2019-08-07 14:30:58:471
0.05792659893631935,0.12656012177467346,9.92999267578125,-0.007185631501886564,-0.0054168602945454634,-0.00857107968145954,-141.3190987874043,179.37012346166483,0,1.4434986114501953,2019-08-07 14:30:58:474
0.0746898502111435,0.1313496232032776,9.726438522338867,-0.0026571518127210965,-0.006216004197461787,-0.00857107968145954,-142.08271731395237,179.36776005722805,0,1.446937084197998,2019-08-07 14:30:58:478
0.017215855419635773,0.12177062779664993,9.800676345825195,-0.005587344736351217,-0.0027530490186532175,-0.010435747574584113,-142.83853533146208,179.36721255117646,0,1.4502668380737305,2019-08-07 14:30:58:481
0.07708460092544556,0.11937587708234787,9.807860374450684,-0.009050299395011138,-0.006748766452640236,-0.006706411788334968,-143.57153612572344,179.36756080155297,0,1.4534926414489746,2019-08-07 14:30:58:484
0.014821105636656284,0.13853387534618378,9.767149925231934,-0.004788200833434893,-0.0054168602945454634,-0.006440030660745744,-144.2973220147906,179.36488070809781,0,1.4569268226623535,2019-08-07 14:30:58:488
0.13216383755207062,0.1505076289176941,9.74080753326416,-0.007984774884654239,-0.0035521926614952163,-0.00963660471196509,-144.99515755283304,179.36138726586825,0,1.4602916240692139,2019-08-07 14:30:58:491
0.014821105636656284,0.08584938198328018,9.824623107910156,-0.005054581961024118,-0.0019539056358855436,-0.008038317426281092,-145.69317360925336,179.36505741152902,0,1.4635009765625,2019-08-07 14:30:58:494
0.019610606133937836,0.06669138371944427,9.76954460144043,-0.0077183937570650145,-0.0035521926614952163,-0.00963660471196509,-146.37632257765526,179.37142733545323,0,1.466947078704834,2019-08-07 14:30:58:498
0.04355810210108757,0.1361391246318817,9.870123863220215,-0.005853725863940442,-0.0027530490186532175,-0.008304698553870315,-147.0432209368312,179.36929584957332,0,1.4702990055084229,2019-08-07 14:30:58:501
0.014821105636656284,0.1361391246318817,9.805465698242188,-0.006652869246708115,-0.0064823853250510115,-0.00857107968145954,-147.6994633240476,179.3671927223928,0,1.4734890460968018,2019-08-07 14:30:58:504
0.11540059000253677,0.09303363412618637,9.807860374450684,-0.010115823905368035,-0.00435133604426289,-0.008304698553870315,-148.33113800021763,179.37096408762605,0,1.4769830703735352,2019-08-07 14:30:58:508
0.15611134469509125,0.12177062779664993,9.834202766418457,-0.007185631501886564,-0.004084954916673665,-0.005374506150388846,-148.94573874763438,179.37038962637286,0,1.479543924331665,2019-08-07 14:30:58:510
-0.013915890827775002,0.1169811263680458,9.815044403076172,-0.007984774884654239,-0.001687524508296319,-0.010169366967143538,-142.36808919399226,179.37102571494432,0,1.483337640762329,2019-08-07 14:30:58:514
0.053137101233005524,0.16008661687374115,9.788702011108398,-0.006386488119118891,-0.0054168602945454634,-0.008304698553870315,-143.1133814424312,179.3661933109567,0,1.4870381355285645,2019-08-07 14:30:58:518
-0.013915890827775002,0.11219162493944168,9.7982816696167,-0.0077183937570650145,-0.004084954916673665,-0.009103842456786639,-136.65215434050106,179.36685814615376,0,1.4895970821380615,2019-08-07 14:30:58:520
-0.004336891695857048,0.1169811263680458,9.78151798248291,-0.006386488119118891,-0.003019430146242442,-0.011767653732678886,-130.3189581891587,179.3672155579732,0,1.4934966564178467,2019-08-07 14:30:58:524
0.02918960340321064,0.05711238458752632,9.807860374450684,-0.005320963088613342,-0.0056832419422833385,-0.007239174043513418,-131.30807417859992,179.3742231955051,0,1.4969263076782227,2019-08-07 14:30:58:528
0.0675055980682373,0.12656012177467346,9.771939277648926,-0.005587344736351217,-0.0027530490186532175,-0.0077719362986918665,-132.2734777879478,179.3729515366195,0,1.5002832412719727,2019-08-07 14:30:58:531
0.060321349650621414,0.10261262953281403,9.759964942932129,-0.007984774884654239,-0.007015147580229461,-0.010435747574584113,-133.21966625571034,179.37487909084993,0,1.503481388092041,2019-08-07 14:30:58:534
-0.011521141044795513,0.10979688167572021,9.836597442626953,-0.006120106991529666,-0.0024866678910639927,-0.006706411788334968,-126.95613022587419,179.3757845632127,0,1.5069539546966553,2019-08-07 14:30:58:538
-0.004336891695857048,0.06429663300514221,9.764754295349121,-0.005320963088613342,-0.00435133604426289,-0.007239174043513418,-120.81688843302504,179.381491729971,0,1.5095248222351074,2019-08-07 14:30:58:540
0.03876860439777374,0.12177062779664993,9.807860374450684,-0.005054581961024118,-0.003019430146242442,-0.005907268405567294,-121.99537532592518,179.38071641927775,0,1.513333797454834,2019-08-07 14:30:58:544
0.04355810210108757,0.09063888341188431,9.762359619140625,-0.005853725863940442,-8.92376858697129e-05,-0.0051081250227996205,-123.15033642585662,179.38367886523363,0,1.5170326232910156,2019-08-07 14:30:58:548
0.0675055980682373,0.08345463126897812,9.779123306274414,-0.006652869246708115,-0.003285811533905992,-0.008837460809048764,-124.2787672814366,179.38754695696625,0,1.5205678939819336,2019-08-07 14:30:58:551
0.014821105636656284,0.12177062779664993,9.853360176086426,-0.0018580084299534227,-0.004884098039367014,-0.010968509829762562,-125.39032890192607,179.38606863309298,0,1.5247225761413574,2019-08-07 14:30:58:556
0.07229509949684143,0.14092862606048584,9.82222843170166,-0.0037226765831523197,0.00017714346610147965,-0.0051081250227996205,-126.47411847439614,179.38254457700143,0,1.527773380279541,2019-08-07 14:30:58:559
0.02918960340321064,0.10500738024711609,9.779123306274414,-0.004521819705845669,-0.00435133604426289,-0.00617364953315652,-127.54048817333336,179.38334542963617,0,1.5307509899139404,2019-08-07 14:30:58:562
0.05792659893631935,0.1169811263680458,9.795886039733887,-0.006120106991529666,-0.0054168602945454634,-0.004841743895210396,-128.58163577811973,179.38342572828668,0,1.5349149703979492,2019-08-07 14:30:58:566
0.0675055980682373,0.08824413269758224,9.688122749328613,-0.004788200833434893,-0.003285811533905992,-0.00963660471196509,-129.60132618805414,179.38632895135243,0,1.538667917251587,2019-08-07 14:30:58:569
0.03397910296916962,0.10979688167572021,9.774333953857422,-0.0077183937570650145,-0.003019430146242442,-0.008837460809048764,-130.60478702703682,179.38708298395744,0,1.5417883396148682,2019-08-07 14:30:58:573
0.012426355853676796,0.13853387534618378,9.736018180847168,-0.005587344736351217,-0.0008883811255286454,-0.010169366967143538,-131.5910537780516,179.38413747250982,0,1.5452954769134521,2019-08-07 14:30:58:576
0.04355810210108757,0.0451386384665966,9.795886039733887,-0.008783917747273263,-0.004084954916673665,-0.011234891477500435,-132.55360437147044,179.39232052524025,0,1.547619104385376,2019-08-07 14:30:58:578
0.031584352254867554,0.1169811263680458,9.79349136352539,-0.005054581961024118,-0.0038185737890844406,-0.010702129222321988,-133.498349813065,179.39143150916124,0,1.5498898029327393,2019-08-07 14:30:58:581
0.0076368567533791065,0.13853387534618378,9.862939834594727,-0.0077183937570650145,-0.0014211433807070943,-0.008837460809048764,-134.42720896166216,179.3890649419834,0,1.553481101989746,2019-08-07 14:30:58:584
0.08905834704637527,0.09303363412618637,9.762359619140625,-0.005054581961024118,-0.0064823853250510115,-0.00857107968145954,-135.32680980415614,179.39145640698757,0,1.5573315620422363,2019-08-07 14:30:58:588
0.005242106970399618,0.10979688167572021,9.870123863220215,-0.007452012629475789,-0.0064823853250510115,-0.00857107968145954,-136.2187530231657,179.39192884326562,0,1.5598371028900146,2019-08-07 14:30:58:591
0.031584352254867554,0.07387563586235046,9.855754852294922,-0.0039890577107415445,-0.0038185737890844406,-0.010968509829762562,-137.08981003262429,179.3964366646116,0,1.5640144348144531,2019-08-07 14:30:58:595
0.03876860439777374,0.15290237963199615,9.858149528503418,-0.004521819705845669,-0.0064823853250510115,-0.010968509829762562,-137.9420959728401,179.39172044825648,0,1.567892074584961,2019-08-07 14:30:58:599
0.03876860439777374,0.14811287820339203,9.834202766418457,-0.006386488119118891,-0.004884098039367014,-0.009103842456786639,-138.77765941825263,179.3880372783329,0,1.5718200206756592,2019-08-07 14:30:58:603
0.0028473574202507734,0.12656012177467346,9.76954460144043,-0.006386488119118891,-0.0035521926614952163,-0.010435747574584113,-139.60107344678997,179.38668891286676,0,1.5753235816955566,2019-08-07 14:30:58:606
0.03397910296916962,0.11937587708234787,9.726438522338867,-0.008517537139832687,-0.004084954916673665,-0.009103842456786639,-140.4044509355347,179.3861381594647,0,1.577929973602295,2019-08-07 14:30:58:609
0.07229509949684143,0.09303363412618637,9.90125560760498,-0.005587344736351217,-0.0022202867634747683,-0.008837460809048764,-141.1877124873997,179.3883595608018,0,1.5801963806152344,2019-08-07 14:30:58:611
0.00045260769547894597,0.1169811263680458,9.786307334899902,-0.004788200833434893,-0.0035521926614952163,-0.006706411788334968,-141.96320648443083,179.38783715338744,0,1.5836997032165527,2019-08-07 14:30:58:614
0.053137101233005524,0.12177062779664993,9.74080753326416,-0.009316680002451712,-0.006748766452640236,-0.010968509829762562,-142.7164007247071,179.38753765456332,0,1.5871055126190186,2019-08-07 14:30:58:618
0.05553185194730759,0.16727086901664734,9.774333953857422,-0.0077183937570650145,-0.00435133604426289,-0.009902985319405663,-143.454942054781,179.38127878049286,0,1.589644432067871,2019-08-07 14:30:58:620
-0.013915890827775002,0.06429663300514221,9.800676345825195,-0.005320963088613342,-0.006748766452640236,-0.007239174043513418,-136.98601525102467,179.38728281752637,0,1.5934841632843018,2019-08-07 14:30:58:624
0.10103209316730499,0.14092862606048584,9.836597442626953,-0.007984774884654239,-0.0046177169117777896,-0.013365940498214234,-137.833647734376,179.38463878249348,0,1.596869945526123,2019-08-07 14:30:58:628
0.0675055980682373,0.09542837738990784,9.855754852294922,-0.006652869246708115,-0.0064823853250510115,-0.015763370126368605,-138.66806626185615,179.38693874984605,0,1.5997817516326904,2019-08-07 14:30:58:631
0.010031606070697308,0.11937587708234787,9.85096549987793,-0.006652869246708115,-0.00435133604426289,-0.008837460809048764,-139.492506014554,179.38689207287078,0,1.6040055751800537,2019-08-07 14:30:58:635
0.05074235051870346,0.07387563586235046,9.755175590515137,-0.009849443297927462,-0.003285811533905992,-0.011767653732678886,-140.2959710717527,179.39264755867097,0,1.60793137550354,2019-08-07 14:30:58:639
0.0028473574202507734,0.12656012177467346,9.764754295349121,-0.004521819705845669,-0.006748766452640236,-0.00963660471196509,-141.08877961555908,179.39057173517975,0,1.6104063987731934,2019-08-07 14:30:58:641
-0.0019421420292928815,0.12895487248897552,9.83899211883545,-0.0077183937570650145,-0.0038185737890844406,-0.010169366967143538,-134.6664578476853,179.38930337797308,0,1.6140086650848389,2019-08-07 14:30:58:645
0.0076368567533791065,0.14571812748908997,9.7982816696167,-0.007185631501886564,-0.003019430146242442,-0.010435747574584113,-135.5715302384412,179.38615524559694,0,1.618168830871582,2019-08-07 14:30:58:649
0.017215855419635773,0.10261262953281403,9.7982816696167,-0.005320963088613342,-0.006216004197461787,-0.008038317426281092,-136.45715355947962,179.38723033921082,0,1.6208410263061523,2019-08-07 14:30:58:652
0.04116335138678551,0.1505076289176941,9.795886039733887,-0.0031899140678995457,-0.003285811533905992,-0.009370223064227214,-137.3224266164465,179.3826270535644,0,1.625007152557373,2019-08-07 14:30:58:656
0.04595285281538963,0.15290237963199615,9.704886436462402,-0.0077183937570650145,-0.0046177169117777896,-0.008837460809048764,-138.16957750189212,179.37855104635386,0,1.6287662982940674,2019-08-07 14:30:58:660
0.0938478484749794,0.11937587708234787,9.75278091430664,-0.004521819705845669,-0.0064823853250510115,-0.009370223064227214,-138.9940355330958,179.37773854417355,0,1.6318542957305908,2019-08-07 14:30:58:663
0.026794854551553726,0.09542837738990784,9.846176147460938,-0.006919250374297341,-8.92376858697129e-05,-0.00857107968145954,-139.81101877012046,179.38044473942327,0,1.6353721618652344,2019-08-07 14:30:58:666
0.12258484214544296,0.1361391246318817,9.867729187011719,-0.007452012629475789,-0.007015147580229461,-0.011234891477500435,-140.5995435621249,179.37811094735196,0,1.6379618644714355,2019-08-07 14:30:58:669
0.005242106970399618,0.1361391246318817,9.759964942932129,-0.008783917747273263,-0.003285811533905992,-0.013099558850476358,-141.38651695750116,179.37568916885687,0,1.6402397155761719,2019-08-07 14:30:58:671
0.07229509949684143,0.10500738024711609,9.726438522338867,-0.008251156012243464,-0.003285811533905992,-0.008038317426281092,-142.149625251279,179.37742193345753,0,1.643730878829956,2019-08-07 14:30:58:675
0.019610606133937836,0.1696656197309494,9.759964942932129,-0.004521819705845669,-0.004084954916673665,-0.00963660471196509,-142.9035554261116,179.3708128050909,0,1.647109031677246,2019-08-07 14:30:58:678
0.05792659893631935,0.1169811263680458,9.75278091430664,-0.01038220555310591,-0.004884098039367014,-0.00857107968145954,-143.63798169859896,179.37113300254572,0,1.649648904800415,2019-08-07 14:30:58:680
0.05074235051870346,0.1169811263680458,9.767149925231934,-0.008517537139832687,-0.0027530490186532175,-0.0077719362986918665,-144.35867403974922,179.37182663215512,0,1.6534967422485352,2019-08-07 14:30:58:684
0.06511084735393524,0.1361391246318817,9.843781471252441,-0.006120106991529666,-0.0054168602945454634,-0.00857107968145954,-145.06288789505535,179.36971049233128,0,1.6568937301635742,2019-08-07 14:30:58:688
0.08666359633207321,0.12656012177467346,9.738412857055664,-0.005320963088613342,-0.005150479166956239,-0.006972792915924193,-145.75052948216123,179.36835798373096,0,1.6600170135498047,2019-08-07 14:30:58:691
0.10103209316730499,0.16727086901664734,9.853360176086426,-0.006652869246708115,-0.0038185737890844406,-0.012300415987857336,-146.42286751972244,179.36311121041578,0,1.6642241477966309,2019-08-07 14:30:58:695
0.09624259918928146,0.12895487248897552,9.827017784118652,-0.008251156012243464,-0.008080672090586358,-0.010435747574584113,-147.0815337740053,179.36250151936963,0,1.6678695678710938,2019-08-07 14:30:58:699
0.053137101233005524,0.13374437391757965,9.896466255187988,-0.007185631501886564,-0.0056832419422833385,-0.011234891477500435,-147.733005696689,179.3607076791315,0,1.6702032089233398,2019-08-07 14:30:58:701
0.09624259918928146,0.09063888341188431,9.733622550964355,-0.009316680002451712,-0.0027530490186532175,-0.009370223064227214,-148.3664275159268,179.36481311097126,0,1.6740071773529053,2019-08-07 14:30:58:705
0.031584352254867554,0.11219162493944168,9.853360176086426,-0.00425543883833077,-0.0024866678910639927,-0.00617364953315652,-148.99485187145186,179.3654520606397,0,1.6781177520751953,2019-08-07 14:30:58:709
0.07229509949684143,0.08105988055467606,9.759964942932129,-0.0077183937570650145,-0.0035521926614952163,-0.009902985319405663,-149.60592277251862,179.3698081828148,0,1.6808454990386963,2019-08-07 14:30:58:712
0.05074235051870346,0.10500738024711609,9.805465698242188,-0.00425543883833077,-0.00435133604426289,-0.00963660471196509,-150.20701491485966,179.37098131255232,0,1.6843631267547607,2019-08-07 14:30:58:715
0.02918960340321064,0.11219162493944168,9.800676345825195,-0.008251156012243464,-0.0011547622531178697,-0.008038317426281092,-150.79925833853545,179.3718977866013,0,1.687499761581421,2019-08-07 14:30:58:718
0.09863734245300293,0.08105988055467606,9.764754295349121,-0.004521819705845669,-0.00435133604426289,-0.006706411788334968,-151.37112720924767,179.37554091091948,0,1.6898369789123535,2019-08-07 14:30:58:721
0.07947934418916702,0.18642887473106384,9.805465698242188,-0.006120106991529666,-0.005949623069872562,-0.007239174043513418,-151.93320068001395,179.36749638537913,0,1.6934764385223389,2019-08-07 14:30:58:724
0.05074235051870346,0.10979688167572021,9.894071578979492,-0.006652869246708115,-0.00435133604426289,-0.007505555171102641,-152.4878994554461,179.36859302052054,0,1.6965885162353516,2019-08-07 14:30:58:727
0.07229509949684143,0.16008661687374115,9.7982816696167,-0.005587344736351217,-0.005150479166956239,-0.009103842456786639,-153.02881188653797,179.36344956048328,0,1.699613332748413,2019-08-07 14:30:58:730
0.09145309776067734,0.10740213096141815,9.82222843170166,-0.005320963088613342,-0.001687524508296319,-0.00963660471196509,-153.55725673917962,179.3646277541671,0,1.7028827667236328,2019-08-07 14:30:58:734
0.0675055980682373,0.10740213096141815,9.803071022033691,-0.006652869246708115,-0.001687524508296319,-0.006440030660745744,-154.07780375080455,179.36642510270667,0,1.7072837352752686,2019-08-07 14:30:58:738
0.11300584673881531,0.12656012177467346,9.805465698242188,-0.005320963088613342,-0.007547909835407911,-0.010435747574584113,-154.5819648946918,179.36506617280878,0,1.709824800491333,2019-08-07 14:30:58:741
0.09863734245300293,0.07627038657665253,9.805465698242188,-0.006386488119118891,-0.0024866678910639927,-0.008304698553870315,-155.0782878077221,179.37016389967764,0,1.7134840488433838,2019-08-07 14:30:58:744
-0.013915890827775002,0.124165378510952,9.788702011108398,-0.005320963088613342,-0.0054168602945454634,-0.006706411788334968,-148.37740506652514,179.36915526710334,0,1.7165944576263428,2019-08-07 14:30:58:747
0.04355810210108757,0.1313496232032776,9.714465141296387,-0.006919250374297341,-0.006216004197461787,-0.009103842456786639,-149.0036787974333,179.36743691324668,0,1.7195744514465332,2019-08-07 14:30:58:750
0.0675055980682373,0.11458637565374374,9.779123306274414,-0.0039890577107415445,-0.0038185737890844406,-0.005640887277978069,-149.61499466175385,179.36739324580049,0,1.7228410243988037,2019-08-07 14:30:58:754
0.02200535498559475,0.14092862606048584,9.762359619140625,-0.006652869246708115,-0.004084954916673665,-0.010169366967143538,-150.219106852459,179.3651408094632,0,1.727222204208374,2019-08-07 14:30:58:758
0.04116335138678551,0.08584938198328018,9.8797025680542,-0.0021243895575426474,-0.003285811533905992,-0.009370223064227214,-150.8093465160958,179.36827123431817,0,1.7304949760437012,2019-08-07 14:30:58:761
0.00045260769547894597,0.124165378510952,9.774333953857422,-0.005853725863940442,-0.0064823853250510115,-0.005907268405567294,-151.39200996113212,179.36734000864405,0,1.7335076332092285,2019-08-07 14:30:58:764
0.02918960340321064,0.13374437391757965,9.75278091430664,-0.00425543883833077,-0.004884098039367014,-0.00857107968145954,-151.9598816721192,179.36502766211683,0,1.736637830734253,2019-08-07 14:30:58:767
0.06511084735393524,0.124165378510952,9.759964942932129,-0.0031899140678995457,-0.00435133604426289,-0.005907268405567294,-152.5123101841024,179.36368431541254,0,1.7396228313446045,2019-08-07 14:30:58:770
0.06990034878253937,0.1361391246318817,9.934782028198242,-0.006120106991529666,-0.005150479166956239,-0.008837460809048764,-153.05305602498507,179.36183232550945,0,1.7428922653198242,2019-08-07 14:30:58:774
0.08426884561777115,0.07627038657665253,9.745596885681152,-0.006652869246708115,-0.0046177169117777896,-0.00617364953315652,-153.58094881245162,179.36726697478244,0,1.7472803592681885,2019-08-07 14:30:58:778
0.02200535498559475,0.11219162493944168,9.855754852294922,-0.007185631501886564,-0.0046177169117777896,-0.004308981379957623,-154.10592557260082,179.36819387430097,0,1.750542163848877,2019-08-07 14:30:58:781
0.09624259918928146,0.1624813675880432,9.872518539428711,-0.002390770685131872,-0.0011547622531178697,-0.006440030660745744,-154.612440689598,179.3623775071085,0,1.7535607814788818,2019-08-07 14:30:58:784
0.053137101233005524,0.06908613443374634,9.78151798248291,-0.008517537139832687,-0.00435133604426289,-0.008038317426281092,-155.11319141551448,179.3685544853489,0,1.7567346096038818,2019-08-07 14:30:58:788
0.05553185194730759,0.10261262953281403,9.85096549987793,-0.005587344736351217,-0.0038185737890844406,-0.007239174043513418,-155.60377645375655,179.3702591198012,0,1.7599594593048096,2019-08-07 14:30:58:791
0.04116335138678551,0.06908613443374634,9.7982816696167,-0.006120106991529666,-0.007547909835407911,-0.007505555171102641,-156.08539322202014,179.3759855045168,0,1.7634837627410889,2019-08-07 14:30:58:794
0.06511084735393524,0.1169811263680458,9.783912658691406,-0.005853725863940442,-0.0014211433807070943,-0.0077719362986918665,-156.55581132841502,179.3757876814424,0,1.7665941715240479,2019-08-07 14:30:58:797
0.03637385368347168,0.12177062779664993,9.757570266723633,-0.00425543883833077,-0.003019430146242442,-0.00617364953315652,-157.01991609459873,179.3746871045708,0,1.7695865631103516,2019-08-07 14:30:58:800
0.00045260769547894597,0.0978231281042099,9.79349136352539,-0.0077183937570650145,-0.0035521926614952163,-0.006972792915924193,-157.47881261354206,179.37716480305625,0,1.7728564739227295,2019-08-07 14:30:58:804
-0.045047637075185776,0.09303363412618637,9.7982816696167,-0.00425543883833077,-0.0011547622531178697,-0.007505555171102641,-150.73422019890904,179.37978981865672,0,1.7772438526153564,2019-08-07 14:30:58:808
0.05553185194730759,0.16008661687374115,9.73122787475586,-0.0031899140678995457,-0.009146196080794608,-0.007505555171102641,-151.3113297067813,179.37392584990482,0,1.7804896831512451,2019-08-07 14:30:58:811
0.012426355853676796,0.09303363412618637,9.783912658691406,-0.0037226765831523197,-0.0011547622531178697,-0.009103842456786639,-151.88345233764386,179.37618116505345,0,1.7835028171539307,2019-08-07 14:30:58:814
0.019610606133937836,0.1169811263680458,9.738412857055664,-0.007185631501886564,-0.00435133604426289,-0.00857107968145954,-152.4427151817953,179.37614900161503,0,1.7866156101226807,2019-08-07 14:30:58:817
-0.009126391261816025,0.10979688167572021,9.800676345825195,-0.006919250374297341,-0.0056832419422833385,-0.007239174043513418,-145.79396147823397,179.3769655459696,0,1.7896442413330078,2019-08-07 14:30:58:820
0.08426884561777115,0.13374437391757965,9.805465698242188,-0.0039890577107415445,-0.0022202867634747683,-0.005640887277978069,-146.4678266688053,179.37452974147155,0,1.792914867401123,2019-08-07 14:30:58:824
0.04355810210108757,0.1505076289176941,9.86054515838623,-0.006652869246708115,-0.0027530490186532175,-0.007505555171102641,-147.1327284590525,179.3711922736501,0,1.7973120212554932,2019-08-07 14:30:58:828
0.0028473574202507734,0.11458637565374374,9.750386238098145,-0.006652869246708115,-0.0038185737890844406,-0.010435747574584113,-147.7891963604455,179.3712481173636,0,1.7998440265655518,2019-08-07 14:30:58:831
0.06990034878253937,0.1313496232032776,9.807860374450684,-0.00425543883833077,-0.003019430146242442,-0.009370223064227214,-148.4246235740488,179.36935439061176,0,1.8035132884979248,2019-08-07 14:30:58:834
0.06271609663963318,0.09542837738990784,9.76954460144043,-0.005853725863940442,-0.0054168602945454634,-0.006706411788334968,-149.04781677960366,179.3718098524237,0,1.8066635131835938,2019-08-07 14:30:58:837
0.08905834704637527,0.11937587708234787,9.858149528503418,-0.006120106991529666,-0.007015147580229461,-0.01150127208494101,-149.65533294194657,179.37152364090815,0,1.809648036956787,2019-08-07 14:30:58:840
0.0675055980682373,0.12656012177467346,9.719254493713379,-0.006386488119118891,-0.003019430146242442,-0.009370223064227214,-150.25371390018097,179.37034308189965,0,1.8129127025604248,2019-08-07 14:30:58:844
0.00045260769547894597,0.0714808851480484,9.817439079284668,-0.0039890577107415445,-0.0038185737890844406,-0.006706411788334968,-150.84764679998545,179.37557490289507,0,1.8172967433929443,2019-08-07 14:30:58:848
-0.05941613391041756,0.11937587708234787,9.771939277648926,-0.004788200833434893,-0.004884098039367014,-0.013365940498214234,-144.23696538196572,179.3747475985921,0,1.8198342323303223,2019-08-07 14:30:58:851
0.05074235051870346,0.1624813675880432,9.843781471252441,-0.005320963088613342,-0.004884098039367014,-0.004841743895210396,-144.94532261771388,179.3694256196685,0,1.8234682083129883,2019-08-07 14:30:58:854
0.10103209316730499,0.14092862606048584,9.85096549987793,-0.007984774884654239,-0.0014211433807070943,-0.007239174043513418,-145.6344153594737,179.36704166581916,0,1.8265841007232666,2019-08-07 14:30:58:857
0.06511084735393524,0.16008661687374115,9.927597999572754,-0.008517537139832687,-0.004084954916673665,-0.011234891477500435,-146.31353179079008,179.36264152562305,0,1.8295478820800781,2019-08-07 14:30:58:860
0.0746898502111435,0.07627038657665253,9.736018180847168,-0.0077183937570650145,-0.0046177169117777896,-0.006972792915924193,-146.9774613796267,179.36809857600412,0,1.833439588546753,2019-08-07 14:30:58:864
0.06990034878253937,0.10261262953281403,9.817439079284668,-0.005054581961024118,-0.0019539056358855436,-0.005907268405567294,-147.629278621328,179.36998792283535,0,1.8377666473388672,2019-08-07 14:30:58:869
0.0076368567533791065,0.10500738024711609,9.791096687316895,-0.002390770685131872,-0.0024866678910639927,-0.010435747574584113,-148.27544845397307,179.37063621591798,0,1.8402791023254395,2019-08-07 14:30:58:871
0.04355810210108757,0.07866512984037399,9.882097244262695,-0.007452012629475789,-0.004084954916673665,-0.009103842456786639,-148.90402792667206,179.3756718189442,0,1.8440313339233398,2019-08-07 14:30:58:875
0.05074235051870346,0.12895487248897552,9.78151798248291,-0.005054581961024118,-0.004884098039367014,-0.004841743895210396,-149.51913315793388,179.3739521530363,0,1.8472027778625488,2019-08-07 14:30:58:878
0.09145309776067734,0.13853387534618378,9.815044403076172,-0.007185631501886564,-0.0035521926614952163,-0.00857107968145954,-150.11748276074246,179.37149535482035,0,1.8501648902893066,2019-08-07 14:30:58:881
0.026794854551553726,0.11937587708234787,9.728833198547363,-0.0026571518127210965,-0.0014211433807070943,-0.010169366967143538,-150.7117101458701,179.37050447621937,0,1.8535099029541016,2019-08-07 14:30:58:884
0.053137101233005524,0.12895487248897552,9.709675788879395,-0.005054581961024118,-0.004084954916673665,-0.010702129222321988,-151.29049045845534,179.36876029341357,0,1.8566246032714844,2019-08-07 14:30:58:887
0.07708460092544556,0.14571812748908997,9.757570266723633,-0.006652869246708115,-0.007015147580229461,-0.0077719362986918665,-151.8544487692345,179.36539187806466,0,1.8596186637878418,2019-08-07 14:30:58:890
0.06511084735393524,0.16487611830234528,9.791096687316895,-0.00425543883833077,-0.0027530490186532175,-0.009370223064227214,-152.40914158004352,179.35971365239777,0,1.8634870052337646,2019-08-07 14:30:58:894
0.02918960340321064,0.07866512984037399,9.824623107910156,-0.005853725863940442,-0.0022202867634747683,-0.00857107968145954,-152.9571654752899,179.36436907931923,0,1.8666048049926758,2019-08-07 14:30:58:897
0.06511084735393524,0.15290237963199615,9.74080753326416,-0.0029235329403103213,-0.001687524508296319,-0.009902985319405663,-153.49008106177044,179.35958336488596,0,1.8695759773254395,2019-08-07 14:30:58:900
0.03637385368347168,0.1361391246318817,9.764754295349121,-0.005587344736351217,-0.0014211433807070943,-0.008038317426281092,-154.0156980211975,179.3576466442006,0,1.8734970092773438,2019-08-07 14:30:58:904
0.05074235051870346,0.07866512984037399,9.85096549987793,-0.005587344736351217,-0.0027530490186532175,-0.009902985319405663,-154.52899928075342,179.36232183508184,0,1.8766164779663086,2019-08-07 14:30:58:907
0.07229509949684143,0.11219162493944168,9.815044403076172,-0.005320963088613342,-0.004884098039367014,-0.012034034340119461,-155.02914370900208,179.36288741770028,0,1.879662036895752,2019-08-07 14:30:58:910
0.03876860439777374,0.16727086901664734,9.764754295349121,-0.0034562954555630953,-0.004884098039367014,-0.006706411788334968,-155.5229619250496,179.35674456879974,0,1.883488416671753,2019-08-07 14:30:58:914
0.03397910296916962,0.08105988055467606,9.788702011108398,-0.006386488119118891,0.0007099057700438648,-0.006972792915924193,-156.0086493467252,179.3612398508759,0,1.8866095542907715,2019-08-07 14:30:58:917
0.16090083122253418,0.10500738024711609,9.827017784118652,-0.005320963088613342,-0.0014211433807070943,-0.00617364953315652,-156.46947183386217,179.3626834515107,0,1.8896644115447998,2019-08-07 14:30:58:920
0.08426884561777115,0.10979688167572021,9.865334510803223,-0.006652869246708115,-0.0038185737890844406,-0.010968509829762562,-156.92947037150626,179.36411228597117,0,1.8935072422027588,2019-08-07 14:30:58:924
0.026794854551553726,0.1576918661594391,9.805465698242188,-0.007452012629475789,-0.003285811533905992,-0.010702129222321988,-157.38717176893493,179.35971343666245,0,1.896639108657837,2019-08-07 14:30:58:927
0.08187409490346909,0.10979688167572021,9.81025505065918,-0.005320963088613342,-0.0046177169117777896,-0.00963660471196509,-157.8290703394886,179.36061025247207,0,1.8997039794921875,2019-08-07 14:30:58:930
-0.004336891695857048,0.15529713034629822,9.86054515838623,-0.004521819705845669,-0.0064823853250510115,-0.009103842456786639,-151.07155219753588,179.35635711073414,0,1.9036622047424316,2019-08-07 14:30:58:934
0.06271609663963318,0.14811287820339203,9.834202766418457,-0.006386488119118891,-0.005949623069872562,-0.011767653732678886,-151.64180149836457,179.35305879834726,0,1.906691074371338,2019-08-07 14:30:58:937
0.0028473574202507734,0.124165378510952,9.771939277648926,-0.0077183937570650145,-0.004084954916673665,-0.00857107968145954,-152.20793962855856,179.352745439059,0,1.90970778465271,2019-08-07 14:30:58:940
0.0028473574202507734,0.09542837738990784,9.803071022033691,-0.005320963088613342,-0.0038185737890844406,-0.010968509829762562,-152.76263181801855,179.35567322293716,0,1.9135143756866455,2019-08-07 14:30:58:944
0.026794854551553726,0.11458637565374374,9.755175590515137,-0.004788200833434893,-0.0014211433807070943,-0.010435747574584113,-153.30398085861566,179.3559452446425,0,1.9166574478149414,2019-08-07 14:30:58:947
0.014821105636656284,0.1696656197309494,9.736018180847168,-0.0026571518127210965,-0.00435133604426289,-0.008837460809048764,-153.83542651327753,179.34930491999324,0,1.9196465015411377,2019-08-07 14:30:58:950
