ACCELEROMETER X (m/s²),ACCELEROMETER Y (m/s²),ACCELEROMETER Z (m/s²),GYROSCOPE X (rad/s),GYROSCOPE Y (rad/s),GYROSCOPE Z (rad/s),Time since start in ms ,YYYY-MO-DD HH-MI-SS_SSS,Pitch (Deg),Roll (Deg),Heading (Deg),MagX,MagY,MagZ
0.21974942088127136,-0.05871926248073578,9.824233055114746,0.0010255674062370958,0.0031851193376401022,-0.0027208169672335025,0.0,2019-08-06 13:46:48:009,-3.5743723197907666,-3.5931509648946007,0,-53.67814254760742,26.08937644958496,-36.88498306274414
0.24609166383743286,-0.08266676217317581,9.840996742248535,-0.0008391006169246387,0.005582549485943123,0.003938711482571438,0.010022878646850586,2019-08-06 13:46:48:019,-7.077376948010478,-7.111189971008864,0,-53.67814254760742,26.08937644958496,-36.88498306274414
0.24130216240882874,-0.08266676217317581,9.824233055114746,0.0002264239747054862,0.006648073996300022,-0.001655292456876604,0.020030736923217773,2019-08-06 13:46:48:029,-10.511424982019058,-10.559451241236435,0,-53.67814254760742,26.08937644958496,-36.88498306274414
0.22932840883731842,-0.08027201145887375,9.80986499786377,-0.0008391006169246387,0.004517024975586225,-0.001655292456876604,0.03001713752746582,2019-08-06 13:46:48:039,-13.876945772948112,-13.938415132218353,0,-53.67814254760742,26.08937644958496,-36.88498306274414
0.23890741169452667,-0.10421950370073318,9.788311958312988,-0.002970149702657017,0.0007876890592999184,-0.002987198094822727,0.03999519348144531,2019-08-06 13:46:48:049,-17.171884885510487,-17.24578226023118,0,-53.67814254760742,26.08937644958496,-36.88498306274414
0.2628549039363861,-0.08745625615119934,9.838602066040039,-0.0011054818095324445,0.0018532135696568165,0.0007421378864821609,0.04999876022338867,2019-08-06 13:46:48:059,-20.39888034267381,-20.49005978426113,0,-53.67814254760742,26.08937644958496,-36.88498306274414
0.26046016812324524,-0.03237701579928398,9.817049026489258,-0.0024373874474785677,0.0034515004652293266,-0.001655292456876604,0.05999565124511719,2019-08-06 13:46:48:069,-23.56244451861056,-23.675111163115215,0,-53.67814254760742,26.08937644958496,-36.88498306274414
0.2700391709804535,-0.03956126421689987,9.814654350280762,-0.0016382440647108938,0.010377409782549165,-0.004052722605179625,0.07002067565917969,2019-08-06 13:46:48:079,-26.665516485349197,-26.796067793066864,0,-53.67814254760742,26.08937644958496,-36.88498306274414
0.2772234082221985,-0.07548251003026962,9.7811279296875,0.0007591862786478714,0.006648073996300022,0.0028731869722145387,0.07999300956726074,2019-08-06 13:46:48:089,-29.70345908290684,-29.851728503747793,0,-53.67814254760742,26.08937644958496,-36.88498306274414
0.29159191250801086,-0.08506150543689728,9.795495986938477,-3.9957173202045016e-05,0.0034515004652293266,0.00047575672638364575,0.09002256393432617,2019-08-06 13:46:48:099,-32.67723214506985,-32.84472085261008,0,-53.67814254760742,26.08937644958496,-36.88498306274414
0.2700391709804535,-0.09224575757980347,9.785917282104492,-0.0016382440647108938,0.009045504664751694,-0.0005897678815011245,0.09999752044677734,2019-08-06 13:46:48:109,-35.59714067945025,-35.77610735357795,0,-53.07838821411133,27.88864517211914,-37.484737396240234
0.23411791026592255,-0.08745625615119934,9.745206832885742,-3.9957173202045016e-05,0.00824636128198402,-0.005118247115536523,0.1100001335144043,2019-08-06 13:46:48:119,-38.462305325010384,-38.650279268580846,0,-53.07838821411133,27.88864517211914,-37.484737396240234
0.2436969131231308,-0.04674551263451576,9.836206436157227,-0.0008391006169246387,0.006914455123889247,0.0010085190140713856,0.12003159523010254,2019-08-06 13:46:48:129,-41.26856906791104,-41.47135524748859,0,-53.07838821411133,27.88864517211914,-37.484737396240234
0.27961814403533936,-0.044350765645504,9.83381175994873,-0.0019046251923001184,0.0039842627204077765,0.00020937558253977584,0.13000774383544922,2019-08-06 13:46:48:139,-44.01285490936063,-44.2356931725876,0,-53.07838821411133,27.88864517211914,-37.484737396240234
0.2556706666946411,-0.03716651350259781,9.749996185302734,-0.004568436468192365,0.0015868324420675922,-0.0019216735844658289,0.14001798629760742,2019-08-06 13:46:48:149,-46.70344767754921,-46.94404335730559,0,-53.07838821411133,27.88864517211914,-37.484737396240234
0.24609166383743286,-0.034771766513586044,9.819443702697754,-3.9957173202045016e-05,0.00718083625147847,-0.0032535792224119516,0.1499943733215332,2019-08-06 13:46:48:159,-49.34468868419075,-49.60108230681672,0,-53.07838821411133,27.88864517211914,-37.484737396240234
0.2748286724090576,-0.09703525900840759,9.826627731323242,-0.0003063383292368989,0.0034515004652293266,-0.0027208169672335025,0.16001558303833008,2019-08-06 13:46:48:169,-51.927696704684216,-52.197573052291354,0,-53.07838821411133,27.88864517211914,-37.484737396240234
0.26764440536499023,-0.05392976477742195,9.852970123291016,0.0015583297264341264,0.007979980154394795,0.00047575672638364575,0.1699991226196289,2019-08-06 13:46:48:179,-54.462496339463776,-54.74822309896526,0,-53.07838821411133,27.88864517211914,-37.484737396240234
0.27243390679359436,-0.07308775931596756,9.80986499786377,-0.004834817595781589,0.007713599026805571,-0.003786341477590401,0.18002033233642578,2019-08-06 13:46:48:189,-56.94577124575795,-57.24200072419361,0,-53.07838821411133,27.88864517211914,-37.484737396240234
0.29159191250801086,-0.07548251003026962,9.802680015563965,0.0023574731092018,0.0074472173790676955,0.0023404247170360896,0.18999505043029785,2019-08-06 13:46:48:199,-59.37695033172515,-59.68965748632909,0,-53.07838821411133,27.88864517211914,-37.484737396240234
0.2628549039363861,-0.10900900512933731,9.840996742248535,-0.0008391006169246387,0.0039842627204077765,0.00020937558253977584,0.2000110149383545,2019-08-06 13:46:48:209,-61.76105170598874,-62.08269960960754,0,-53.07838821411133,27.88864517211914,-37.484737396240234
0.24609166383743286,-0.0706930086016655,9.817049026489258,0.0020910919816125757,0.006381692868710797,-0.0021880547120550534,0.21002960205078125,2019-08-06 13:46:48:219,-64.10070109437393,-64.43397029838496,0,-53.07838821411133,27.88864517211914,-37.484737396240234
0.28680241107940674,-0.0706930086016655,9.864943504333496,-0.0061667232337277115,0.005582549485943123,-0.0003233867214026093,0.2200183868408203,2019-08-06 13:46:48:229,-66.38851245531339,-66.73362058288771,0,-53.67814254760742,25.789499282836914,-37.18486022949219
0.29398664832115173,-0.07787726074457169,9.773942947387695,-0.004568436468192365,0.0039842627204077765,-0.0013889113292873795,0.23001599311828613,2019-08-06 13:46:48:239,-68.62852166600074,-68.9872533300068,0,-53.67814254760742,25.789499282836914,-37.18486022949219
0.27961814403533936,-0.06590351462364197,9.812259674072266,0.003689378747147923,0.0023859759548724283,0.0012749002066791914,0.23999810218811035,2019-08-06 13:46:48:249,-70.82464244904955,-71.20187977356832,0,-53.67814254760742,25.789499282836914,-37.18486022949219
0.22693365812301636,-0.0706930086016655,9.728443145751953,-0.0005727194893354142,0.0026523570824616527,-0.0021880547120550534,0.2499837875366211,2019-08-06 13:46:48:259,-72.9829110413093,-73.36919425778197,0,-53.67814254760742,25.789499282836914,-37.18486022949219
0.2700391709804535,-0.06590351462364197,9.80986499786377,-0.002703768575067792,0.003717881592818551,0.00020937558253977584,0.2600228786468506,2019-08-06 13:46:48:269,-75.09381255953222,-75.49258803215697,0,-53.67814254760742,25.789499282836914,-37.18486022949219
0.22214417159557343,-0.06590351462364197,9.761969566345215,-0.003502911957835466,0.007713599026805571,-0.006450152753482647,0.269991397857666,2019-08-06 13:46:48:279,-77.17018180041369,-77.57303957071424,0,-53.67814254760742,25.789499282836914,-37.18486022949219
0.24130216240882874,-0.04674551263451576,9.776338577270508,-0.0011054818095324445,0.0023859759548724283,0.00047575672638364575,0.2800137996673584,2019-08-06 13:46:48:289,-79.19984283914332,-79.61547751448202,0,-53.67814254760742,25.789499282836914,-37.18486022949219
0.25327590107917786,-0.09464050829410553,9.783522605895996,-0.002703768575067792,0.003717881592818551,-0.0032535792224119516,0.2899961471557617,2019-08-06 13:46:48:299,-81.18827103644715,-81.61056785960815,0,-53.67814254760742,25.789499282836914,-37.18486022949219
0.2772234082221985,-0.056324511766433716,9.886496543884277,-3.9957173202045016e-05,0.009578266919930143,-0.0021880547120550534,0.3000209331512451,2019-08-06 13:46:48:309,-83.1377733737128,-83.57180566817513,0,-53.67814254760742,25.789499282836914,-37.18486022949219
0.29159191250801086,-0.027587516233325005,9.800285339355469,-0.0013718629371216693,0.005582549485943123,0.004471473997824211,0.30999135971069336,2019-08-06 13:46:48:319,-85.04405838884547,-85.49637582337017,0,-53.67814254760742,25.789499282836914,-37.18486022949219
0.24130216240882874,-0.027587516233325005,9.85057544708252,-0.0005727194893354142,0.005316168358353898,-0.005118247115536523,0.32001447677612305,2019-08-06 13:46:48:329,-86.91810412038926,-87.38291674009972,0,-53.67814254760742,25.789499282836914,-37.18486022949219
0.2772234082221985,-0.07308775931596756,9.817049026489258,-0.0008391006169246387,0.0039842627204077765,-0.0003233867214026093,0.33002662658691406,2019-08-06 13:46:48:339,-88.74963102922001,-89.22625551497313,0,-53.67814254760742,25.789499282836914,-37.18486022949219
0.2700391709804535,-0.0706930086016655,9.749996185302734,-0.006965867136644035,0.005848930613532348,-0.0021880547120550534,0.3399956226348877,2019-08-06 13:46:48:349,-90.54618284116206,-91.02952281329415,0,-53.67814254760742,25.789499282836914,-37.18486022949219
0.2700391709804535,-0.07308775931596756,9.773942947387695,-0.0011054818095324445,0.005049787230764674,0.00047575672638364575,0.3500199317932129,2019-08-06 13:46:48:359,-92.30644967366749,-92.79974133389125,0,-52.77851104736328,26.989011764526367,-36.28522491455078
0.29159191250801086,-0.03956126421689987,9.754785537719727,-0.0037692930854246903,0.0074472173790676955,-0.0003233867214026093,0.3600187301635742,2019-08-06 13:46:48:369,-94.03025804943195,-94.53698298746997,0,-52.77851104736328,26.989011764526367,-36.28522491455078
0.27243390679359436,-0.041956014931201935,9.788311958312988,-0.005367579850960038,0.006115311741121573,-5.7005565367755386e-05,0.3699972629547119,2019-08-06 13:46:48:379,-95.72119370880809,-96.2383241572903,0,-52.77851104736328,26.989011764526367,-36.28522491455078
0.24609166383743286,-0.04674551263451576,9.761969566345215,-0.0011054818095324445,0.005848930613532348,-0.0005897678815011245,0.3800215721130371,2019-08-06 13:46:48:389,-97.38118046062651,-97.90744822609146,0,-52.77851104736328,26.989011764526367,-36.28522491455078
0.23411791026592255,-0.015613768249750137,9.757180213928223,-0.0024373874474785677,0.0047834061031754496,0.00020937558253977584,0.39000701904296875,2019-08-06 13:46:48:399,-99.0087485100307,-99.54609893241377,0,-52.77851104736328,26.989011764526367,-36.28522491455078
0.26764440536499023,-0.09943000972270966,9.836206436157227,0.0007591862786478714,0.0034515004652293266,0.0023404247170360896,0.4000279903411865,2019-08-06 13:46:48:409,-100.59934280244637,-101.14402095305134,0,-52.77851104736328,26.989011764526367,-36.28522491455078
0.2700391709804535,-0.08266676217317581,9.797890663146973,-0.0024373874474785677,0.004250643847997001,-0.0013889113292873795,0.4101526737213135,2019-08-06 13:46:48:419,-102.15819790695834,-102.7100867907141,0,-52.77851104736328,26.989011764526367,-36.28522491455078
0.21974942088127136,-0.05871926248073578,9.80986499786377,-0.005900342106138487,0.007979980154394795,-0.0003233867214026093,0.42000842094421387,2019-08-06 13:46:48:429,-103.6937848574334,-104.24576074594057,0,-52.77851104736328,26.989011764526367,-36.28522491455078
0.26524966955184937,-0.08266676217317581,9.838602066040039,-0.0013718629371216693,0.006914455123889247,0.00047575672638364575,0.4300096035003662,2019-08-06 13:46:48:439,-105.19290556247968,-105.75044705520328,0,-52.77851104736328,26.989011764526367,-36.28522491455078
0.24848641455173492,-0.05153501406311989,9.817049026489258,-0.0024373874474785677,0.010910172037727614,0.0028731869722145387,0.44000840187072754,2019-08-06 13:46:48:449,-106.66617385713074,-107.22805421171914,0,-52.77851104736328,26.989011764526367,-36.28522491455078
0.23890741169452667,-0.03237701579928398,9.80986499786377,-0.003236530830246241,0.005049787230764674,0.0007421378864821609,0.4500243663787842,2019-08-06 13:46:48:459,-108.10778848076268,-108.67789088973345,0,-52.77851104736328,26.989011764526367,-36.28522491455078
0.24848641455173492,-0.034771766513586044,9.800285339355469,-0.0016382440647108938,0.006648073996300022,-0.003519960350001176,0.460007905960083,2019-08-06 13:46:48:469,-109.5203109641552,-110.09934898141229,0,-52.77851104736328,26.989011764526367,-36.28522491455078
0.19580191373825073,-0.05871926248073578,9.733232498168945,-0.005367579850960038,0.006648073996300022,0.0018076624618576407,0.4700148105621338,2019-08-06 13:46:48:479,-110.91059111121834,-111.48743296363017,0,-53.228328704833984,25.039804458618164,-36.735042572021484
0.24609166383743286,-0.06829825788736343,9.769153594970703,-0.002171006319889343,0.0034515004652293266,0.0007421378864821609,0.4799931049346924,2019-08-06 13:46:48:489,-112.26545280098935,-112.84845672091717,0,-53.228328704833984,25.039804458618164,-36.735042572021484
0.250881165266037,-0.06590351462364197,9.855364799499512,-0.0005727194893354142,0.0039842627204077765,-0.0027208169672335025,0.4900174140930176,2019-08-06 13:46:48:499,-113.5932218641139,-114.18350251995915,0,-53.228328704833984,25.039804458618164,-36.735042572021484
0.23890741169452667,-0.06590351462364197,9.790706634521484,-0.004035674213013915,0.0023859759548724283,-0.004585484860358075,0.5000205039978027,2019-08-06 13:46:48:509,-114.8947411120197,-115.48985243697597,0,-53.228328704833984,25.039804458618164,-36.735042572021484
0.2628549039363861,-0.01800851710140705,9.749996185302734,-0.0013718629371216693,0.004517024975586225,0.003405949227392988,0.5099921226501465,2019-08-06 13:46:48:519,-116.16848957862253,-116.77717073936809,0,-53.228328704833984,25.039804458618164,-36.735042572021484
0.2628549039363861,-0.056324511766433716,9.75239086151123,-0.0016382440647108938,0.005582549485943123,-0.0024544358396442778,0.5200159549713135,2019-08-06 13:46:48:529,-117.41738361555875,-118.03408714813658,0,-53.228328704833984,25.039804458618164,-36.735042572021484
0.2748286724090576,-0.034771766513586044,9.766758918762207,-0.007498629391822486,0.007979980154394795,-0.0027208169672335025,0.5300047397613525,2019-08-06 13:46:48:539,-118.64127503761426,-119.26511996789259,0,-53.228328704833984,25.039804458618164,-36.735042572021484
0.26046016812324524,-0.0635087639093399,9.7715482711792,-0.0013718629371216693,0.0039842627204077765,0.00020937558253977584,0.5400271415710449,2019-08-06 13:46:48:549,-119.84015461012861,-120.47159793606899,0,-53.228328704833984,25.039804458618164,-36.735042572021484
0.24609166383743286,-0.08506150543689728,9.807470321655273,-0.0019046251923001184,0.0047834061031754496,-0.001122530201698155,0.5500068664550781,2019-08-06 13:46:48:559,-121.01728436071394,-121.65116027080052,0,-53.228328704833984,25.039804458618164,-36.735042572021484
0.23890741169452667,-0.07308775931596756,9.790706634521484,-0.004035674213013915,0.009045504664751694,-0.001655292456876604,0.5600066184997559,2019-08-06 13:46:48:569,-122.17406113509736,-122.8073169792886,0,-53.228328704833984,25.039804458618164,-36.735042572021484
0.2628549039363861,-0.09943000972270966,9.805074691772461,-0.002970149702657017,0.00824636128198402,-0.001655292456876604,0.5700101852416992,2019-08-06 13:46:48:579,-123.30449948142468,-123.93788235828708,0,-53.228328704833984,25.039804458618164,-36.735042572021484
0.2556706666946411,-0.06590351462364197,9.831417083740234,0.0007591862786478714,0.0029187382100508774,-0.001655292456876604,0.5800075531005859,2019-08-06 13:46:48:589,-124.41025456429975,-125.0518695128636,0,-53.228328704833984,25.039804458618164,-36.735042572021484
0.2628549039363861,-0.04674551263451576,9.79310131072998,-0.004302055340603139,0.004250643847997001,-0.0032535792224119516,0.5900161266326904,2019-08-06 13:46:48:599,-125.49368831487314,-126.14294468406793,0,-53.228328704833984,25.039804458618164,-36.735042572021484
0.26764440536499023,-0.029982266947627068,9.747601509094238,-0.004834817595781589,0.0034515004652293266,-0.004052722605179625,0.6000099182128906,2019-08-06 13:46:48:609,-126.55429532699361,-127.21384806639888,0,-52.478633880615234,25.489622116088867,-37.484737396240234
0.2820129096508026,-0.05871926248073578,9.845786094665527,-0.0011054818095324445,0.008512742409573244,-0.0013889113292873795,0.6100077629089355,2019-08-06 13:46:48:619,-127.59517478812839,-128.26211646982813,0,-52.478633880615234,25.489622116088867,-37.484737396240234
0.2820129096508026,-0.05392976477742195,9.836206436157227,0.0026238542367910244,0.0013204513144783674,-0.0032535792224119516,0.6200079917907715,2019-08-06 13:46:48:629,-128.61116730539837,-129.29206472357905,0,-52.478633880615234,25.489622116088867,-37.484737396240234
0.26046016812324524,-0.056324511766433716,9.884101867675781,0.0007591862786478714,0.0018532135696568165,-0.0005897678815011245,0.6300399303436279,2019-08-06 13:46:48:639,-129.60979833756565,-130.30012114829663,0,-52.478633880615234,25.489622116088867,-37.484737396240234
0.26764440536499023,-0.041956014931201935,9.783522605895996,0.0010255674062370958,0.005316168358353898,0.00020937558253977584,0.6400082111358643,2019-08-06 13:46:48:649,-130.58923732866572,-131.2897785974096,0,-52.478633880615234,25.489622116088867,-37.484737396240234
0.26764440536499023,-0.056324511766433716,9.819443702697754,-0.0016382440647108938,0.004517024975586225,0.00047575672638364575,0.6500072479248047,2019-08-06 13:46:48:659,-131.54876263803615,-132.25649032119284,0,-52.478633880615234,25.489622116088867,-37.484737396240234
0.2748286724090576,-0.05392976477742195,9.788311958312988,0.0004928051185493561,0.0007876890592999184,0.0007421378864821609,0.6600081920623779,2019-08-06 13:46:48:669,-132.48606403001347,-133.2053237681371,0,-52.478633880615234,25.489622116088867,-37.484737396240234
0.29159191250801086,-0.05871926248073578,9.7715482711792,-0.004302055340603139,0.006648073996300022,0.0026068058446253144,0.6700098514556885,2019-08-06 13:46:48:679,-133.40589123162547,-134.13191533188203,0,-52.478633880615234,25.489622116088867,-37.484737396240234
0.26046016812324524,-0.03237701579928398,9.778733253479004,-0.0008391006169246387,-0.0005442166761740764,-0.0024544358396442778,0.6800196170806885,2019-08-06 13:46:48:689,-134.3069528618902,-135.04501134198193,0,-52.478633880615234,25.489622116088867,-37.484737396240234
0.27243390679359436,-0.09464050829410553,9.740416526794434,0.0012919485988449018,0.006648073996300022,-0.0032535792224119516,0.6900069713592529,2019-08-06 13:46:48:699,-135.19249971544878,-135.93370195125857,0,-52.478633880615234,25.489622116088867,-37.484737396240234
0.26524966955184937,-0.041956014931201935,9.788311958312988,-0.0008391006169246387,0.007979980154394795,-0.007249296656398971,0.7000076770782471,2019-08-06 13:46:48:709,-136.0620856608771,-136.8096449735026,0,-52.478633880615234,25.489622116088867,-37.484737396240234
0.25327590107917786,-0.03716651350259781,9.79310131072998,-0.0016382440647108938,0.006115311741121573,0.0010085190140713856,0.7100112438201904,2019-08-06 13:46:48:719,-136.91464906195318,-137.66818294711695,0,-52.478633880615234,25.489622116088867,-37.484737396240234
0.28680241107940674,-0.05153501406311989,9.757180213928223,0.0026238542367910244,0.006381692868710797,-0.0021880547120550534,0.7200071811676025,2019-08-06 13:46:48:729,-137.7462646066247,-138.51023959359702,0,-52.628570556640625,25.939437866210938,-37.63467788696289
0.2365126609802246,-0.03716651350259781,9.795495986938477,-0.0005727194893354142,0.009045504664751694,0.0010085190140713856,0.7300412654876709,2019-08-06 13:46:48:739,-138.56877285948931,-139.33536426057472,0,-52.628570556640625,25.939437866210938,-37.63467788696289
0.2365126609802246,-0.03237701579928398,9.831417083740234,-3.9957173202045016e-05,0.006914455123889247,-0.0005897678815011245,0.7400107383728027,2019-08-06 13:46:48:749,-139.3737062349795,-140.14486086987344,0,-52.628570556640625,25.939437866210938,-37.63467788696289
0.28680241107940674,-0.04674551263451576,9.778733253479004,-0.0016382440647108938,0.0074472173790676955,-0.001122530201698155,0.750006914138794,2019-08-06 13:46:48:759,-140.1568129592781,-140.93556632644385,0,-52.628570556640625,25.939437866210938,-37.63467788696289
0.24130216240882874,-0.07548251003026962,9.754785537719727,0.0026238542367910244,0.0029187382100508774,-0.0005897678815011245,0.7600083351135254,2019-08-06 13:46:48:769,-140.92697529732936,-141.70946158438622,0,-52.628570556640625,25.939437866210938,-37.63467788696289
0.24848641455173492,-0.041956014931201935,9.824233055114746,-0.004302055340603139,0.0047834061031754496,-0.004585484860358075,0.7700374126434326,2019-08-06 13:46:48:779,-141.6821517691147,-142.4679559378853,0,-52.628570556640625,25.939437866210938,-37.63467788696289
0.2772234082221985,-0.05392976477742195,9.795495986938477,0.003689378747147923,0.007713599026805571,0.0028731869722145387,0.7800073623657227,2019-08-06 13:46:48:789,-142.42040486508168,-143.21435332317623,0,-52.628570556640625,25.939437866210938,-37.63467788696289
0.27243390679359436,-0.02519276738166809,9.776338577270508,-0.0037692930854246903,0.010111029175108591,0.0031395680998037635,0.7900078296661377,2019-08-06 13:46:48:799,-143.14574978361327,-143.94499678739976,0,-52.628570556640625,25.939437866210938,-37.63467788696289
0.28680241107940674,-0.041956014931201935,9.766758918762207,-0.0024373874474785677,0.007713599026805571,0.005803379635770335,0.8000094890594482,2019-08-06 13:46:48:809,-143.853526357821,-144.6598054441903,0,-52.628570556640625,25.939437866210938,-37.63467788696289
0.26524966955184937,-0.07787726074457169,9.773942947387695,0.0004928051185493561,0.006381692868710797,-0.0003233867214026093,0.8100075721740723,2019-08-06 13:46:48:819,-144.54894771304063,-145.35775570727435,0,-52.628570556640625,25.939437866210938,-37.63467788696289
0.21256516873836517,-0.05871926248073578,9.776338577270508,-0.0005727194893354142,0.006115311741121573,-0.0003233867214026093,0.8200230598449707,2019-08-06 13:46:48:829,-145.23649630493634,-146.04339592600041,0,-52.628570556640625,25.939437866210938,-37.63467788696289
0.26524966955184937,-0.0706930086016655,9.749996185302734,-3.9957173202045016e-05,0.010111029175108591,-0.000856149009090349,0.8300082683563232,2019-08-06 13:46:48:839,-145.90626824402327,-146.7141972116538,0,-52.628570556640625,25.939437866210938,-37.63467788696289
0.2436969131231308,-0.08506150543689728,9.817049026489258,-0.0011054818095324445,0.006914455123889247,-0.0027208169672335025,0.8400084972381592,2019-08-06 13:46:48:849,-146.56358523389332,-147.36936379293095,0,-52.628570556640625,25.939437866210938,-37.63467788696289
0.2772234082221985,-0.05153501406311989,9.79310131072998,-0.003502911957835466,0.005316168358353898,-0.0005897678815011245,0.8500094413757324,2019-08-06 13:46:48:859,-147.20286887981146,-148.0139792642041,0,-52.17875289916992,26.38925552368164,-36.88498306274414
0.24130216240882874,-0.06829825788736343,9.74281120300293,-0.002171006319889343,0.009045504664751694,-0.005651009370714973,0.8600084781646729,2019-08-06 13:46:48:869,-147.83551473091015,-148.64444790711812,0,-52.17875289916992,26.38925552368164,-36.88498306274414
0.24609166383743286,-0.06829825788736343,9.764364242553711,0.0010255674062370958,0.0026523570824616527,-0.001655292456876604,0.8700225353240967,2019-08-06 13:46:48:879,-148.4514213806864,-149.2641204715523,0,-52.17875289916992,26.38925552368164,-36.88498306274414
0.24848641455173492,-0.06829825788736343,9.884101867675781,-3.9957173202045016e-05,0.007979980154394795,-0.008847582901785668,0.8800122737884521,2019-08-06 13:46:48:889,-149.05806684119133,-149.87089760125662,0,-52.17875289916992,26.38925552368164,-36.88498306274414
0.26524966955184937,-0.06111401319503784,9.802680015563965,-0.0003063383292368989,0.004517024975586225,-0.0019216735844658289,0.8900115489959717,2019-08-06 13:46:48:899,-149.6484419809177,-150.4661636279294,0,-52.17875289916992,26.38925552368164,-36.88498306274414
0.24609166383743286,-0.09464050829410553,9.778733253479004,-0.003502911957835466,0.006648073996300022,-0.005118247115536523,0.9000067710876465,2019-08-06 13:46:48:909,-150.23037220884493,-151.0437843640824,0,-52.17875289916992,26.38925552368164,-36.88498306274414
0.26764440536499023,-0.07787726074457169,9.80986499786377,-0.0011054818095324445,0.006381692868710797,-0.000856149009090349,0.910024881362915,2019-08-06 13:46:48:919,-150.7980980877939,-151.61318997385771,0,-52.17875289916992,26.38925552368164,-36.88498306274414
0.31314465403556824,-0.03956126421689987,9.788311958312988,-0.002703768575067792,0.004250643847997001,-0.0021880547120550534,0.9200091361999512,2019-08-06 13:46:48:929,-151.3478718200975,-152.17477899884256,0,-52.17875289916992,26.38925552368164,-36.88498306274414
0.2748286724090576,-0.08266676217317581,9.797890663146973,-0.005633960978549262,0.006115311741121573,-0.001655292456876604,0.9299960136413574,2019-08-06 13:46:48:939,-151.89220936324028,-152.7184560192118,0,-52.17875289916992,26.38925552368164,-36.88498306274414
0.24130216240882874,-0.05871926248073578,9.819443702697754,-0.0016382440647108938,0.0005213078992014032,-5.7005565367755386e-05,0.9399960041046143,2019-08-06 13:46:48:949,-152.42650392478458,-153.25631465230575,0,-52.17875289916992,26.38925552368164,-36.88498306274414
0.2436969131231308,-0.11858800798654556,9.764364242553711,-0.0003063383292368989,0.007713599026805571,0.0023404247170360896,0.9500114917755127,2019-08-06 13:46:48:959,-152.9537181494696,-153.77709964663148,0,-52.17875289916992,26.38925552368164,-36.88498306274414
0.26524966955184937,-0.0635087639093399,9.824233055114746,0.0015583297264341264,0.004250643847997001,-0.0019216735844658289,0.9600269794464111,2019-08-06 13:46:48:969,-153.46610254666953,-154.2950263396572,0,-52.17875289916992,26.38925552368164,-36.88498306274414
0.24609166383743286,-0.08506150543689728,9.857759475708008,-0.0024373874474785677,0.005049787230764674,-0.0032535792224119516,0.9700095653533936,2019-08-06 13:46:48:979,-153.9710100132955,-154.79787187417162,0,-53.978023529052734,26.38925552368164,-36.88498306274414
0.27243390679359436,-0.05153501406311989,9.75239086151123,-0.0011054818095324445,-0.0002778355485848519,0.0031395680998037635,0.9800198078155518,2019-08-06 13:46:48:989,-154.45943071791535,-155.29523771552263,0,-53.978023529052734,26.38925552368164,-36.88498306274414
0.27243390679359436,-0.05153501406311989,9.733232498168945,0.0002264239747054862,0.008512742409573244,-0.0024544358396442778,0.9900381565093994,2019-08-06 13:46:48:999,-154.9429648762954,-155.78339305357304,0,-53.978023529052734,26.38925552368164,-36.88498306274414
0.2772234082221985,-0.03716651350259781,9.829022407531738,-0.0013718629371216693,0.005582549485943123,-0.0024544358396442778,1.0000064373016357,2019-08-06 13:46:49:009,-155.41491873291412,-156.26262430306457,0,-53.978023529052734,26.38925552368164,-36.88498306274414
0.2891971468925476,-0.015613768249750137,9.795495986938477,-0.002171006319889343,0.005316168358353898,-0.000856149009090349,1.0100293159484863,2019-08-06 13:46:49:019,-155.87579061529937,-156.73432345258013,0,-53.978023529052734,26.38925552368164,-36.88498306274414
0.2772234082221985,-0.041956014931201935,9.852970123291016,-0.0024373874474785677,0.0029187382100508774,-0.001122530201698155,1.0200114250183105,2019-08-06 13:46:49:029,-156.3276777331895,-157.19339132270815,0,-53.978023529052734,26.38925552368164,-36.88498306274414
0.2628549039363861,-0.04674551263451576,9.817049026489258,0.0007591862786478714,0.009578266919930143,-0.001655292456876604,1.0300061702728271,2019-08-06 13:46:49:039,-156.77582457665912,-157.64449312777495,0,-53.978023529052734,26.38925552368164,-36.88498306274414
0.28680241107940674,-0.02519276738166809,9.797890663146973,-0.002970149702657017,0.006381692868710797,-0.003786341477590401,1.0400066375732422,2019-08-06 13:46:49:049,-157.2103580676511,-158.08698903020024,0,-53.978023529052734,26.38925552368164,-36.88498306274414
0.23172315955162048,-0.034771766513586044,9.773942947387695,0.002890235364380249,0.005049787230764674,-0.000856149009090349,1.0500209331512451,2019-08-06 13:46:49:059,-157.6418278345434,-158.52279774220636,0,-53.978023529052734,26.38925552368164,-36.88498306274414
0.26046016812324524,-0.044350765645504,9.812259674072266,-0.004035674213013915,0.010111029175108591,-0.0005897678815011245,1.0600073337554932,2019-08-06 13:46:49:069,-158.06425042954368,-158.94489941593008,0,-53.978023529052734,26.38925552368164,-36.88498306274414
0.26764440536499023,-0.056324511766433716,9.778733253479004,-0.004568436468192365,0.006914455123889247,0.001541281334268416,1.0700080394744873,2019-08-06 13:46:49:079,-158.47549221479605,-159.35683579113342,0,-53.978023529052734,26.38925552368164,-36.88498306274414
0.23890741169452667,-0.05871926248073578,9.747601509094238,-0.0019046251923001184,0.005848930613532348,0.0031395680998037635,1.0800018310546875,2019-08-06 13:46:49:089,-158.88118446952285,-159.76172741676987,0,-53.978023529052734,26.38925552368164,-36.88498306274414
0.2820129096508026,-0.07787726074457169,9.819443702697754,0.002890235364380249,0.005848930613532348,0.0007421378864821609,1.0900053977966309,2019-08-06 13:46:49:099,-159.2739446430077,-160.15902833169017,0,-53.978023529052734,26.38925552368164,-36.88498306274414
0.26524966955184937,-0.08027201145887375,9.817049026489258,-0.004568436468192365,0.007713599026805571,-5.7005565367755386e-05,1.10001540184021,2019-08-06 13:46:49:109,-159.66184696688262,-160.54391031829329,0,-52.628570556640625,25.33968162536621,-37.33479690551758
0.2772234082221985,-0.01082426868379116,9.826627731323242,-0.004568436468192365,0.007713599026805571,-0.000856149009090349,1.1100013256072998,2019-08-06 13:46:49:119,-160.04061573922985,-160.92920829856752,0,-52.628570556640625,25.33968162536621,-37.33479690551758
0.27961814403533936,-0.049140263348817825,9.79310131072998,-0.0005727194893354142,0.004250643847997001,0.004205092610160662,1.1200065612792969,2019-08-06 13:46:49:129,-160.40948146447255,-161.3045524045851,0,-52.628570556640625,25.33968162536621,-37.33479690551758
0.25327590107917786,-0.06590351462364197,9.802680015563965,-0.006433104361316936,0.00718083625147847,0.0007421378864821609,1.1299819946289062,2019-08-06 13:46:49:139,-160.77571304993845,-161.66715416529246,0,-52.628570556640625,25.33968162536621,-37.33479690551758
0.27243390679359436,-0.0706930086016655,9.79310131072998,-0.004302055340603139,0.008512742409573244,-0.0027208169672335025,1.139979362487793,2019-08-06 13:46:49:149,-161.13310746220992,-162.0231242952616,0,-52.628570556640625,25.33968162536621,-37.33479690551758
0.2748286724090576,-0.056324511766433716,9.843391418457031,-0.003502911957835466,0.003717881592818551,0.0026068058446253144,1.1499898433685303,2019-08-06 13:46:49:159,-161.48054929487944,-162.37413593726544,0,-52.628570556640625,25.33968162536621,-37.33479690551758
0.2891971468925476,-0.04674551263451576,9.80986499786377,-0.003236530830246241,0.006648073996300022,-0.0013889113292873795,1.160217046737671,2019-08-06 13:46:49:169,-161.82098392381263,-162.71933419865204,0,-52.628570556640625,25.33968162536621,-37.33479690551758
0.26046016812324524,-0.05153501406311989,9.783522605895996,0.0002264239747054862,0.005316168358353898,0.003405949227392988,1.1699810028076172,2019-08-06 13:46:49:179,-162.1569790681224,-163.05903555974083,0,-52.628570556640625,25.33968162536621,-37.33479690551758
0.2556706666946411,-0.006034769117832184,9.797890663146973,0.0002264239747054862,0.0047834061031754496,0.0007421378864821609,1.1799888610839844,2019-08-06 13:46:49:189,-162.48663220900255,-163.39727628684932,0,-52.628570556640625,25.33968162536621,-37.33479690551758
0.22932840883731842,-0.041956014931201935,9.797890663146973,-0.0003063383292368989,0.010377409782549165,-0.0005897678815011245,1.1899819374084473,2019-08-06 13:46:49:199,-162.81590614718806,-163.72425192183798,0,-52.628570556640625,25.33968162536621,-37.33479690551758
0.250881165266037,-0.06829825788736343,9.80986499786377,-0.0011054818095324445,0.007979980154394795,0.0023404247170360896,1.1999907493591309,2019-08-06 13:46:49:209,-163.13477303242868,-164.04116764342191,0,-52.628570556640625,25.33968162536621,-37.33479690551758
0.23411791026592255,-0.06111401319503784,9.819443702697754,-0.0016382440647108938,0.007713599026805571,0.004205092610160662,1.2099778652191162,2019-08-06 13:46:49:219,-163.44908710348372,-164.3522937746178,0,-52.628570556640625,25.33968162536621,-37.33479690551758
0.22932840883731842,-0.04674551263451576,9.764364242553711,0.0026238542367910244,0.005316168358353898,-0.001655292456876604,1.2199842929840088,2019-08-06 13:46:49:229,-163.7561839754306,-164.66123626981732,0,-53.378265380859375,26.689132690429688,-35.38559341430664
0.250881165266037,-0.029982266947627068,9.74281120300293,-0.0013718629371216693,0.0010540701868891429,0.0012749002066791914,1.229978084564209,2019-08-06 13:46:49:239,-164.05215053621956,-164.9637153245866,0,-53.378265380859375,26.689132690429688,-35.38559341430664
0.2365126609802246,-0.05153501406311989,9.831417083740234,-3.9957173202045016e-05,0.007713599026805571,-0.003519960350001176,1.2399890422821045,2019-08-06 13:46:49:249,-164.34788167439046,-165.25841187162973,0,-53.378265380859375,26.689132690429688,-35.38559341430664
0.24848641455173492,-0.020403267815709114,9.785917282104492,-0.0011054818095324445,0.0023859759548724283,0.0007421378864821609,1.2499840259552002,2019-08-06 13:46:49:259,-164.63317197230754,-165.55023403179172,0,-53.378265380859375,26.689132690429688,-35.38559341430664
0.24848641455173492,-0.08266676217317581,9.826627731323242,-0.003236530830246241,0.006381692868710797,-0.0005897678815011245,1.259993314743042,2019-08-06 13:46:49:269,-164.91512452367888,-165.8277705380405,0,-53.378265380859375,26.689132690429688,-35.38559341430664
0.258065402507782,-0.0635087639093399,9.800285339355469,-0.002703768575067792,0.0039842627204077765,0.0023404247170360896,1.2699811458587646,2019-08-06 13:46:49:279,-165.18888868957646,-166.10227304242773,0,-53.378265380859375,26.689132690429688,-35.38559341430664
0.26046016812324524,-0.04674551263451576,9.819443702697754,-0.0005727194893354142,0.01064379143028704,-0.0021880547120550534,1.279980182647705,2019-08-06 13:46:49:289,-165.46069859616105,-166.37445093544264,0,-53.378265380859375,26.689132690429688,-35.38559341430664
0.24130216240882874,-0.09943000972270966,9.802680015563965,-0.003236530830246241,0.0021195946972460415,0.00020937558253977584,1.2899916172027588,2019-08-06 13:46:49:299,-165.72447404304285,-166.633519741086,0,-53.378265380859375,26.689132690429688,-35.38559341430664
0.28680241107940674,-0.03237701579928398,9.759574890136719,-0.003236530830246241,0.006914455123889247,-0.0003233867214026093,1.2999820709228516,2019-08-06 13:46:49:309,-165.9801982404121,-166.89523225633636,0,-53.378265380859375,26.689132690429688,-35.38559341430664
0.27243390679359436,-0.03716651350259781,9.790706634521484,-0.0016382440647108938,0.00718083625147847,-0.0019216735844658289,1.3099944591522217,2019-08-06 13:46:49:319,-166.2327535475381,-167.15205660915097,0,-53.378265380859375,26.689132690429688,-35.38559341430664
0.25327590107917786,-0.07308775931596756,9.85057544708252,0.0012919485988449018,0.007979980154394795,0.0018076624618576407,1.3199830055236816,2019-08-06 13:46:49:329,-166.48311704470382,-167.40123794418173,0,-53.378265380859375,26.689132690429688,-35.38559341430664
0.25327590107917786,-0.04674551263451576,9.819443702697754,-0.007498629391822486,0.0029187382100508774,-0.005917390498304197,1.3299798965454102,2019-08-06 13:46:49:339,-166.7255426641916,-167.64354892822686,0,-53.378265380859375,26.689132690429688,-35.38559341430664
0.29398664832115173,-0.03237701579928398,9.785917282104492,-0.002703768575067792,0.005316168358353898,0.0010085190140713856,1.3399903774261475,2019-08-06 13:46:49:349,-166.95960493541213,-167.8853669121004,0,-53.378265380859375,26.689132690429688,-35.38559341430664
0.29159191250801086,-0.0706930086016655,9.7811279296875,-0.0016382440647108938,0.005049787230764674,0.0007421378864821609,1.3499751091003418,2019-08-06 13:46:49:359,-167.18909239543942,-168.11845915676724,0,-53.228328704833984,25.63956069946289,-37.03491973876953
0.26764440536499023,-0.10421950370073318,9.840996742248535,-0.003502911957835466,0.0047834061031754496,-0.008581202294345095,1.359985113143921,2019-08-06 13:46:49:369,-167.41684146257217,-168.34198594334458,0,-53.228328704833984,25.63956069946289,-37.03491973876953
0.2820129096508026,-0.07548251003026962,9.826627731323242,-0.002171006319889343,0.0029187382100508774,-0.0021880547120550534,1.3699800968170166,2019-08-06 13:46:49:379,-167.63726524399448,-168.5651257266245,0,-53.228328704833984,25.63956069946289,-37.03491973876953
0.2844076454639435,-0.05392976477742195,9.817049026489258,-0.004035674213013915,0.006381692868710797,-0.002987198094822727,1.3799989223480225,2019-08-06 13:46:49:389,-167.85492120231146,-168.785257919279,0,-53.228328704833984,25.63956069946289,-37.03491973876953
0.2365126609802246,-0.06590351462364197,9.848180770874023,0.0015583297264341264,0.006914455123889247,0.0007421378864821609,1.3899836540222168,2019-08-06 13:46:49:399,-168.07418443302635,-169.00275813174198,0,-53.228328704833984,25.63956069946289,-37.03491973876953
0.2556706666946411,-0.049140263348817825,9.754785537719727,0.0026238542367910244,0.009578266919930143,-0.0024544358396442778,1.3999953269958496,2019-08-06 13:46:49:409,-168.28805789879112,-169.2184054161011,0,-53.228328704833984,25.63956069946289,-37.03491973876953
0.26764440536499023,-0.07308775931596756,9.860154151916504,-0.002171006319889343,0.007979980154394795,0.00020937558253977584,1.4099831581115723,2019-08-06 13:46:49:419,-168.49567489512017,-169.42432590394455,0,-53.228328704833984,25.63956069946289,-37.03491973876953
0.24848641455173492,-0.044350765645504,9.807470321655273,0.0023574731092018,0.005582549485943123,-0.0019216735844658289,1.4199833869934082,2019-08-06 13:46:49:429,-168.6998688477957,-169.6319811773224,0,-53.228328704833984,25.63956069946289,-37.03491973876953
0.24130216240882874,-0.06111401319503784,9.814654350280762,-0.003502911957835466,0.005049787230764674,-0.005118247115536523,1.4299898147583008,2019-08-06 13:46:49:439,-168.90054104443817,-169.83023809981728,0,-53.228328704833984,25.63956069946289,-37.03491973876953
0.29159191250801086,-0.022798016667366028,9.773942947387695,-0.003502911957835466,0.008779123017013819,-0.007515677783988195,1.43998122215271,2019-08-06 13:46:49:449,-169.09327880233351,-170.0289952697629,0,-53.228328704833984,25.63956069946289,-37.03491973876953
0.2556706666946411,-0.07787726074457169,9.766758918762207,0.0007591862786478714,0.009045504664751694,0.00047575672638364575,1.44999361038208,2019-08-06 13:46:49:459,-169.2865080441361,-170.21970517454497,0,-53.228328704833984,25.63956069946289,-37.03491973876953
0.26764440536499023,-0.05871926248073578,9.783522605895996,-0.0005727194893354142,0.005848930613532348,-0.0024544358396442778,1.4599826335906982,2019-08-06 13:46:49:469,-169.47271784967603,-170.40811230872742,0,-53.228328704833984,25.63956069946289,-37.03491973876953
0.26524966955184937,-0.049140263348817825,9.807470321655273,0.0020910919816125757,0.004250643847997001,0.001541281334268416,1.4699807167053223,2019-08-06 13:46:49:479,-169.65466525682444,-170.5953824285599,0,-52.628570556640625,25.33968162536621,-36.13528823852539
0.2628549039363861,-0.05392976477742195,9.814654350280762,-0.003236530830246241,0.004517024975586225,-0.005118247115536523,1.4799902439117432,2019-08-06 13:46:49:489,-169.83342823104104,-170.77535920373901,0,-52.628570556640625,25.33968162536621,-36.13528823852539
0.2173546701669693,-0.06829825788736343,9.797890663146973,-3.9957173202045016e-05,0.005049787230764674,0.0007421378864821609,1.4899895191192627,2019-08-06 13:46:49:499,-170.01417828999533,-170.95184186909765,0,-52.628570556640625,25.33968162536621,-36.13528823852539
0.23890741169452667,-0.03956126421689987,9.800285339355469,0.0002264239747054862,0.007713599026805571,-0.000856149009090349,1.4999868869781494,2019-08-06 13:46:49:509,-170.19029562204273,-171.12830638977167,0,-52.628570556640625,25.33968162536621,-36.13528823852539
0.26764440536499023,-0.06590351462364197,9.819443702697754,-0.0019046251923001184,0.004250643847997001,0.001541281334268416,1.5099835395812988,2019-08-06 13:46:49:519,-170.357649638271,-171.2969804413631,0,-52.628570556640625,25.33968162536621,-36.13528823852539
0.24130216240882874,-0.06829825788736343,9.802680015563965,-0.0011054818095324445,0.003717881592818551,-0.000856149009090349,1.519995927810669,2019-08-06 13:46:49:529,-170.52438472549326,-171.4624355232182,0,-52.628570556640625,25.33968162536621,-36.13528823852539
0.258065402507782,-0.11858800798654556,9.898469924926758,-0.0024373874474785677,0.0047834061031754496,-0.0021880547120550534,1.529982566833496,2019-08-06 13:46:49:539,-170.68671064212967,-171.61809213735518,0,-52.628570556640625,25.33968162536621,-36.13528823852539
0.2748286724090576,-0.03716651350259781,9.776338577270508,-0.0011054818095324445,0.009578266919930143,-0.0021880547120550534,1.5399932861328125,2019-08-06 13:46:49:549,-170.84615532124113,-171.7807525189952,0,-52.628570556640625,25.33968162536621,-36.13528823852539
0.2820129096508026,-0.03237701579928398,9.857759475708008,0.0010255674062370958,0.009311885272192268,0.003405949227392988,1.5499837398529053,2019-08-06 13:46:49:559,-171.0016821729697,-171.9419491198063,0,-52.628570556640625,25.33968162536621,-36.13528823852539
0.27243390679359436,-0.0706930086016655,9.831417083740234,-0.0008391006169246387,0.0074472173790676955,0.001541281334268416,1.5599799156188965,2019-08-06 13:46:49:569,-171.15408271337915,-172.0943995759029,0,-52.628570556640625,25.33968162536621,-36.13528823852539
0.22693365812301636,-0.049140263348817825,9.785917282104492,-0.002970149702657017,0.006381692868710797,0.00020937558253977584,1.5699999332427979,2019-08-06 13:46:49:579,-171.30802272982888,-172.24508631143354,0,-52.628570556640625,25.33968162536621,-36.13528823852539
0.24609166383743286,-0.04674551263451576,9.840996742248535,-0.0037692930854246903,0.0047834061031754496,-0.000856149009090349,1.5799803733825684,2019-08-06 13:46:49:589,-171.45589320686312,-172.39262912329795,0,-52.628570556640625,25.33968162536621,-36.13528823852539
0.2748286724090576,-0.08506150543689728,9.836206436157227,0.0010255674062370958,0.0074472173790676955,-0.0013889113292873795,1.5899977684020996,2019-08-06 13:46:49:599,-171.59895507525937,-172.53544400013945,0,-52.628570556640625,25.33968162536621,-36.13528823852539
0.24609166383743286,-0.0635087639093399,9.766758918762207,-0.0019046251923001184,0.005848930613532348,-0.0021880547120550534,1.5999810695648193,2019-08-06 13:46:49:609,-171.74138728875965,-172.6762162018461,0,-51.878875732421875,25.489622116088867,-37.78461456298828
0.2844076454639435,-0.049140263348817825,9.829022407531738,-0.004568436468192365,0.0026523570824616527,0.0026068058446253144,1.6099827289581299,2019-08-06 13:46:49:619,-171.8749006974672,-172.81439731635038,0,-51.878875732421875,25.489622116088867,-37.78461456298828
0.25327590107917786,-0.07548251003026962,9.7811279296875,-0.004834817595781589,0.006381692868710797,-0.0027208169672335025,1.620002031326294,2019-08-06 13:46:49:629,-172.01132680774577,-172.94654635026032,0,-51.878875732421875,25.489622116088867,-37.78461456298828
0.25327590107917786,-0.0706930086016655,9.766758918762207,-0.0037692930854246903,0.007713599026805571,-0.001655292456876604,1.6299805641174316,2019-08-06 13:46:49:639,-172.14571241914658,-173.0772093798713,0,-51.878875732421875,25.489622116088867,-37.78461456298828
0.2628549039363861,-0.09224575757980347,9.836206436157227,-0.004302055340603139,0.0026523570824616527,-0.003519960350001176,1.6399950981140137,2019-08-06 13:46:49:649,-172.27367438597645,-173.202499790572,0,-51.878875732421875,25.489622116088867,-37.78461456298828
0.2748286724090576,-0.08506150543689728,9.864943504333496,0.0020910919816125757,0.00718083625147847,0.004471473997824211,1.6499836444854736,2019-08-06 13:46:49:659,-172.40031236204112,-173.3297420632753,0,-51.878875732421875,25.489622116088867,-37.78461456298828
0.2436969131231308,-0.056324511766433716,9.769153594970703,-0.0019046251923001184,0.00824636128198402,-0.0027208169672335025,1.6599793434143066,2019-08-06 13:46:49:669,-172.52835487600834,-173.45547148082935,0,-51.878875732421875,25.489622116088867,-37.78461456298828
0.2820129096508026,-0.05871926248073578,9.795495986938477,0.0031566164919694735,0.009311885272192268,0.004205092610160662,1.6699955463409424,2019-08-06 13:46:49:679,-172.65004299408034,-173.58126823128825,0,-51.878875732421875,25.489622116088867,-37.78461456298828
0.27243390679359436,-0.022798016667366028,9.82183837890625,-0.003502911957835466,0.007713599026805571,-0.0005897678815011245,1.6803367137908936,2019-08-06 13:46:49:689,-172.76974431163833,-173.70494903902227,0,-51.878875732421875,25.489622116088867,-37.78461456298828
0.2748286724090576,-0.06829825788736343,9.82183837890625,-0.0024373874474785677,0.0023859759548724283,0.00020937558253977584,1.690089225769043,2019-08-06 13:46:49:699,-172.88360004658122,-173.82154709827935,0,-51.878875732421875,25.489622116088867,-37.78461456298828
0.2245389223098755,-0.044350765645504,9.8721284866333,-0.005101198723370813,0.009045504664751694,-0.003786341477590401,1.699979543685913,2019-08-06 13:46:49:709,-173.0048923256383,-173.93713523891861,0,-51.878875732421875,25.489622116088867,-37.78461456298828
0.21256516873836517,-0.07787726074457169,9.807470321655273,0.0002264239747054862,0.005582549485943123,-0.000856149009090349,1.7099802494049072,2019-08-06 13:46:49:719,-173.1230968346929,-174.04942060653548,0,-51.878875732421875,25.489622116088867,-37.78461456298828
0.2101704180240631,-0.034771766513586044,9.788311958312988,-0.0011054818095324445,0.007979980154394795,-0.0013889113292873795,1.7200002670288086,2019-08-06 13:46:49:729,-173.2405237895363,-174.1637395191704,0,-53.07838821411133,25.789499282836914,-37.78461456298828
0.23172315955162048,-0.049140263348817825,9.814654350280762,0.0020910919816125757,0.006648073996300022,0.003672330354982212,1.7299761772155762,2019-08-06 13:46:49:739,-173.3523872609664,-174.27589869394302,0,-53.07838821411133,25.789499282836914,-37.78461456298828
0.26764440536499023,-0.05392976477742195,9.795495986938477,-0.002970149702657017,0.008512742409573244,-0.0021880547120550534,1.7400016784667969,2019-08-06 13:46:49:749,-173.45882929280714,-174.38239988017622,0,-53.07838821411133,25.789499282836914,-37.78461456298828
0.25327590107917786,-0.06590351462364197,9.790706634521484,0.0015583297264341264,0.0039842627204077765,0.003405949227392988,1.7499783039093018,2019-08-06 13:46:49:759,-173.56224754230016,-174.48791153049504,0,-53.07838821411133,25.789499282836914,-37.78461456298828
0.23890741169452667,-0.06111401319503784,9.7811279296875,-0.0008391006169246387,0.005848930613532348,0.0026068058446253144,1.7599947452545166,2019-08-06 13:46:49:769,-173.66630833961443,-174.5905216051856,0,-53.07838821411133,25.789499282836914,-37.78461456298828
0.23411791026592255,-0.044350765645504,9.843391418457031,0.0007591862786478714,0.0029187382100508774,-0.0021880547120550534,1.7699785232543945,2019-08-06 13:46:49:779,-173.76736874989487,-174.69397371689828,0,-53.07838821411133,25.789499282836914,-37.78461456298828
0.2245389223098755,-0.05871926248073578,9.805074691772461,-0.0037692930854246903,0.009045504664751694,-0.001122530201698155,1.7799944877624512,2019-08-06 13:46:49:789,-173.87087132375976,-174.79111199353434,0,-53.07838821411133,25.789499282836914,-37.78461456298828
0.25327590107917786,-0.020403267815709114,9.805074691772461,-0.0011054818095324445,0.003717881592818551,-0.0005897678815011245,1.789982557296753,2019-08-06 13:46:49:799,-173.9659453086352,-174.89228524847982,0,-53.07838821411133,25.789499282836914,-37.78461456298828
0.29398664832115173,-0.07308775931596756,9.778733253479004,-0.0024373874474785677,0.0031851193376401022,0.0023404247170360896,1.7999801635742188,2019-08-06 13:46:49:809,-174.05397412110275,-174.9845066911402,0,-53.07838821411133,25.789499282836914,-37.78461456298828
0.22693365812301636,-0.015613768249750137,9.740416526794434,-0.003236530830246241,0.006115311741121573,0.0020740435894468653,1.809995174407959,2019-08-06 13:46:49:819,-174.14964065108475,-175.08115963466415,0,-53.07838821411133,25.789499282836914,-37.78461456298828
0.25327590107917786,-0.05871926248073578,9.814654350280762,-0.002171006319889343,0.0074472173790676955,0.0010085190140713856,1.8199777603149414,2019-08-06 13:46:49:829,-174.24125734737663,-175.17146382835753,0,-53.07838821411133,25.789499282836914,-37.78461456298828
0.2628549039363861,-0.01082426868379116,9.788311958312988,0.0031566164919694735,0.006115311741121573,0.0018076624618576407,1.8299953937530518,2019-08-06 13:46:49:839,-174.32910702086403,-175.2685429187627,0,-53.07838821411133,25.789499282836914,-37.78461456298828
0.26764440536499023,-0.034771766513586044,9.826627731323242,0.0004928051185493561,0.006648073996300022,0.0028731869722145387,1.8399839401245117,2019-08-06 13:46:49:849,-174.41505030365641,-175.35939361897874,0,-53.07838821411133,25.789499282836914,-37.78461456298828
0.27961814403533936,-0.04674551263451576,9.7811279296875,0.0012919485988449018,0.005582549485943123,-0.000856149009090349,1.849982500076294,2019-08-06 13:46:49:859,-174.4971334803412,-175.4474546046047,0,-52.92844772338867,26.539194107055664,-37.33479690551758
0.2748286724090576,-0.0635087639093399,9.824233055114746,0.003689378747147923,0.006914455123889247,0.003938711482571438,1.8599975109100342,2019-08-06 13:46:49:869,-174.5790309608396,-175.53317253404097,0,-52.92844772338867,26.539194107055664,-37.33479690551758
0.296381413936615,-0.08506150543689728,9.817049026489258,0.0026238542367910244,0.004250643847997001,0.00047575672638364575,1.8699920177459717,2019-08-06 13:46:49:879,-174.6552505257464,-175.61405283089024,0,-52.92844772338867,26.539194107055664,-37.33479690551758
0.2700391709804535,-0.08506150543689728,9.733232498168945,0.003689378747147923,0.005316168358353898,0.0018076624618576407,1.879981279373169,2019-08-06 13:46:49:889,-174.73334315899788,-175.6938269013981,0,-52.92844772338867,26.539194107055664,-37.33479690551758
0.31074991822242737,-0.0635087639093399,9.79310131072998,-0.0008391006169246387,0.007713599026805571,-0.0027208169672335025,1.8899800777435303,2019-08-06 13:46:49:899,-174.80665751234307,-175.7720480489726,0,-52.92844772338867,26.539194107055664,-37.33479690551758
0.31314465403556824,-0.02519276738166809,9.814654350280762,0.0010255674062370958,0.00824636128198402,0.0007421378864821609,1.9001998901367188,2019-08-06 13:46:49:909,-174.87870747817854,-175.8542542111708,0,-52.92844772338867,26.539194107055664,-37.33479690551758
0.2844076454639435,-0.05392976477742195,9.814654350280762,0.0023574731092018,0.0039842627204077765,-0.0005897678815011245,1.9100186824798584,2019-08-06 13:46:49:919,-174.95013306005325,-175.93217232090134,0,-52.92844772338867,26.539194107055664,-37.33479690551758
0.296381413936615,-0.08506150543689728,9.860154151916504,0.0026238542367910244,0.005848930613532348,-0.0024544358396442778,1.9199917316436768,2019-08-06 13:46:49:929,-175.0199715820711,-176.00511286344798,0,-52.92844772338867,26.539194107055664,-37.33479690551758
0.2820129096508026,-0.034771766513586044,9.776338577270508,0.0023574731092018,0.004250643847997001,0.0018076624618576407,1.9299919605255127,2019-08-06 13:46:49:939,-175.08891247414653,-176.08225866278735,0,-52.92844772338867,26.539194107055664,-37.33479690551758
0.26764440536499023,-0.0898510068655014,9.7715482711792,0.0010255674062370958,0.005316168358353898,0.005004236253002661,1.93998384475708,2019-08-06 13:46:49:949,-175.15873784171453,-176.1506522899466,0,-52.92844772338867,26.539194107055664,-37.33479690551758
0.2844076454639435,-0.03237701579928398,9.773942947387695,-0.0003063383292368989,0.00824636128198402,0.004205092610160662,1.949984073638916,2019-08-06 13:46:49:959,-175.2268584267031,-176.22367130286173,0,-52.92844772338867,26.539194107055664,-37.33479690551758
0.258065402507782,-0.015613768249750137,9.817049026489258,-0.0013718629371216693,0.006381692868710797,0.003672330354982212,1.9599876403808594,2019-08-06 13:46:49:969,-175.29578955980406,-176.29660475465153,0,-52.92844772338867,26.539194107055664,-37.33479690551758
0.26764440536499023,-0.05153501406311989,9.802680015563965,-0.004568436468192365,0.005316168358353898,0.003672330354982212,1.9699888229370117,2019-08-06 13:46:49:979,-175.36157976628445,-176.36208289078067,0,-53.228328704833984,26.239316940307617,-38.234432220458984
0.23890741169452667,-0.020403267815709114,9.711679458618164,-0.002703768575067792,0.007979980154394795,0.0007421378864821609,1.9800007343292236,2019-08-06 13:46:49:989,-175.43065040551772,-176.43091381167298,0,-53.228328704833984,26.239316940307617,-38.234432220458984
0.23172315955162048,-0.013219018466770649,9.797890663146973,-0.0003063383292368989,0.0023859759548724283,0.00020937558253977584,1.9900612831115723,2019-08-06 13:46:49:999,-175.49628902285184,-176.5005764515912,0,-53.228328704833984,26.239316940307617,-38.234432220458984
0.21495991945266724,-0.05871926248073578,9.805074691772461,0.0004928051185493561,0.011975696548084513,-0.005118247115536523,2.000026226043701,2019-08-06 13:46:50:009,-175.56794574056167,-176.56397824462616,0,-53.228328704833984,26.239316940307617,-38.234432220458984
0.2628549039363861,-0.09224575757980347,9.757180213928223,-0.0011054818095324445,0.003717881592818551,0.00047575672638364575,2.0102622509002686,2019-08-06 13:46:50:019,-175.62786059689515,-176.62122997769558,0,-53.228328704833984,26.239316940307617,-38.234432220458984
0.22214417159557343,-0.05871926248073578,9.886496543884277,-0.002970149702657017,-0.0008105978362725917,-0.003786341477590401,2.020179510116577,2019-08-06 13:46:50:029,-175.68910823645922,-176.6803455400412,0,-53.228328704833984,26.239316940307617,-38.234432220458984
0.2436969131231308,-0.041956014931201935,9.754785537719727,0.0010255674062370958,0.006381692868710797,-0.003519960350001176,2.0300042629241943,2019-08-06 13:46:50:039,-175.75022494112355,-176.7423757595343,0,-53.228328704833984,26.239316940307617,-38.234432220458984
0.2365126609802246,-0.05392976477742195,9.845786094665527,-0.0016382440647108938,0.006115311741121573,0.00047575672638364575,2.0402543544769287,2019-08-06 13:46:50:049,-175.81121849236908,-176.80030873895547,0,-53.228328704833984,26.239316940307617,-38.234432220458984
0.23411791026592255,-0.08027201145887375,9.761969566345215,-0.004568436468192365,0.009045504664751694,-0.0003233867214026093,2.0500550270080566,2019-08-06 13:46:50:059,-175.8724950952068,-176.85236595066672,0,-53.228328704833984,26.239316940307617,-38.234432220458984
0.2556706666946411,-0.03716651350259781,9.790706634521484,-0.0024373874474785677,0.006381692868710797,-0.000856149009090349,2.060253858566284,2019-08-06 13:46:50:069,-175.92878256231617,-176.90957283934813,0,-53.228328704833984,26.239316940307617,-38.234432220458984
0.3011709153652191,-0.03956126421689987,9.819443702697754,-0.0003063383292368989,0.007713599026805571,-0.0013889113292873795,2.0700018405914307,2019-08-06 13:46:50:079,-175.9792937154446,-176.96659698872475,0,-53.228328704833984,26.239316940307617,-38.234432220458984
0.2628549039363861,-0.015613768249750137,9.80986499786377,-0.0011054818095324445,0.005582549485943123,-0.001122530201698155,2.080256462097168,2019-08-06 13:46:50:089,-176.03222483561063,-177.0248046344524,0,-53.228328704833984,26.239316940307617,-38.234432220458984
0.24848641455173492,-0.03956126421689987,9.807470321655273,-0.005633960978549262,0.0034515004652293266,-0.000856149009090349,2.090027093887329,2019-08-06 13:46:50:099,-176.08444668475295,-177.07659528365338,0,-53.228328704833984,26.239316940307617,-38.234432220458984
0.250881165266037,-0.06590351462364197,9.709284782409668,0.0010255674062370958,0.005316168358353898,-0.000856149009090349,2.100719928741455,2019-08-06 13:46:50:110,-176.13634651043725,-177.12790114143382,0,-52.628570556640625,26.239316940307617,-37.33479690551758
0.26524966955184937,-0.044350765645504,9.783522605895996,-0.0013718629371216693,0.009578266919930143,0.0020740435894468653,2.1099863052368164,2019-08-06 13:46:50:119,-176.18754289322996,-177.17943468959376,0,-52.628570556640625,26.239316940307617,-37.33479690551758
0.250881165266037,-0.06829825788736343,9.7715482711792,-0.0037692930854246903,0.0018532135696568165,0.0018076624618576407,2.1200358867645264,2019-08-06 13:46:50:129,-176.23542324220705,-177.22570980008086,0,-52.628570556640625,26.239316940307617,-37.33479690551758
0.2700391709804535,-0.03237701579928398,9.795495986938477,0.0002264239747054862,0.004517024975586225,-0.000856149009090349,2.130032777786255,2019-08-06 13:46:50:139,-176.2816680484429,-177.27753512463744,0,-52.628570556640625,26.239316940307617,-37.33479690551758
0.258065402507782,-0.09464050829410553,9.764364242553711,-3.9957173202045016e-05,0.00718083625147847,-0.0013889113292873795,2.1400299072265625,2019-08-06 13:46:50:149,-176.32978685095821,-177.3208556230995,0,-52.628570556640625,26.239316940307617,-37.33479690551758
0.26524966955184937,-0.07308775931596756,9.829022407531738,0.0004928051185493561,0.006648073996300022,-0.0003233867214026093,2.1499838829040527,2019-08-06 13:46:50:159,-176.37599021570372,-177.3661931744685,0,-52.628570556640625,26.239316940307617,-37.33479690551758
0.2844076454639435,-0.05153501406311989,9.814654350280762,-0.0037692930854246903,0.004250643847997001,-0.000856149009090349,2.1600303649902344,2019-08-06 13:46:50:169,-176.4176713485086,-177.4107260755387,0,-52.628570556640625,26.239316940307617,-37.33479690551758
0.24130216240882874,-0.06829825788736343,9.824233055114746,0.003689378747147923,0.0010540701868891429,-0.0032535792224119516,2.170037269592285,2019-08-06 13:46:50:179,-176.46176994423166,-177.45661826654623,0,-52.628570556640625,26.239316940307617,-37.33479690551758
0.250881165266037,-0.08266676217317581,9.812259674072266,0.0007591862786478714,0.003717881592818551,-5.7005565367755386e-05,2.1800036430358887,2019-08-06 13:46:50:189,-176.50532257020149,-177.4982568175548,0,-52.628570556640625,26.239316940307617,-37.33479690551758
0.25327590107917786,-0.05871926248073578,9.73083782196045,0.0015583297264341264,0.005316168358353898,0.0012749002066791914,2.190023183822632,2019-08-06 13:46:50:199,-176.5483876199195,-177.5422536214362,0,-52.628570556640625,26.239316940307617,-37.33479690551758
0.2556706666946411,-0.020403267815709114,9.829022407531738,0.0010255674062370958,0.007713599026805571,0.0023404247170360896,2.199969530105591,2019-08-06 13:46:50:209,-176.59192718547519,-177.58960260452344,0,-52.628570556640625,26.239316940307617,-37.33479690551758
0.2173546701669693,-0.06111401319503784,9.831417083740234,-0.003502911957835466,0.0074472173790676955,-0.0032535792224119516,2.210017204284668,2019-08-06 13:46:50:219,-176.63896020578878,-177.6287111513087,0,-52.628570556640625,26.239316940307617,-37.33479690551758
0.26046016812324524,-0.01800851710140705,9.824233055114746,-0.0016382440647108938,0.005848930613532348,-0.000856149009090349,2.220024824142456,2019-08-06 13:46:50:229,-176.67909425981122,-177.6731158132104,0,-54.27790069580078,27.288888931274414,-38.08449172973633
0.2245389223098755,-0.08266676217317581,9.723653793334961,-0.007498629391822486,0.006648073996300022,-0.002987198094822727,2.230020046234131,2019-08-06 13:46:50:239,-176.7227866583237,-177.70570313985695,0,-54.27790069580078,27.288888931274414,-38.08449172973633
0.2820129096508026,-0.03956126421689987,9.718864440917969,-0.0011054818095324445,0.010111029175108591,-0.0005897678815011245,2.2403600215911865,2019-08-06 13:46:50:249,-176.7609594913297,-177.74628274983863,0,-54.27790069580078,27.288888931274414,-38.08449172973633
0.29398664832115173,-0.056324511766433716,9.805074691772461,-0.0003063383292368989,0.0034515004652293266,0.00020937558253977584,2.2503483295440674,2019-08-06 13:46:50:259,-176.79332822368738,-177.78460273415598,0,-54.27790069580078,27.288888931274414,-38.08449172973633
0.2700391709804535,-0.01800851710140705,9.797890663146973,-0.0008391006169246387,0.003717881592818551,0.0026068058446253144,2.2603378295898438,2019-08-06 13:46:50:269,-176.8279725239725,-177.8263338305389,0,-54.27790069580078,27.288888931274414,-38.08449172973633
0.21974942088127136,-0.08745625615119934,9.745206832885742,-0.0013718629371216693,0.006914455123889247,-0.0019216735844658289,2.270372152328491,2019-08-06 13:46:50:279,-176.86947342520492,-177.8587507147135,0,-54.27790069580078,27.288888931274414,-38.08449172973633
0.2365126609802246,-0.0706930086016655,9.783522605895996,-0.004035674213013915,0.006648073996300022,-0.001122530201698155,2.2803573608398438,2019-08-06 13:46:50:289,-176.90811467315945,-177.89103310393233,0,-54.27790069580078,27.288888931274414,-38.08449172973633
0.21495991945266724,-0.05392976477742195,9.80986499786377,-0.005900342106138487,0.005582549485943123,0.003405949227392988,2.290048599243164,2019-08-06 13:46:50:299,-176.9478841855243,-177.92370209033194,0,-54.27790069580078,27.288888931274414,-38.08449172973633
0.2700391709804535,-0.0706930086016655,9.788311958312988,0.0007591862786478714,0.0026523570824616527,-5.7005565367755386e-05,2.3000071048736572,2019-08-06 13:46:50:309,-176.97880420549856,-177.9573766902273,0,-54.27790069580078,27.288888931274414,-38.08449172973633
0.29159191250801086,-0.09224575757980347,9.824233055114746,-0.004035674213013915,0.0018532135696568165,-0.001655292456876604,2.310021162033081,2019-08-06 13:46:50:319,-177.00626835674518,-177.9852005564219,0,-54.27790069580078,27.288888931274414,-38.08449172973633
0.24848641455173492,-0.08027201145887375,9.819443702697754,0.0004928051185493561,0.008512742409573244,-0.0019216735844658289,2.320016860961914,2019-08-06 13:46:50:329,-177.041928991265,-178.01640571088492,0,-54.27790069580078,27.288888931274414,-38.08449172973633
0.26524966955184937,-0.0635087639093399,9.778733253479004,0.0002264239747054862,0.005049787230764674,0.001541281334268416,2.3300249576568604,2019-08-06 13:46:50:339,-177.07285263621654,-178.04876270069587,0,-54.27790069580078,27.288888931274414,-38.08449172973633
0.26764440536499023,-0.020403267815709114,9.759574890136719,0.003689378747147923,0.008779123017013819,-0.0032535792224119516,2.340017080307007,2019-08-06 13:46:50:349,-177.10490370679986,-178.08746176000503,0,-54.27790069580078,27.288888931274414,-38.08449172973633
0.2365126609802246,-0.03716651350259781,9.797890663146973,0.0010255674062370958,0.005582549485943123,-0.0013889113292873795,2.3500282764434814,2019-08-06 13:46:50:359,-177.13828768938362,-178.12194222303356,0,-52.92844772338867,25.939437866210938,-37.33479690551758
0.24609166383743286,-0.09464050829410553,9.761969566345215,-0.004834817595781589,0.0026523570824616527,-0.003519960350001176,2.3600223064422607,2019-08-06 13:46:50:369,-177.16812881726088,-178.14568116189113,0,-52.92844772338867,25.939437866210938,-37.33479690551758
0.2772234082221985,-0.06590351462364197,9.749996185302734,-0.0003063383292368989,0.008512742409573244,0.0023404247170360896,2.3700132369995117,2019-08-06 13:46:50:379,-177.1969685494923,-178.17485017386403,0,-52.92844772338867,25.939437866210938,-37.33479690551758
0.25327590107917786,-0.05871926248073578,9.848180770874023,-0.003502911957835466,0.006914455123889247,0.001541281334268416,2.3800294399261475,2019-08-06 13:46:50:389,-177.22745371896605,-178.20255072239212,0,-52.92844772338867,25.939437866210938,-37.33479690551758
0.26046016812324524,-0.027587516233325005,9.709284782409668,-3.9957173202045016e-05,0.0021195946972460415,0.0010085190140713856,2.3900160789489746,2019-08-06 13:46:50:399,-177.25336037346858,-178.235221358811,0,-52.92844772338867,25.939437866210938,-37.33479690551758
0.258065402507782,-0.08745625615119934,9.800285339355469,-0.003502911957835466,0.0005213078992014032,0.0023404247170360896,2.400010108947754,2019-08-06 13:46:50:409,-177.27841792557226,-178.25832552051946,0,-52.92844772338867,25.939437866210938,-37.33479690551758
0.2365126609802246,-0.01800851710140705,9.807470321655273,-0.0016382440647108938,0.0021195946972460415,0.0007421378864821609,2.4100193977355957,2019-08-06 13:46:50:419,-177.30641177851743,-178.2901341513196,0,-52.92844772338867,25.939437866210938,-37.33479690551758
0.2748286724090576,-0.0635087639093399,9.761969566345215,-0.0008391006169246387,0.010111029175108591,-0.004585484860358075,2.4200146198272705,2019-08-06 13:46:50:429,-177.33370572374568,-178.31640562428268,0,-52.92844772338867,25.939437866210938,-37.33479690551758
0.24848641455173492,-0.05153501406311989,9.881707191467285,0.0002264239747054862,0.006648073996300022,0.001541281334268416,2.430011510848999,2019-08-06 13:46:50:439,-177.3619540944494,-178.3442284917877,0,-52.92844772338867,25.939437866210938,-37.33479690551758
0.29159191250801086,-0.04674551263451576,9.817049026489258,-0.00723224826423326,0.0039842627204077765,-0.0005897678815011245,2.4400148391723633,2019-08-06 13:46:50:449,-177.3829262433605,-178.36782524625394,0,-52.92844772338867,25.939437866210938,-37.33479690551758
0.2891971468925476,-0.015613768249750137,9.783522605895996,0.0023574731092018,0.006115311741121573,0.00047575672638364575,2.4500086307525635,2019-08-06 13:46:50:459,-177.40483636447863,-178.3999628436739,0,-52.92844772338867,25.939437866210938,-37.33479690551758
0.2436969131231308,-0.06590351462364197,9.759574890136719,-0.002703768575067792,0.005316168358353898,-0.002987198094822727,2.4600207805633545,2019-08-06 13:46:50:469,-177.43112067906864,-178.4227056693865,0,-52.92844772338867,25.939437866210938,-37.33479690551758
0.29398664832115173,-0.08745625615119934,9.70210075378418,-0.0037692930854246903,0.005848930613532348,-0.003786341477590401,2.470017194747925,2019-08-06 13:46:50:479,-177.45106909844466,-178.44180667908856,0,-53.07838821411133,26.989011764526367,-36.58510208129883
0.26524966955184937,-0.05871926248073578,9.747601509094238,-0.003236530830246241,0.0074472173790676955,-0.00431910373276885,2.48002552986145,2019-08-06 13:46:50:489,-177.47505808500904,-178.46424884506004,0,-53.07838821411133,26.989011764526367,-36.58510208129883
0.21974942088127136,-0.05392976477742195,9.797890663146973,-0.0016382440647108938,0.004517024975586225,0.00047575672638364575,2.490017890930176,2019-08-06 13:46:50:499,-177.50239473006363,-178.48773738898933,0,-53.07838821411133,26.989011764526367,-36.58510208129883
0.21495991945266724,-0.01800851710140705,9.764364242553711,-3.9957173202045016e-05,0.00718083625147847,0.0010085190140713856,2.5000152587890625,2019-08-06 13:46:50:509,-177.53115484682758,-178.51584678973893,0,-53.07838821411133,26.989011764526367,-36.58510208129883
0.27243390679359436,-0.0635087639093399,9.800285339355469,0.0004928051185493561,0.005316168358353898,0.00020937558253977584,2.5100185871124268,2019-08-06 13:46:50:519,-177.55167115284257,-178.53838088553496,0,-53.07838821411133,26.989011764526367,-36.58510208129883
0.26764440536499023,-0.09703525900840759,9.80986499786377,-0.0003063383292368989,0.006115311741121573,-0.001122530201698155,2.520017623901367,2019-08-06 13:46:50:529,-177.57281466005296,-178.55610670703467,0,-53.07838821411133,26.989011764526367,-36.58510208129883
0.22932840883731842,-0.01800851710140705,9.812259674072266,0.0010255674062370958,0.007713599026805571,-0.003786341477590401,2.5300214290618896,2019-08-06 13:46:50:539,-177.59891416083588,-178.58345754121427,0,-53.07838821411133,26.989011764526367,-36.58510208129883
0.23890741169452667,-0.04674551263451576,9.814654350280762,-0.007498629391822486,0.0010540701868891429,-0.003519960350001176,2.540013313293457,2019-08-06 13:46:50:549,-177.61963899188984,-178.60212357947682,0,-53.07838821411133,26.989011764526367,-36.58510208129883
0.24130216240882874,-0.03956126421689987,9.783522605895996,-0.004035674213013915,0.006115311741121573,-0.0013889113292873795,2.5500166416168213,2019-08-06 13:46:50:559,-177.64242380151506,-178.62318065737006,0,-53.07838821411133,26.989011764526367,-36.58510208129883
0.2772234082221985,-0.04674551263451576,9.759574890136719,-0.0005727194893354142,0.006914455123889247,-0.001122530201698155,2.5600223541259766,2019-08-06 13:46:50:569,-177.6609187032698,-178.64490672035834,0,-53.07838821411133,26.989011764526367,-36.58510208129883
0.258065402507782,-0.08506150543689728,9.776338577270508,-0.0016382440647108938,0.0039842627204077765,-0.0024544358396442778,2.5700175762176514,2019-08-06 13:46:50:579,-177.67969477851247,-178.66111907692544,0,-53.07838821411133,26.989011764526367,-36.58510208129883
0.296381413936615,-0.034771766513586044,9.778733253479004,0.0026238542367910244,0.006115311741121573,-0.003519960350001176,2.580026626586914,2019-08-06 13:46:50:589,-177.69481706255644,-178.6852966257928,0,-53.07838821411133,26.989011764526367,-36.58510208129883
0.24609166383743286,-0.06590351462364197,9.795495986938477,-0.002171006319889343,0.0018532135696568165,-0.009113964549523543,2.5900142192840576,2019-08-06 13:46:50:599,-177.71317729232078,-178.70266365301453,0,-53.07838821411133,26.989011764526367,-36.58510208129883
0.250881165266037,-0.06111401319503784,9.831417083740234,-3.9957173202045016e-05,0.0074472173790676955,0.006336141890948784,2.600020170211792,2019-08-06 13:46:50:609,-177.73386235095867,-178.72146478681816,0,-53.228328704833984,26.539194107055664,-37.63467788696289
0.2700391709804535,-0.06590351462364197,9.747601509094238,-0.003236530830246241,0.005049787230764674,0.004471473997824211,2.6100151538848877,2019-08-06 13:46:50:619,-177.75028178744614,-178.73747168004084,0,-53.228328704833984,26.539194107055664,-37.63467788696289
0.22693365812301636,-0.09464050829410553,9.795495986938477,0.0007591862786478714,0.0026523570824616527,-0.0003233867214026093,2.6200220584869385,2019-08-06 13:46:50:629,-177.77022363230938,-178.75207774896865,0,-53.228328704833984,26.539194107055664,-37.63467788696289
0.2772234082221985,-0.0706930086016655,9.761969566345215,0.0010255674062370958,0.00718083625147847,-0.0032535792224119516,2.6300182342529297,2019-08-06 13:46:50:639,-177.78631632859694,-178.76931362552233,0,-53.228328704833984,26.539194107055664,-37.63467788696289
0.28680241107940674,-0.07308775931596756,9.75239086151123,-0.004568436468192365,0.006914455123889247,0.00020937558253977584,2.640023946762085,2019-08-06 13:46:50:649,-177.80078481956332,-178.78277299342474,0,-53.228328704833984,26.539194107055664,-37.63467788696289
0.2700391709804535,-0.08745625615119934,9.797890663146973,0.0015583297264341264,0.004250643847997001,0.0031395680998037635,2.6500182151794434,2019-08-06 13:46:50:659,-177.81557995719294,-178.7977638279137,0,-53.228328704833984,26.539194107055664,-37.63467788696289
0.250881165266037,-0.049140263348817825,9.819443702697754,-0.0024373874474785677,0.007979980154394795,0.0018076624618576407,2.660013198852539,2019-08-06 13:46:50:669,-177.8344757390546,-178.81470609479675,0,-53.228328704833984,26.539194107055664,-37.63467788696289
0.2365126609802246,-0.06111401319503784,9.83381175994873,0.0004928051185493561,0.009311885272192268,-0.0003233867214026093,2.67002272605896,2019-08-06 13:46:50:679,-177.85546475325174,-178.83156753658926,0,-53.228328704833984,26.539194107055664,-37.63467788696289
0.21256516873836517,-0.05392976477742195,9.824233055114746,0.002890235364380249,0.004517024975586225,0.001541281334268416,2.6800177097320557,2019-08-06 13:46:50:689,-177.87610038718205,-178.8502678368443,0,-53.228328704833984,26.539194107055664,-37.63467788696289
0.2700391709804535,-0.05153501406311989,9.788311958312988,-0.002970149702657017,0.004250643847997001,-0.0021880547120550534,2.69002366065979,2019-08-06 13:46:50:699,-177.8893611190286,-178.86556061529032,0,-53.228328704833984,26.539194107055664,-37.63467788696289
0.24130216240882874,-0.056324511766433716,9.776338577270508,-0.004035674213013915,0.006648073996300022,0.0010085190140713856,2.700016498565674,2019-08-06 13:46:50:709,-177.90702605888913,-178.87938309908728,0,-53.228328704833984,26.539194107055664,-37.63467788696289
0.26524966955184937,-0.04674551263451576,9.788311958312988,-0.0019046251923001184,0.005049787230764674,0.0012749002066791914,2.7100181579589844,2019-08-06 13:46:50:719,-177.9206763324069,-178.89525336961196,0,-53.228328704833984,26.539194107055664,-37.63467788696289
0.24609166383743286,-0.05153501406311989,9.783522605895996,0.0002264239747054862,0.009045504664751694,-0.000856149009090349,2.720015287399292,2019-08-06 13:46:50:729,-177.93852246119812,-178.91143931177209,0,-52.478633880615234,26.08937644958496,-36.58510208129883
0.2700391709804535,-0.06111401319503784,9.807470321655273,-3.9957173202045016e-05,0.00824636128198402,-0.0013889113292873795,2.7300243377685547,2019-08-06 13:46:50:739,-177.95284282000068,-178.9260475334163,0,-52.478633880615234,26.08937644958496,-36.58510208129883
0.2772234082221985,-0.06590351462364197,9.802680015563965,0.0007591862786478714,0.009311885272192268,-5.7005565367755386e-05,2.7400155067443848,2019-08-06 13:46:50:749,-177.9666116766691,-178.94024860258887,0,-52.478633880615234,26.08937644958496,-36.58510208129883
0.250881165266037,-0.06590351462364197,9.807470321655273,0.0004928051185493561,0.0047834061031754496,0.0010085190140713856,2.7500252723693848,2019-08-06 13:46:50:759,-177.98066110290807,-178.95402048712353,0,-52.478633880615234,26.08937644958496,-36.58510208129883
0.20777566730976105,0.0035442295484244823,9.797890663146973,0.0002264239747054862,0.0034515004652293266,-0.0032535792224119516,2.760010242462158,2019-08-06 13:46:50:769,-177.99868614962762,-171.77548153958742,0,-52.478633880615234,26.08937644958496,-36.58510208129883
0.24848641455173492,-0.03237701579928398,9.82183837890625,0.0012919485988449018,0.007713599026805571,0.0018076624618576407,2.770024538040161,2019-08-06 13:46:50:779,-178.01406502342476,-171.93692095483962,0,-52.478633880615234,26.08937644958496,-36.58510208129883
0.24609166383743286,-0.04674551263451576,9.764364242553711,0.002890235364380249,0.005316168358353898,0.003405949227392988,2.780012845993042,2019-08-06 13:46:50:789,-178.02789081013077,-172.09431763461947,0,-52.478633880615234,26.08937644958496,-36.58510208129883
0.23411791026592255,-0.03716651350259781,9.79310131072998,-0.0008391006169246387,0.006115311741121573,0.0031395680998037635,2.7900257110595703,2019-08-06 13:46:50:799,-178.04338163803544,-172.24761059492195,0,-52.478633880615234,26.08937644958496,-36.58510208129883
0.26764440536499023,-0.05392976477742195,9.790706634521484,-0.0013718629371216693,0.005848930613532348,-0.0021880547120550534,2.800010919570923,2019-08-06 13:46:50:809,-178.05447570390803,-172.39557728524,0,-52.478633880615234,26.08937644958496,-36.58510208129883
0.23890741169452667,-0.008429518900811672,9.761969566345215,0.0010255674062370958,0.006381692868710797,-0.0032535792224119516,2.810009002685547,2019-08-06 13:46:50:819,-178.06893009900563,-172.5472519791577,0,-52.478633880615234,26.08937644958496,-36.58510208129883
0.21495991945266724,-0.08745625615119934,9.800285339355469,-0.0008391006169246387,0.0023859759548724283,-5.7005565367755386e-05,2.8200221061706543,2019-08-06 13:46:50:829,-178.08376243794532,-172.68560946329876,0,-52.478633880615234,26.08937644958496,-36.58510208129883
0.250881165266037,-0.08266676217317581,9.785917282104492,-0.0037692930854246903,0.004250643847997001,0.00020937558253977584,2.830014944076538,2019-08-06 13:46:50:839,-178.09510085260223,-172.8201024187636,0,-52.478633880615234,26.08937644958496,-36.58510208129883
0.23890741169452667,-0.0706930086016655,9.769153594970703,0.0010255674062370958,0.0039842627204077765,0.00020937558253977584,2.8400254249572754,2019-08-06 13:46:50:849,-178.1074202334365,-172.95598472779776,0,-52.478633880615234,26.08937644958496,-36.58510208129883
0.23890741169452667,-0.05871926248073578,9.711679458618164,0.0010255674062370958,0.007979980154394795,-0.001655292456876604,2.8500144481658936,2019-08-06 13:46:50:859,-178.12156380770844,-173.09051184570512,0,-53.378265380859375,26.989011764526367,-36.88498306274414
0.24848641455173492,-0.03956126421689987,9.773942947387695,-0.0005727194893354142,0.004250643847997001,0.001541281334268416,2.8600189685821533,2019-08-06 13:46:50:869,-178.1323935973785,-173.22374166996337,0,-53.378265380859375,26.989011764526367,-36.88498306274414
0.29159191250801086,-0.049140263348817825,9.812259674072266,-0.0024373874474785677,0.007979980154394795,-0.002987198094822727,2.8700203895568848,2019-08-06 13:46:50:879,-178.14018383962684,-173.35215930052996,0,-53.378265380859375,26.989011764526367,-36.88498306274414
0.2820129096508026,-0.020403267815709114,9.757180213928223,0.0002264239747054862,0.005049787230764674,-0.004052722605179625,2.8800206184387207,2019-08-06 13:46:50:889,-178.1471043636178,-173.48284703026468,0,-53.378265380859375,26.989011764526367,-36.88498306274414
0.2820129096508026,-0.020403267815709114,9.766758918762207,0.0012919485988449018,0.005582549485943123,0.004471473997824211,2.8900158405303955,2019-08-06 13:46:50:899,-178.1542165155568,-173.61152129659772,0,-53.378265380859375,26.989011764526367,-36.88498306274414
0.3011709153652191,-0.06111401319503784,9.778733253479004,-0.0013718629371216693,0.0031851193376401022,-0.0027208169672335025,2.9000232219696045,2019-08-06 13:46:50:909,-178.15764054660156,-173.73135848341522,0,-53.378265380859375,26.989011764526367,-36.88498306274414
0.2820129096508026,-0.03716651350259781,9.857759475708008,-0.0005727194893354142,0.004250643847997001,0.003405949227392988,2.9100148677825928,2019-08-06 13:46:50:919,-178.16409881110928,-173.85208959901536,0,-53.378265380859375,26.989011764526367,-36.88498306274414
0.250881165266037,-0.03237701579928398,9.795495986938477,-0.0016382440647108938,0.007713599026805571,-0.0032535792224119516,2.9200141429901123,2019-08-06 13:46:50:929,-178.1758050471623,-173.97034042522466,0,-53.378265380859375,26.989011764526367,-36.88498306274414
0.24848641455173492,-0.07787726074457169,9.764364242553711,-0.0005727194893354142,0.0026523570824616527,-0.0013889113292873795,2.930018901824951,2019-08-06 13:46:50:939,-178.18462364542324,-174.08147264177572,0,-53.378265380859375,26.989011764526367,-36.88498306274414
0.2772234082221985,-0.03956126421689987,9.7811279296875,-0.0005727194893354142,0.004250643847997001,0.0028731869722145387,2.9400155544281006,2019-08-06 13:46:50:949,-178.19084747451257,-174.1948869102091,0,-53.378265380859375,26.989011764526367,-36.88498306274414
0.26524966955184937,-0.05392976477742195,9.860154151916504,-0.002171006319889343,0.010111029175108591,0.003672330354982212,2.9500269889831543,2019-08-06 13:46:50:959,-178.2018953102559,-174.30350127867953,0,-53.378265380859375,26.989011764526367,-36.88498306274414
0.30356565117836,-0.044350765645504,9.805074691772461,-0.004035674213013915,0.006381692868710797,-0.004851865987947299,2.9600131511688232,2019-08-06 13:46:50:969,-178.20596947663472,-174.40998514036053,0,-53.378265380859375,26.989011764526367,-36.88498306274414
0.23172315955162048,-0.04674551263451576,9.807470321655273,0.0010255674062370958,0.007979980154394795,-0.000856149009090349,2.970019817352295,2019-08-06 13:46:50:979,-178.21926407034323,-174.51689992051942,0,-53.378265380859375,25.789499282836914,-37.78461456298828
0.250881165266037,-0.0635087639093399,9.738021850585938,0.001824710854023351,0.0074472173790676955,-0.0003233867214026093,2.9800193309783936,2019-08-06 13:46:50:989,-178.2295444338655,-174.62011319708174,0,-53.378265380859375,25.789499282836914,-37.78461456298828
0.2748286724090576,-0.056324511766433716,9.7715482711792,-0.0013718629371216693,0.004517024975586225,-0.0005897678815011245,2.9900193214416504,2019-08-06 13:46:50:999,-178.23526900965578,-174.72033549705682,0,-53.378265380859375,25.789499282836914,-37.78461456298828
0.2436969131231308,-0.07787726074457169,9.766758918762207,0.0020910919816125757,0.0074472173790676955,-0.0013889113292873795,3.0000252723693848,2019-08-06 13:46:51:009,-178.24616114801782,-174.8179666311702,0,-53.378265380859375,25.789499282836914,-37.78461456298828
0.25327590107917786,-0.044350765645504,9.773942947387695,-0.002970149702657017,0.006115311741121573,-0.00431910373276885,3.01001238822937,2019-08-06 13:46:51:019,-178.25497933765072,-174.91474198015382,0,-53.378265380859375,25.789499282836914,-37.78461456298828
0.2820129096508026,-0.06111401319503784,9.783522605895996,0.0015583297264341264,0.0021195946972460415,-0.0003233867214026093,3.020022392272949,2019-08-06 13:46:51:029,-178.2580488819584,-175.01016500214436,0,-53.378265380859375,25.789499282836914,-37.78461456298828
0.22693365812301636,-0.0706930086016655,9.7715482711792,-0.0019046251923001184,0.0029187382100508774,0.00047575672638364575,3.030017614364624,2019-08-06 13:46:51:039,-178.26791811946137,-175.10060269982114,0,-53.378265380859375,25.789499282836914,-37.78461456298828
0.29159191250801086,-0.06111401319503784,9.829022407531738,-0.0016382440647108938,0.004250643847997001,-0.0024544358396442778,3.0400261878967285,2019-08-06 13:46:51:049,-178.27096328800445,-175.1905451060807,0,-53.378265380859375,25.789499282836914,-37.78461456298828
0.250881165266037,-0.07787726074457169,9.826627731323242,-0.0008391006169246387,0.0029187382100508774,-0.004851865987947299,3.05001163482666,2019-08-06 13:46:51:059,-178.27793077558567,-175.27718240071667,0,-53.378265380859375,25.789499282836914,-37.78461456298828
0.23172315955162048,-0.07308775931596756,9.778733253479004,-0.003236530830246241,0.0021195946972460415,-0.0061837716258934215,3.060009717941284,2019-08-06 13:46:51:069,-178.28641280876784,-175.361257203165,0,-53.378265380859375,25.789499282836914,-37.78461456298828
0.24130216240882874,-0.03716651350259781,9.800285339355469,-0.0019046251923001184,0.00824636128198402,0.003405949227392988,3.070024013519287,2019-08-06 13:46:51:079,-178.2971125125955,-175.44861534672643,0,-53.378265380859375,25.789499282836914,-37.78461456298828
0.26764440536499023,-0.0706930086016655,9.80986499786377,-0.002171006319889343,0.0047834061031754496,0.006336141890948784,3.080009698867798,2019-08-06 13:46:51:089,-178.30259581541122,-175.5301680782541,0,-53.378265380859375,25.789499282836914,-37.78461456298828
0.26046016812324524,-0.07787726074457169,9.795495986938477,-0.002171006319889343,0.0039842627204077765,-0.000856149009090349,3.090027093887329,2019-08-06 13:46:51:099,-178.30832247317946,-175.60923338324483,0,-53.378265380859375,25.789499282836914,-37.78461456298828
0.2820129096508026,-0.044350765645504,9.769153594970703,0.0012919485988449018,0.005316168358353898,0.003672330354982212,3.100017547607422,2019-08-06 13:46:51:109,-178.31206744237676,-175.69257116919022,0,-51.42905807495117,26.539194107055664,-36.43516540527344
0.24130216240882874,-0.07787726074457169,9.79310131072998,-0.0003063383292368989,0.0021195946972460415,0.001541281334268416,3.1100168228149414,2019-08-06 13:46:51:119,-178.3187864916693,-175.76943532625768,0,-51.42905807495117,26.539194107055664,-36.43516540527344
0.26046016812324524,-0.06590351462364197,9.800285339355469,0.0002264239747054862,0.005049787230764674,-0.001655292456876604,3.1200244426727295,2019-08-06 13:46:51:129,-178.32480077536388,-175.8464680852226,0,-51.42905807495117,26.539194107055664,-36.43516540527344
0.250881165266037,-0.0706930086016655,9.790706634521484,0.004488522389989922,0.011176553685465489,-0.00431910373276885,3.1300172805786133,2019-08-06 13:46:51:139,-178.33521888835995,-175.9237833702378,0,-51.42905807495117,26.539194107055664,-36.43516540527344
0.27243390679359436,-0.0706930086016655,9.773942947387695,0.0007591862786478714,0.006381692868710797,-0.0005897678815011245,3.1400253772735596,2019-08-06 13:46:51:149,-178.34016832437752,-175.99744629229272,0,-51.42905807495117,26.539194107055664,-36.43516540527344
0.22932840883731842,-0.0706930086016655,9.802680015563965,-0.0013718629371216693,0.006648073996300022,-0.004052722605179625,3.150006055831909,2019-08-06 13:46:51:159,-178.3502874421818,-176.06846481382493,0,-51.42905807495117,26.539194107055664,-36.43516540527344
0.2436969131231308,-0.07787726074457169,9.807470321655273,-0.0011054818095324445,0.0018532135696568165,0.0031395680998037635,3.1600213050842285,2019-08-06 13:46:51:169,-178.3558559003988,-176.13737477112443,0,-51.42905807495117,26.539194107055664,-36.43516540527344
0.24609166383743286,-0.05392976477742195,9.80986499786377,-0.0011054818095324445,0.006648073996300022,-0.0019216735844658289,3.1700189113616943,2019-08-06 13:46:51:179,-178.36373020036072,-176.207707086528,0,-51.42905807495117,26.539194107055664,-36.43516540527344
0.26046016812324524,-0.0898510068655014,9.812259674072266,-0.002970149702657017,0.004250643847997001,-5.7005565367755386e-05,3.180025577545166,2019-08-06 13:46:51:189,-178.36843346152116,-176.27139122531352,0,-51.42905807495117,26.539194107055664,-36.43516540527344
0.2628549039363861,-0.044350765645504,9.831417083740234,-0.0008391006169246387,0.005316168358353898,-0.002987198094822727,3.190012216567993,2019-08-06 13:46:51:199,-178.37341567404408,-176.34032354139737,0,-51.42905807495117,26.539194107055664,-36.43516540527344
0.23411791026592255,-0.07787726074457169,9.864943504333496,-0.002970149702657017,0.005049787230764674,0.0018076624618576407,3.200007915496826,2019-08-06 13:46:51:209,-178.3815914680865,-176.40280398853963,0,-51.42905807495117,26.539194107055664,-36.43516540527344
0.23411791026592255,-0.08506150543689728,9.805074691772461,0.0015583297264341264,0.004250643847997001,0.0026068058446253144,3.2100255489349365,2019-08-06 13:46:51:219,-178.38899449919546,-176.4656835932209,0,-51.42905807495117,26.539194107055664,-36.43516540527344
0.2772234082221985,-0.05153501406311989,9.840996742248535,0.0007591862786478714,0.00718083625147847,-5.7005565367755386e-05,3.220019578933716,2019-08-06 13:46:51:229,-178.39297202996875,-176.53079511001133,0,-52.32869338989258,26.539194107055664,-36.735042572021484
0.2556706666946411,-0.06111401319503784,9.814654350280762,-0.0003063383292368989,0.010377409782549165,0.0010085190140713856,3.230027198791504,2019-08-06 13:46:51:239,-178.4010997052357,-176.59287175879143,0,-52.32869338989258,26.539194107055664,-36.735042572021484
0.2891971468925476,-0.034771766513586044,9.802680015563965,-0.0016382440647108938,0.005582549485943123,-0.000856149009090349,3.2400119304656982,2019-08-06 13:46:51:249,-178.4024106977328,-176.65603111663287,0,-52.32869338989258,26.539194107055664,-36.735042572021484
0.26764440536499023,-0.07548251003026962,9.814654350280762,-0.0003063383292368989,0.004517024975586225,0.005004236253002661,3.250018358230591,2019-08-06 13:46:51:259,-178.40565918418847,-176.71392554524107,0,-52.32869338989258,26.539194107055664,-36.735042572021484
0.27243390679359436,-0.056324511766433716,9.75239086151123,0.0007591862786478714,0.00718083625147847,0.0012749002066791914,3.26002836227417,2019-08-06 13:46:51:269,-178.40957913290362,-176.77345563049002,0,-52.32869338989258,26.539194107055664,-36.735042572021484
0.29159191250801086,-0.027587516233325005,9.812259674072266,-0.0011054818095324445,0.006914455123889247,-0.0027208169672335025,3.2700161933898926,2019-08-06 13:46:51:279,-178.41122201236666,-176.83414477285095,0,-52.32869338989258,26.539194107055664,-36.735042572021484
0.2173546701669693,-0.05153501406311989,9.800285339355469,0.002890235364380249,0.003717881592818551,0.003938711482571438,3.28002667427063,2019-08-06 13:46:51:289,-178.41967693442984,-176.8930606749552,0,-52.32869338989258,26.539194107055664,-36.735042572021484
0.2628549039363861,-0.05153501406311989,9.80986499786377,-0.0003063383292368989,0.005049787230764674,0.0023404247170360896,3.2900097370147705,2019-08-06 13:46:51:299,-178.42341662896,-176.94900786192247,0,-52.32869338989258,26.539194107055664,-36.735042572021484
0.22693365812301636,-0.027587516233325005,9.862548828125,-0.0061667232337277115,0.0005213078992014032,-0.0024544358396442778,3.300023078918457,2019-08-06 13:46:51:309,-178.42887895184327,-177.00335513209552,0,-52.32869338989258,26.539194107055664,-36.735042572021484
0.25327590107917786,-0.06829825788736343,9.75239086151123,-0.004302055340603139,0.011176553685465489,-0.003786341477590401,3.31001877784729,2019-08-06 13:46:51:319,-178.4368208120642,-177.05284848841276,0,-52.32869338989258,26.539194107055664,-36.735042572021484
0.2891971468925476,-0.03956126421689987,9.831417083740234,0.0015583297264341264,0.007713599026805571,0.0020740435894468653,3.3200244903564453,2019-08-06 13:46:51:329,-178.43871995454876,-177.10805592080482,0,-52.32869338989258,26.539194107055664,-36.735042572021484
0.26046016812324524,-0.056324511766433716,9.769153594970703,-0.003236530830246241,0.0047834061031754496,0.0012749002066791914,3.3300178050994873,2019-08-06 13:46:51:339,-178.4420850575303,-177.15747195294617,0,-52.32869338989258,26.539194107055664,-36.735042572021484
0.2436969131231308,-0.049140263348817825,9.855364799499512,-0.004035674213013915,0.006381692868710797,-0.003519960350001176,3.3400092124938965,2019-08-06 13:46:51:349,-178.44849392287557,-177.20634478316782,0,-52.32869338989258,26.539194107055664,-36.735042572021484
0.24848641455173492,-0.044350765645504,9.745206832885742,0.0010255674062370958,0.008512742409573244,-5.7005565367755386e-05,3.3500261306762695,2019-08-06 13:46:51:359,-178.45509943045138,-177.25757965187478,0,-54.127960205078125,25.33968162536621,-37.33479690551758
0.24609166383743286,-0.06111401319503784,9.797890663146973,-3.9957173202045016e-05,0.004517024975586225,-0.0013889113292873795,3.360013484954834,2019-08-06 13:46:51:369,-178.45975485482302,-177.30525813408303,0,-54.127960205078125,25.33968162536621,-37.33479690551758
0.24848641455173492,-0.07308775931596756,9.788311958312988,-3.9957173202045016e-05,0.009844647527370716,-0.0013889113292873795,3.3700273036956787,2019-08-06 13:46:51:379,-178.4670111477652,-177.35057429513824,0,-54.127960205078125,25.33968162536621,-37.33479690551758
0.26524966955184937,-0.04674551263451576,9.783522605895996,-0.0011054818095324445,0.0023859759548724283,-0.0019216735844658289,3.380011796951294,2019-08-06 13:46:51:389,-178.46794825495633,-177.3974679207723,0,-54.127960205078125,25.33968162536621,-37.33479690551758
0.2820129096508026,-0.022798016667366028,9.807470321655273,0.0031566164919694735,0.003717881592818551,0.00020937558253977584,3.3899950981140137,2019-08-06 13:46:51:399,-178.46773176878293,-177.44862429798303,0,-54.127960205078125,25.33968162536621,-37.33479690551758
0.24848641455173492,-0.06829825788736343,9.740416526794434,-0.004834817595781589,0.007713599026805571,0.001541281334268416,3.40002179145813,2019-08-06 13:46:51:409,-178.47349291573016,-177.48889497502697,0,-54.127960205078125,25.33968162536621,-37.33479690551758
0.26764440536499023,-0.05153501406311989,9.817049026489258,-0.0013718629371216693,0.011442934292906064,-0.0005897678815011245,3.4099981784820557,2019-08-06 13:46:51:419,-178.47919946132697,-177.53233311816078,0,-54.127960205078125,25.33968162536621,-37.33479690551758
0.26764440536499023,-0.022798016667366028,9.843391418457031,-0.0019046251923001184,0.005316168358353898,0.001541281334268416,3.42000675201416,2019-08-06 13:46:51:429,-178.48145298090122,-177.57796207462272,0,-54.127960205078125,25.33968162536621,-37.33479690551758
0.2844076454639435,-0.06111401319503784,9.795495986938477,-0.004568436468192365,0.003717881592818551,0.001541281334268416,3.4300169944763184,2019-08-06 13:46:51:439,-178.48065186612826,-177.61668577038844,0,-54.127960205078125,25.33968162536621,-37.33479690551758
0.2772234082221985,-0.05392976477742195,9.785917282104492,-0.0016382440647108938,0.004250643847997001,-0.002987198094822727,3.4399843215942383,2019-08-06 13:46:51:449,-178.4809640141516,-177.65712016157548,0,-54.127960205078125,25.33968162536621,-37.33479690551758
0.24130216240882874,-0.03956126421689987,9.764364242553711,-0.002171006319889343,0.010377409782549165,-0.0032535792224119516,3.4499900341033936,2019-08-06 13:46:51:459,-178.48886225110638,-177.69811528266774,0,-54.127960205078125,25.33968162536621,-37.33479690551758
0.2173546701669693,-0.03956126421689987,9.840996742248535,-0.005367579850960038,0.006648073996300022,-5.7005565367755386e-05,3.4599878787994385,2019-08-06 13:46:51:469,-178.4975117614788,-177.73653312870837,0,-54.127960205078125,25.33968162536621,-37.33479690551758
0.15988066792488098,-0.07787726074457169,9.879312515258789,-0.002703768575067792,0.0010540701868891429,0.0020740435894468653,3.470038890838623,2019-08-06 13:46:51:479,-178.50961323576482,-177.77124365152838,0,-52.92844772338867,25.939437866210938,-37.33479690551758
0.23890741169452667,-0.056324511766433716,9.783522605895996,-0.0037692930854246903,0.007979980154394795,0.0010085190140713856,3.480006217956543,2019-08-06 13:46:51:489,-178.51591010789292,-177.8071121870149,0,-52.92844772338867,25.939437866210938,-37.33479690551758
0.19340716302394867,-0.04674551263451576,9.836206436157227,-0.0005727194893354142,0.010910172037727614,0.0026068058446253144,3.490070343017578,2019-08-06 13:46:51:499,-178.52922825279228,-177.84520050038398,0,-52.92844772338867,25.939437866210938,-37.33479690551758
0.24609166383743286,-0.03237701579928398,9.785917282104492,-0.002970149702657017,0.0031851193376401022,0.001541281334268416,3.5000057220458984,2019-08-06 13:46:51:509,-178.5316096946412,-177.88284824840736,0,-52.92844772338867,25.939437866210938,-37.33479690551758
0.30596041679382324,-0.06111401319503784,9.726048469543457,-0.0016382440647108938,0.0023859759548724283,-0.00431910373276885,3.5100772380828857,2019-08-06 13:46:51:519,-178.52629066584495,-177.91706452154702,0,-52.92844772338867,25.939437866210938,-37.33479690551758
0.3083551526069641,-0.13774600625038147,9.769153594970703,-0.0003063383292368989,0.0074472173790676955,0.0007421378864821609,3.5200083255767822,2019-08-06 13:46:51:529,-178.5237597772502,-177.94239595841097,0,-52.92844772338867,25.939437866210938,-37.33479690551758
0.250881165266037,-0.01800851710140705,9.776338577270508,-0.003502911957835466,0.004250643847997001,-0.0027208169672335025,3.530104398727417,2019-08-06 13:46:51:539,-178.52629411961425,-177.97945142960097,0,-52.92844772338867,25.939437866210938,-37.33479690551758
0.23172315955162048,-0.049140263348817825,9.807470321655273,0.0010255674062370958,0.00718083625147847,-0.0021880547120550534,3.5400102138519287,2019-08-06 13:46:51:549,-178.53269253967798,-178.01469127780666,0,-52.92844772338867,25.939437866210938,-37.33479690551758
0.296381413936615,-0.056324511766433716,9.817049026489258,0.0020910919816125757,0.0005213078992014032,-5.7005565367755386e-05,3.55008864402771,2019-08-06 13:46:51:559,-178.5277484627764,-178.04900628203663,0,-52.92844772338867,25.939437866210938,-37.33479690551758
0.24609166383743286,-0.05153501406311989,9.790706634521484,-0.002171006319889343,-0.0002778355485848519,0.00020937558253977584,3.5600128173828125,2019-08-06 13:46:51:569,-178.52824188354927,-178.08078472095312,0,-52.92844772338867,25.939437866210938,-37.33479690551758
0.2245389223098755,-0.006034769117832184,9.740416526794434,-0.0008391006169246387,0.010910172037727614,-0.000856149009090349,3.5700571537017822,2019-08-06 13:46:51:579,-178.53741895063592,-178.11798582077805,0,-52.92844772338867,25.939437866210938,-37.33479690551758
0.2556706666946411,-0.0635087639093399,9.845786094665527,0.0012919485988449018,0.01064379143028704,-0.003519960350001176,3.579986095428467,2019-08-06 13:46:51:589,-178.54285467567541,-178.1489549231467,0,-52.92844772338867,25.939437866210938,-37.33479690551758
0.2365126609802246,-0.03237701579928398,9.83381175994873,0.0012919485988449018,0.006648073996300022,-0.004851865987947299,3.5900652408599854,2019-08-06 13:46:51:599,-178.54820494740346,-178.182934174362,0,-52.92844772338867,25.939437866210938,-37.33479690551758
0.250881165266037,-0.05871926248073578,9.761969566345215,-0.0005727194893354142,0.004517024975586225,-0.000856149009090349,3.600008010864258,2019-08-06 13:46:51:609,-178.55031925754895,-178.21206303171354,0,-53.228328704833984,25.63956069946289,-37.63467788696289
0.2245389223098755,-0.020403267815709114,9.769153594970703,0.0023574731092018,0.006381692868710797,-5.7005565367755386e-05,3.610090732574463,2019-08-06 13:46:51:619,-178.5565921878349,-178.24676315200367,0,-53.228328704833984,25.63956069946289,-37.63467788696289
0.25327590107917786,-0.05153501406311989,9.7811279296875,0.0002264239747054862,0.004250643847997001,0.003938711482571438,3.620006561279297,2019-08-06 13:46:51:629,-178.55816088111862,-178.2759163871191,0,-53.228328704833984,25.63956069946289,-37.63467788696289
0.23890741169452667,-0.022798016667366028,9.764364242553711,0.0015583297264341264,0.0047834061031754496,0.00020937558253977584,3.6300716400146484,2019-08-06 13:46:51:639,-178.5616691767031,-178.3086032539178,0,-53.228328704833984,25.63956069946289,-37.63467788696289
0.23411791026592255,-0.041956014931201935,9.79310131072998,-0.0024373874474785677,0.009045504664751694,-0.006982915528809746,3.640004873275757,2019-08-06 13:46:51:649,-178.5680914080031,-178.33616238718665,0,-53.228328704833984,25.63956069946289,-37.63467788696289
0.27243390679359436,-0.08027201145887375,9.807470321655273,0.0031566164919694735,0.0021195946972460415,0.0031395680998037635,3.650068759918213,2019-08-06 13:46:51:659,-178.5661040399134,-178.36184403836387,0,-53.228328704833984,25.63956069946289,-37.63467788696289
0.27961814403533936,-0.0706930086016655,9.819443702697754,0.0002264239747054862,0.0047834061031754496,-0.0032535792224119516,3.6600029468536377,2019-08-06 13:46:51:669,-178.56482792096153,-178.3864838231613,0,-53.228328704833984,25.63956069946289,-37.63467788696289
0.30596041679382324,-0.01800851710140705,9.817049026489258,-0.004035674213013915,0.00718083625147847,0.00020937558253977584,3.6700901985168457,2019-08-06 13:46:51:679,-178.56189625919973,-178.4143662701846,0,-53.228328704833984,25.63956069946289,-37.63467788696289
0.27243390679359436,-0.07787726074457169,9.802680015563965,0.0034229976195586987,0.0013204513144783674,-0.0032535792224119516,3.6800119876861572,2019-08-06 13:46:51:689,-178.559555130713,-178.43888240148206,0,-53.228328704833984,25.63956069946289,-37.63467788696289
0.2748286724090576,-0.03237701579928398,9.764364242553711,-0.0011054818095324445,0.010111029175108591,0.0010085190140713856,3.6900887489318848,2019-08-06 13:46:51:699,-178.5618404069808,-178.46567960962673,0,-53.228328704833984,25.63956069946289,-37.63467788696289
0.2748286724090576,-0.07548251003026962,9.766758918762207,0.001824710854023351,0.0047834061031754496,0.0012749002066791914,3.7000133991241455,2019-08-06 13:46:51:709,-178.5610326084567,-178.48852682429848,0,-53.228328704833984,25.63956069946289,-37.63467788696289
0.30356565117836,-0.06590351462364197,9.836206436157227,-0.002171006319889343,0.00718083625147847,0.00047575672638364575,3.709982395172119,2019-08-06 13:46:51:719,-178.55847738441994,-178.5098634220632,0,-53.228328704833984,25.63956069946289,-37.63467788696289
0.28680241107940674,-0.05871926248073578,9.79310131072998,-0.0016382440647108938,0.00718083625147847,-0.002987198094822727,3.7200326919555664,2019-08-06 13:46:51:729,-178.55781025923048,-178.5318708478495,0,-52.17875289916992,25.189743041992188,-37.78461456298828
0.250881165266037,-0.029982266947627068,9.757180213928223,0.0034229976195586987,0.009311885272192268,-0.004052722605179625,3.7299866676330566,2019-08-06 13:46:51:739,-178.56240077556683,-178.55962538774256,0,-52.17875289916992,25.189743041992188,-37.78461456298828
0.29398664832115173,-0.027587516233325005,9.817049026489258,-3.9957173202045016e-05,0.011709315940643939,0.0026068058446253144,3.7399868965148926,2019-08-06 13:46:51:749,-178.5634217214879,-178.58519024149194,0,-52.17875289916992,25.189743041992188,-37.78461456298828
0.3083551526069641,-0.05871926248073578,9.807470321655273,0.002890235364380249,0.006914455123889247,-0.000856149009090349,3.749985694885254,2019-08-06 13:46:51:759,-178.5600185880995,-178.60824836381752,0,-52.17875289916992,25.189743041992188,-37.78461456298828
0.3083551526069641,-0.09464050829410553,9.735627174377441,-0.0016382440647108938,0.0026523570824616527,-5.7005565367755386e-05,3.7599751949310303,2019-08-06 13:46:51:769,-178.55402365306702,-178.6240253399169,0,-52.17875289916992,25.189743041992188,-37.78461456298828
0.27961814403533936,-0.07787726074457169,9.807470321655273,-0.004035674213013915,0.006381692868710797,-0.0003233867214026093,3.769986867904663,2019-08-06 13:46:51:779,-178.5538686319848,-178.64017708908318,0,-52.17875289916992,25.189743041992188,-37.78461456298828
0.2748286724090576,-0.05871926248073578,9.82183837890625,-0.0005727194893354142,0.008779123017013819,-0.001122530201698155,3.7799675464630127,2019-08-06 13:46:51:789,-178.5556552559793,-178.66020188249038,0,-52.17875289916992,25.189743041992188,-37.78461456298828
0.26764440536499023,-0.04674551263451576,9.860154151916504,-3.9957173202045016e-05,0.007979980154394795,-0.0021880547120550534,3.7899672985076904,2019-08-06 13:46:51:799,-178.55792564663244,-178.6815428361767,0,-52.17875289916992,25.189743041992188,-37.78461456298828
0.26046016812324524,-0.041956014931201935,9.80986499786377,-0.0037692930854246903,0.0034515004652293266,0.003672330354982212,3.7999660968780518,2019-08-06 13:46:51:809,-178.5582870370501,-178.70089482057827,0,-52.17875289916992,25.189743041992188,-37.78461456298828
0.2700391709804535,-0.05153501406311989,9.733232498168945,-0.0005727194893354142,0.0034515004652293266,-0.0024544358396442778,3.8099584579467773,2019-08-06 13:46:51:819,-178.55727365658336,-178.7204883109343,0,-52.17875289916992,25.189743041992188,-37.78461456298828
0.2844076454639435,-0.06829825788736343,9.831417083740234,0.0004928051185493561,0.009844647527370716,-0.004585484860358075,3.81996750831604,2019-08-06 13:46:51:829,-178.5585206245019,-178.73839502653843,0,-52.17875289916992,25.189743041992188,-37.78461456298828
0.24848641455173492,-0.049140263348817825,9.778733253479004,0.004222141002326372,0.009578266919930143,0.007401666401305682,3.829960823059082,2019-08-06 13:46:51:839,-178.5636123187575,-178.7602378407179,0,-52.17875289916992,25.189743041992188,-37.78461456298828
0.2628549039363861,-0.07787726074457169,9.864943504333496,-0.003502911957835466,0.005049787230764674,0.001541281334268416,3.8399691581726074,2019-08-06 13:46:51:849,-178.5646517816714,-178.7740184998707,0,-52.17875289916992,25.189743041992188,-37.78461456298828
0.23890741169452667,-0.022798016667366028,9.75239086151123,-3.9957173202045016e-05,0.005582549485943123,-0.000856149009090349,3.8499696254730225,2019-08-06 13:46:51:859,-178.56842724230012,-178.79583690825623,0,-52.628570556640625,26.239316940307617,-36.43516540527344
0.2101704180240631,-0.049140263348817825,9.79310131072998,0.001824710854023351,0.00718083625147847,0.003672330354982212,3.859962224960327,2019-08-06 13:46:51:869,-178.576498944907,-178.81519400608857,0,-52.628570556640625,26.239316940307617,-36.43516540527344
0.16945967078208923,-0.03237701579928398,9.805074691772461,0.0010255674062370958,0.0074472173790676955,0.004205092610160662,3.8703811168670654,2019-08-06 13:46:51:879,-178.5895230124637,-178.83570622619428,0,-52.628570556640625,26.239316940307617,-36.43516540527344
0.1263541728258133,-0.0635087639093399,9.946365356445312,0.002890235364380249,0.006115311741121573,0.006602523018538008,3.8799848556518555,2019-08-06 13:46:51:889,-178.60647381000373,-178.85323394482467,0,-52.628570556640625,26.239316940307617,-36.43516540527344
0.250881165266037,0.0011494798818603158,9.769153594970703,-0.002970149702657017,-0.006670982903309857,-0.0003233867214026093,3.8899707794189453,2019-08-06 13:46:51:899,-178.60118212208192,-171.67463871172313,0,-52.628570556640625,26.239316940307617,-36.43516540527344
0.04014318808913231,0.0801762193441391,9.663784980773926,0.0020910919816125757,0.01357398435391716,0.00020937558253977584,3.9000003337860107,2019-08-06 13:46:51:909,-178.63204269378917,-164.6518304978495,0,-52.628570556640625,26.239316940307617,-36.43516540527344
0.1455121785402298,-0.12816700339317322,9.908049583435059,-0.009896059019976856,0.003717881592818551,-0.001655292456876604,3.909979820251465,2019-08-06 13:46:51:919,-178.6446571400712,-164.93842633325193,0,-52.628570556640625,26.239316940307617,-36.43516540527344
0.18143342435359955,-0.05153501406311989,9.797890663146973,-0.004302055340603139,-1.1454389502251989e-05,0.004471473997824211,3.919987440109253,2019-08-06 13:46:51:929,-178.65054037863126,-165.231213128435,0,-52.628570556640625,26.239316940307617,-36.43516540527344
0.15748591721057892,-0.12577225267887115,9.790706634521484,-0.005633960978549262,-0.0013433600914510408,-0.0024544358396442778,3.9300649166107178,2019-08-06 13:46:51:939,-178.65833868834864,-165.50868117527614,0,-52.628570556640625,26.239316940307617,-36.43516540527344
0.2173546701669693,-0.05153501406311989,9.83381175994873,-0.002703768575067792,0.0029187382100508774,-0.0021880547120550534,3.939992666244507,2019-08-06 13:46:51:949,-178.66147513359812,-165.79099513488018,0,-52.628570556640625,26.239316940307617,-36.43516540527344
0.2101704180240631,0.0035442295484244823,9.73083782196045,-0.0013718629371216693,0.006115311741121573,-0.000856149009090349,3.9499895572662354,2019-08-06 13:46:51:959,-178.666932219684,-158.87482254536513,0,-52.628570556640625,26.239316940307617,-36.43516540527344
0.3083551526069641,-0.06111401319503784,9.852970123291016,-0.004568436468192365,0.005316168358353898,-0.006716534401220521,3.960371971130371,2019-08-06 13:46:51:969,-178.66084227024393,-159.28755526525794,0,-52.628570556640625,26.239316940307617,-36.43516540527344
0.27961814403533936,-0.015613768249750137,9.769153594970703,-0.0008391006169246387,0.0034515004652293266,-0.004585484860358075,3.9704184532165527,2019-08-06 13:46:51:979,-178.65678236547686,-159.6994993324123,0,-52.92844772338867,26.539194107055664,-37.33479690551758
0.3346973955631256,-0.0706930086016655,9.79310131072998,-0.0013718629371216693,0.0074472173790676955,-0.010978632962796765,3.9799752235412598,2019-08-06 13:46:51:989,-178.64849442736096,-160.09650136421197,0,-52.92844772338867,26.539194107055664,-37.33479690551758
0.27243390679359436,-0.0898510068655014,9.807470321655273,-0.004568436468192365,0.010111029175108591,-0.01017948905988044,3.9899909496307373,2019-08-06 13:46:51:999,-178.64938750322165,-160.48150413555877,0,-52.92844772338867,26.539194107055664,-37.33479690551758
0.42330312728881836,-0.11140375584363937,9.75239086151123,-0.003502911957835466,0.011176553685465489,-0.008581202294345095,3.99999737739563,2019-08-06 13:46:52:009,-178.63297207026872,-160.85681642590882,0,-52.92844772338867,26.539194107055664,-37.33479690551758
0.3299078941345215,-0.049140263348817825,9.80986499786377,0.0020910919816125757,0.0029187382100508774,-0.0013889113292873795,4.009978532791138,2019-08-06 13:46:52:019,-178.62342553604353,-161.235111877379,0,-52.92844772338867,26.539194107055664,-37.33479690551758
0.33948689699172974,-0.14732499420642853,9.857759475708008,-0.006433104361316936,0.006648073996300022,-0.006982915528809746,4.019978046417236,2019-08-06 13:46:52:029,-178.6152416526034,-161.5896731120162,0,-52.92844772338867,26.539194107055664,-37.33479690551758
0.44964540004730225,-0.04674551263451576,9.776338577270508,0.004222141002326372,0.0034515004652293266,-0.0003233867214026093,4.029999256134033,2019-08-06 13:46:52:039,-178.5922116983131,-161.95477625670048,0,-52.92844772338867,26.539194107055664,-37.33479690551758
0.38498714566230774,-0.034771766513586044,9.7811279296875,0.0004928051185493561,0.012508459843560263,0.004205092610160662,4.040001153945923,2019-08-06 13:46:52:049,-178.582312084509,-162.31188379750742,0,-52.92844772338867,26.539194107055664,-37.33479690551758
0.38498714566230774,-0.013219018466770649,9.879312515258789,-0.005101198723370813,0.009578266919930143,0.009799097069757354,4.049998044967651,2019-08-06 13:46:52:059,-178.57140972853958,-162.6612494039796,0,-52.92844772338867,26.539194107055664,-37.33479690551758
0.36343440413475037,-0.003640019567683339,9.788311958312988,-0.003502911957835466,0.0026523570824616527,0.006868904146127233,4.060026407241821,2019-08-06 13:46:52:069,-178.55894740038815,-163.00562582078885,0,-52.92844772338867,26.539194107055664,-37.33479690551758
0.33230265974998474,-0.029982266947627068,9.802680015563965,-0.002970149702657017,0.0039842627204077765,0.004737855125413436,4.069966793060303,2019-08-06 13:46:52:079,-178.55116156264418,-163.34035064949327,0,-52.92844772338867,26.539194107055664,-37.33479690551758
0.31074991822242737,-0.041956014931201935,9.773942947387695,-0.0061667232337277115,0.006648073996300022,0.0031395680998037635,4.0799970626831055,2019-08-06 13:46:52:089,-178.54746187449874,-163.66515157614631,0,-52.92844772338867,26.539194107055664,-37.33479690551758
0.32511839270591736,0.020307477563619614,9.776338577270508,-0.0024373874474785677,0.0047834061031754496,0.005803379635770335,4.09000301361084,2019-08-06 13:46:52:099,-178.54110599454563,-156.79285944075266,0,-52.92844772338867,26.539194107055664,-37.33479690551758
0.2436969131231308,-0.034771766513586044,9.785917282104492,-0.002171006319889343,0.0018532135696568165,-0.0005897678815011245,4.099982738494873,2019-08-06 13:46:52:109,-178.54279171162634,-157.25171400413964,0,-52.32869338989258,25.939437866210938,-37.03491973876953
0.21256516873836517,-0.04674551263451576,9.773942947387695,-0.002970149702657017,0.006648073996300022,0.0020740435894468653,4.109999895095825,2019-08-06 13:46:52:119,-178.5507575511503,-157.69952863708858,0,-52.32869338989258,25.939437866210938,-37.03491973876953
0.23890741169452667,-0.05392976477742195,9.843391418457031,0.0010255674062370958,0.006381692868710797,-0.001122530201698155,4.119999408721924,2019-08-06 13:46:52:129,-178.5555186591033,-158.13983573575143,0,-52.32869338989258,25.939437866210938,-37.03491973876953
0.22932840883731842,-0.13295650482177734,9.864943504333496,0.0012919485988449018,0.0047834061031754496,0.0031395680998037635,4.130002021789551,2019-08-06 13:46:52:139,-178.56046078568295,-158.56232129483402,0,-52.32869338989258,25.939437866210938,-37.03491973876953
0.2173546701669693,-0.10900900512933731,9.807470321655273,0.0012919485988449018,0.008512742409573244,0.00553699850818111,4.1399970054626465,2019-08-06 13:46:52:149,-178.5686372640281,-158.97906372515098,0,-52.32869338989258,25.939437866210938,-37.03491973876953
0.24130216240882874,-0.11140375584363937,9.829022407531738,-3.9957173202045016e-05,0.0015868324420675922,0.003938711482571438,4.1500022411346436,2019-08-06 13:46:52:159,-178.5700294508557,-159.38647256343336,0,-52.32869338989258,25.939437866210938,-37.03491973876953
0.2173546701669693,-0.10900900512933731,9.812259674072266,0.0020910919816125757,0.006115311741121573,0.0010085190140713856,4.160002708435059,2019-08-06 13:46:52:169,-178.5766833497039,-159.78718732108248,0,-52.32869338989258,25.939437866210938,-37.03491973876953
0.27243390679359436,-0.07787726074457169,9.783522605895996,-0.0016382440647108938,0.005582549485943123,0.003672330354982212,4.169999599456787,2019-08-06 13:46:52:179,-178.5763821535838,-160.18140264409465,0,-52.32869338989258,25.939437866210938,-37.03491973876953
0.23890741169452667,-0.07787726074457169,9.788311958312988,0.0004928051185493561,0.007979980154394795,0.0020740435894468653,4.180001258850098,2019-08-06 13:46:52:189,-178.5813727142838,-160.56893446461558,0,-52.32869338989258,25.939437866210938,-37.03491973876953
0.20777566730976105,-0.05392976477742195,9.840996742248535,-0.0008391006169246387,0.011709315940643939,0.005803379635770335,4.18999981880188,2019-08-06 13:46:52:199,-178.59212864158667,-160.95080500635143,0,-52.32869338989258,25.939437866210938,-37.03491973876953
0.22932840883731842,-0.06829825788736343,9.840996742248535,-0.002703768575067792,0.005049787230764674,0.00047575672638364575,4.200000524520874,2019-08-06 13:46:52:209,-178.59642285234548,-161.32231790752624,0,-52.32869338989258,25.939437866210938,-37.03491973876953
0.2173546701669693,-0.04674551263451576,9.773942947387695,0.0026238542367910244,0.00824636128198402,0.007668047528894907,4.2099995613098145,2019-08-06 13:46:52:219,-178.60364539610174,-161.69186420736474,0,-52.32869338989258,25.939437866210938,-37.03491973876953
0.2245389223098755,0.02509697712957859,9.848180770874023,-3.9957173202045016e-05,0.00718083625147847,0.005803379635770335,4.21999716758728,2019-08-06 13:46:52:229,-178.6094811565984,-154.8609247229102,0,-53.228328704833984,25.939437866210938,-37.03491973876953
0.19580191373825073,-0.0012452697847038507,9.817049026489258,-0.002970149702657017,0.006381692868710797,-0.004851865987947299,4.230000734329224,2019-08-06 13:46:52:239,-178.61802376524838,-155.36189254187698,0,-53.228328704833984,25.939437866210938,-37.03491973876953
0.1646701693534851,0.008333728648722172,9.797890663146973,-0.003236530830246241,0.00025492675535753324,-0.0027208169672335025,4.240013360977173,2019-08-06 13:46:52:249,-178.626549369825,-148.65380976252754,0,-53.228328704833984,25.939437866210938,-37.03491973876953
0.2101704180240631,-0.015613768249750137,9.82183837890625,-0.0011054818095324445,0.006648073996300022,-0.0053846282431257485,4.249998092651367,2019-08-06 13:46:52:259,-178.63322868977585,-149.27829212897063,0,-53.228328704833984,25.939437866210938,-37.03491973876953
0.19340716302394867,-0.044350765645504,9.79310131072998,-0.0016382440647108938,0.005316168358353898,-0.006716534401220521,4.2599968910217285,2019-08-06 13:46:52:269,-178.64092065816604,-149.88661696516294,0,-53.228328704833984,25.939437866210938,-37.03491973876953
0.19580191373825073,-0.049140263348817825,9.893680572509766,-0.005101198723370813,0.0013204513144783674,-0.008581202294345095,4.270000219345093,2019-08-06 13:46:52:279,-178.64616852189428,-150.4803278313288,0,-53.228328704833984,25.939437866210938,-37.03491973876953
0.1646701693534851,-0.034771766513586044,9.773942947387695,-0.002970149702657017,0.0039842627204077765,-0.012843300335772686,4.279998779296875,2019-08-06 13:46:52:289,-178.65617757111505,-151.06497708925698,0,-53.228328704833984,25.939437866210938,-37.03491973876953
0.20777566730976105,-0.0706930086016655,9.82183837890625,-0.0003063383292368989,0.008512742409573244,-0.006450152753482647,4.289999723434448,2019-08-06 13:46:52:299,-178.66359675615388,-151.63525789949935,0,-53.228328704833984,25.939437866210938,-37.03491973876953
0.258065402507782,-0.06111401319503784,9.843391418457031,-0.0016382440647108938,0.003717881592818551,0.0018076624618576407,4.300001382827759,2019-08-06 13:46:52:309,-178.66237702334345,-152.19451823813964,0,-53.228328704833984,25.939437866210938,-37.03491973876953
0.23890741169452667,-0.10182476043701172,9.761969566345215,-0.004035674213013915,0.0013204513144783674,-0.004052722605179625,4.309999465942383,2019-08-06 13:46:52:319,-178.66183205656273,-152.73640994527375,0,-53.228328704833984,25.939437866210938,-37.03491973876953
0.2844076454639435,-0.08745625615119934,9.80986499786377,0.001824710854023351,-0.002408884601807939,0.0012749002066791914,4.320003271102905,2019-08-06 13:46:52:329,-178.65402922944097,-153.27249098906148,0,-53.228328704833984,25.939437866210938,-37.03491973876953
0.23172315955162048,-0.08027201145887375,9.80986499786377,-0.002703768575067792,0.006381692868710797,0.0010085190140713856,4.330000400543213,2019-08-06 13:46:52:339,-178.65746778190993,-153.79614687162257,0,-53.228328704833984,25.939437866210938,-37.03491973876953
0.28680241107940674,-0.15211449563503265,9.79310131072998,-0.0037692930854246903,0.0034515004652293266,-0.0021880547120550534,4.340000152587891,2019-08-06 13:46:52:349,-178.6527065039345,-154.300309662554,0,-53.228328704833984,25.939437866210938,-37.03491973876953
0.2891971468925476,-0.12337750196456909,9.802680015563965,0.002890235364380249,0.0047834061031754496,0.0010085190140713856,4.350000858306885,2019-08-06 13:46:52:359,-178.64854161808313,-154.80150460138353,0,-53.82808303833008,25.33968162536621,-35.83540725708008
0.23890741169452667,-0.029982266947627068,9.807470321655273,0.0023574731092018,0.0029187382100508774,0.001541281334268416,4.360000133514404,2019-08-06 13:46:52:369,-178.6493008498646,-155.30329498131192,0,-53.82808303833008,25.33968162536621,-35.83540725708008
0.2365126609802246,-0.05871926248073578,9.800285339355469,-0.0019046251923001184,0.006381692868710797,-0.001122530201698155,4.370000600814819,2019-08-06 13:46:52:379,-178.65224902048905,-155.78929381643198,0,-53.82808303833008,25.33968162536621,-35.83540725708008
0.26524966955184937,-0.05392976477742195,9.817049026489258,-0.0011054818095324445,0.0026523570824616527,-0.0003233867214026093,4.380016326904297,2019-08-06 13:46:52:389,-178.64974138550156,-156.26659123609093,0,-53.82808303833008,25.33968162536621,-35.83540725708008
0.25327590107917786,-0.05871926248073578,9.773942947387695,-0.0008391006169246387,0.009844647527370716,0.0031395680998037635,4.3899993896484375,2019-08-06 13:46:52:399,-178.65257704892963,-156.7339047807524,0,-53.82808303833008,25.33968162536621,-35.83540725708008
0.24848641455173492,-0.0635087639093399,9.749996185302734,-0.0005727194893354142,0.005582549485943123,-0.006450152753482647,4.400021553039551,2019-08-06 13:46:52:409,-178.65346879873434,-157.19144032124936,0,-53.82808303833008,25.33968162536621,-35.83540725708008
0.28680241107940674,-0.04674551263451576,9.790706634521484,-0.00723224826423326,0.0023859759548724283,-0.0032535792224119516,4.409999847412109,2019-08-06 13:46:52:419,-178.64817814879814,-157.63808832458827,0,-53.82808303833008,25.33968162536621,-35.83540725708008
0.30596041679382324,-0.07548251003026962,9.790706634521484,0.0002264239747054862,0.010111029175108591,0.0010085190140713856,4.419996976852417,2019-08-06 13:46:52:429,-178.64509197549762,-158.07661927340223,0,-53.82808303833008,25.33968162536621,-35.83540725708008
0.31074991822242737,-0.06111401319503784,9.893680572509766,-0.004035674213013915,0.0074472173790676955,-0.005651009370714973,4.429996967315674,2019-08-06 13:46:52:439,-178.6403915807458,-158.50574254727152,0,-53.82808303833008,25.33968162536621,-35.83540725708008
0.3346973955631256,-0.0635087639093399,9.7811279296875,0.0012919485988449018,0.0005213078992014032,-0.0027208169672335025,4.440000295639038,2019-08-06 13:46:52:449,-178.62868012242487,-158.92891305146665,0,-53.82808303833008,25.33968162536621,-35.83540725708008
0.3083551526069641,-0.03237701579928398,9.783522605895996,-0.003502911957835466,0.006648073996300022,0.004471473997824211,4.450067758560181,2019-08-06 13:46:52:459,-178.62375979608265,-159.34456242900066,0,-53.82808303833008,25.33968162536621,-35.83540725708008
0.30596041679382324,-0.03237701579928398,9.74281120300293,-0.0013718629371216693,0.005582549485943123,0.00047575672638364575,4.460013389587402,2019-08-06 13:46:52:469,-178.61842797356883,-159.75309701123936,0,-53.82808303833008,25.33968162536621,-35.83540725708008
0.33709216117858887,-0.0706930086016655,9.761969566345215,-0.004568436468192365,0.0031851193376401022,0.00047575672638364575,4.469997406005859,2019-08-06 13:46:52:479,-178.60829091425202,-160.14717579726639,0,-53.228328704833984,26.539194107055664,-37.63467788696289
0.3227236568927765,-0.11140375584363937,9.738021850585938,0.0012919485988449018,0.006648073996300022,0.0023404247170360896,4.479995489120483,2019-08-06 13:46:52:489,-178.60189485572056,-160.53184877466862,0,-53.228328704833984,26.539194107055664,-37.63467788696289
0.341881662607193,-0.10900900512933731,9.723653793334961,-3.9957173202045016e-05,0.0023859759548724283,-0.0024544358396442778,4.49001407623291,2019-08-06 13:46:52:499,-178.59092560519525,-160.90834333914904,0,-53.228328704833984,26.539194107055664,-37.63467788696289
