ACCELEROMETER X (m/s²),ACCELEROMETER Y (m/s²),ACCELEROMETER Z (m/s²),GYROSCOPE X (rad/s),GYROSCOPE Y (rad/s),GYROSCOPE Z (rad/s),Time since start in ms ,YYYY-MO-DD HH-MI-SS_SSS,Pitch (Deg),Roll (Deg),Heading (Deg),MagX,MagY,MagZ
0.03344028443098068,-0.012843042612075806,9.821443557739258,-0.0005372907668567566,-0.0020314226090325893,0.011575859320814643,0.0,2019-07-25 11:32:23:043,-3.5960983744426227,-3.598501540605459,0,-49.629791259765625,18.44249153137207,-61.32503128051758
0.12923027575016022,-0.046369537711143494,9.835811614990234,-0.0026683399501170064,-0.0025641848642110384,0.012641383831171542,0.009987354278564453,2019-07-25 11:32:23:053,-7.1076834084679374,-7.119632918840516,0,-49.629791259765625,18.44249153137207,-61.32503128051758
0.09570377320051193,-0.07989603281021118,9.771153450012207,-0.0008036719269552719,-0.00149866035385414,0.011575859320814643,0.019986391067504883,2019-07-25 11:32:23:063,-10.553464989525882,-10.56741941561274,0,-49.629791259765625,18.44249153137207,-61.32503128051758
0.05738778039813042,-0.04876428842544556,9.761574745178223,-4.528479676974485e-06,-0.004961615272588385,0.009711190907541422,0.030009984970092773,2019-07-25 11:32:23:073,-13.932866476999585,-13.950344064730428,0,-49.629791259765625,18.44249153137207,-61.32503128051758
0.06936153024435043,-0.041580040007829666,9.862154006958008,0.000528233808518723,-0.00469523414499916,0.01317414608634999,0.04004526138305664,2019-07-25 11:32:23:083,-17.2435042719281,-17.266803541523256,0,-49.629791259765625,18.44249153137207,-61.32503128051758
0.021466536447405815,-0.0391852892935276,9.833416938781738,0.0018601394789741364,-0.007891807676069855,0.013440526693790566,0.04999208450317383,2019-07-25 11:32:23:093,-20.49172495958335,-20.517940035102455,0,-49.629791259765625,18.44249153137207,-61.32503128051758
0.007098038215190172,-0.04397478699684143,9.819048881530762,-0.0008036719269552719,-0.004961615272588385,0.015038813459325912,0.060001373291015625,2019-07-25 11:32:23:103,-23.678273567895808,-23.70199758527265,0,-49.629791259765625,18.44249153137207,-61.32503128051758
0.04780878126621246,-0.041580040007829666,9.819048881530762,0.000528233808518723,-0.0036297093745679366,0.012108621575993093,0.0699920654296875,2019-07-25 11:32:23:113,-26.79709251733355,-26.823401460405677,0,-49.629791259765625,18.44249153137207,-61.32503128051758
0.05738778039813042,-0.053553786128759384,9.814258575439453,-0.0008036719269552719,-0.00469523414499916,0.011575859320814643,0.08017706871032715,2019-07-25 11:32:23:123,-29.85176498873367,-29.88022092897125,0,-49.629791259765625,18.44249153137207,-61.32503128051758
0.043019283562898636,-0.06073803827166557,9.732837677001953,0.0007946149686172382,-0.00016675460212549993,0.009711190907541422,0.09001946449279785,2019-07-25 11:32:23:133,-32.8495726016343,-32.875904629123305,0,-49.629791259765625,18.44249153137207,-61.32503128051758
0.019071785733103752,-0.04397478699684143,9.737627029418945,0.001060996096206463,-0.00016675460212549993,0.01477243285188534,0.1000206470489502,2019-07-25 11:32:23:143,-35.79024315754235,-35.813807474847344,0,-49.629791259765625,18.44249153137207,-61.32503128051758
0.05499303340911865,-0.041580040007829666,9.871732711791992,0.0015937583513849119,-0.0009658980336571096,0.012907764438612116,0.10999369621276855,2019-07-25 11:32:23:153,-38.667513853297784,-38.69359720372495,0,-49.629791259765625,18.44249153137207,-61.32503128051758
0.05738778039813042,-0.024816790595650673,9.761574745178223,0.004257569887351483,-0.0012322792262649154,0.008912048044922398,0.11998963356018066,2019-07-25 11:32:23:163,-41.48673523483583,-41.51920166034073,0,-49.629791259765625,18.44249153137207,-61.32503128051758
0.06457202881574631,-0.07510653138160706,9.7759428024292,0.0007946149686172382,-0.0033633282469787123,0.009444810300100848,0.1300029754638672,2019-07-25 11:32:23:173,-44.24754061804675,-44.280460740163036,0,-49.629791259765625,18.44249153137207,-61.32503128051758
0.1435987651348114,-0.015237792395055294,9.807074546813965,0.004257569887351483,-0.0009658980336571096,0.009178428652362973,0.13999342918395996,2019-07-25 11:32:23:183,-46.945270257633354,-46.99545939211043,0,-49.629791259765625,18.44249153137207,-61.32503128051758
0.10049327462911606,-0.034395791590213776,9.874127388000488,-0.002401958822527782,0.0003660077018168852,0.009711190907541422,0.1499941349029541,2019-07-25 11:32:23:193,-49.594908302763265,-49.65020971651801,0,-49.629791259765625,18.44249153137207,-61.32503128051758
0.07654578238725662,0.0015254555037245154,9.883707046508789,-4.528479676974485e-06,-0.0030969471193894875,0.007047379631649175,0.1599900722503662,2019-07-25 11:32:23:203,-52.1923973818783,-45.05737984157839,0,-49.629791259765625,18.44249153137207,-61.32503128051758
0.11007227748632431,-0.07989603281021118,9.790311813354492,0.004523950754866383,0.0024970568200585537,0.006248236248881503,0.17017269134521484,2019-07-25 11:32:23:213,-54.73709417018555,-47.74946753240044,0,-49.629791259765625,18.44249153137207,-61.32503128051758
0.10288802534341812,-0.020027291029691696,9.792706489562988,0.005855856912961156,9.962654984569266e-05,0.006248236248881503,0.18003129959106445,2019-07-25 11:32:23:223,-57.23036820513596,-50.395376211776586,0,-49.629791259765625,18.44249153137207,-61.32503128051758
0.07894052565097809,0.011104454286396503,9.847785949707031,0.0007946149686172382,-0.0025641848642110384,0.006780998504059952,0.18999433517456055,2019-07-25 11:32:23:233,-59.67514083581084,-45.78920535794738,0,-49.629791259765625,18.44249153137207,-61.32503128051758
0.11965127289295197,-0.017632542178034782,9.859759330749512,0.003458426504583809,-0.00149866035385414,0.00038785095427920163,0.20017361640930176,2019-07-25 11:32:23:243,-62.0668760742648,-48.47334868967015,0,-50.379486083984375,20.091819763183594,-60.27545928955078
0.08373002707958221,-0.010448292829096317,9.754390716552734,-0.001336434182133721,-0.00469523414499916,0.00038785095427920163,0.20999622344970703,2019-07-25 11:32:23:253,-64.41311284999543,-51.10191718898528,0,-50.379486083984375,20.091819763183594,-60.27545928955078
0.09330902993679047,-0.041580040007829666,9.759180068969727,-0.0016028153097229455,-0.004428853017409935,0.00038785095427920163,0.22002124786376953,2019-07-25 11:32:23:263,-66.71140163265538,-53.67409434693577,0,-50.379486083984375,20.091819763183594,-60.27545928955078
0.13401977717876434,0.003920205403119326,9.751995086669922,-0.0026683399501170064,0.0003660077018168852,-0.001210435973802599,0.23005247116088867,2019-07-25 11:32:23:273,-68.96163265009652,-48.99957015934433,0,-50.379486083984375,20.091819763183594,-60.27545928955078
0.1507830172777176,-0.07510653138160706,9.840600967407227,0.0015937583513849119,-0.0020314226090325893,0.0011869944345747473,0.23999881744384766,2019-07-25 11:32:23:283,-71.16370851069715,-51.611723033013256,0,-50.379486083984375,20.091819763183594,-60.27545928955078
0.12444077432155609,-0.04397478699684143,9.730443000793457,-0.0026683399501170064,-0.004162471629746385,0.004916330610935379,0.24999523162841797,2019-07-25 11:32:23:293,-73.32344385999149,-54.172812139760886,0,-50.379486083984375,20.091819763183594,-60.27545928955078
0.1435987651348114,-0.06313278526067734,9.79749584197998,-0.002135577564901395,-0.0020314226090325893,0.0006542321143777169,0.26018595695495605,2019-07-25 11:32:23:303,-75.43901847078455,-56.68074999130172,0,-50.379486083984375,20.091819763183594,-60.27545928955078
0.15317776799201965,-0.05594853684306145,9.780732154846191,0.00265928286174181,0.0006323888619154005,0.001986137817342421,0.2699878215789795,2019-07-25 11:32:23:313,-77.51264123261394,-59.142043702186356,0,-50.379486083984375,20.091819763183594,-60.27545928955078
0.12923027575016022,-0.046369537711143494,9.804679870605469,0.00026185266467485305,-0.006559902038123733,0.0033180435853257064,0.28017687797546387,2019-07-25 11:32:23:323,-79.54353256532734,-61.553933268560044,0,-50.379486083984375,20.091819763183594,-60.27545928955078
0.14599351584911346,-0.041580040007829666,9.763969421386719,0.00026185266467485305,-0.002830565991800263,0.00012146980230800906,0.28999996185302734,2019-07-25 11:32:23:333,-81.53396790977304,-63.91811915918274,0,-50.379486083984375,20.091819763183594,-60.27545928955078
0.11246702820062637,-0.010448292829096317,9.778337478637695,-0.0005372907668567566,-0.0025641848642110384,-0.0004112924935070534,0.3000295162200928,2019-07-25 11:32:23:343,-83.48866516963882,-66.2382297696859,0,-50.379486083984375,20.091819763183594,-60.27545928955078
0.1507830172777176,-0.04876428842544556,9.742416381835938,-0.0018691964373121703,-0.004428853017409935,0.0027852813301472578,0.30999112129211426,2019-07-25 11:32:23:353,-85.39868074209218,-68.50668398213098,0,-50.379486083984375,20.091819763183594,-60.27545928955078
0.12683552503585815,-0.04397478699684143,9.799890518188477,0.002925663989331035,-0.006559902038123733,0.002518900202558033,0.3199899196624756,2019-07-25 11:32:23:363,-87.27219395760805,-70.73305085952678,0,-50.379486083984375,20.091819763183594,-60.27545928955078
0.13880927860736847,-0.03679053857922554,9.725653648376465,-0.004533008103315903,-0.0017650414814433647,0.0033180435853257064,0.32999444007873535,2019-07-25 11:32:23:373,-89.10940460551905,-72.91150862548092,0,-50.379486083984375,20.091819763183594,-60.27545928955078
0.10767752677202225,-0.053553786128759384,9.790311813354492,-0.0005372907668567566,-0.0036297093745679366,0.0033180435853257064,0.3399927616119385,2019-07-25 11:32:23:383,-90.91257607666905,-75.04670862845795,0,-50.379486083984375,20.091819763183594,-60.27545928955078
0.12444077432155609,-0.07271178811788559,9.795101165771484,-0.0016028153097229455,-0.004428853017409935,0.005981855121292278,0.3500070571899414,2019-07-25 11:32:23:393,-92.67727683105475,-77.13636689354801,0,-50.379486083984375,20.091819763183594,-60.27545928955078
0.12204602360725403,-0.07271178811788559,9.82623291015625,-0.0018691964373121703,-0.004162471629746385,0.0057154739937030526,0.35999178886413574,2019-07-25 11:32:23:403,-94.40716560994555,-79.18411225865802,0,-50.379486083984375,20.091819763183594,-60.27545928955078
0.10288802534341812,-0.07271178811788559,9.771153450012207,0.0031920451169202596,-0.004162471629746385,0.0065146173764707264,0.3699965476989746,2019-07-25 11:32:23:413,-96.10461817851065,-81.193696051297,0,-50.379486083984375,20.091819763183594,-60.27545928955078
0.09330902993679047,-0.041580040007829666,9.823838233947754,0.0013273772237956873,-0.006027139782945282,0.00438356835575693,0.37999439239501953,2019-07-25 11:32:23:423,-97.76825847627333,-83.16571715616365,0,-50.379486083984375,20.091819763183594,-60.27545928955078
0.12204602360725403,-0.09905403107404709,9.807074546813965,-0.0010700530545444964,-0.0022978037366218136,0.0006542321143777169,0.3900010585784912,2019-07-25 11:32:23:433,-99.39734240235939,-85.09022792402465,0,-50.379486083984375,20.091819763183594,-60.27545928955078
0.050203531980514526,-0.07031703740358353,9.816654205322266,0.004790331882455607,-0.003896090502157161,0.0057154739937030526,0.4000546932220459,2019-07-25 11:32:23:443,-101.0013358744922,-86.98291946376604,0,-50.379486083984375,20.091819763183594,-60.27545928955078
0.08612477779388428,-0.08229078352451324,9.783126831054688,0.0023929017341525857,-0.00043313574596936985,0.008112904142006074,0.40999388694763184,2019-07-25 11:32:23:453,-102.57097973810706,-88.834957872463,0,-50.379486083984375,20.091819763183594,-60.27545928955078
0.09330902993679047,-0.04397478699684143,9.866943359375,-0.002135577564901395,-0.00149866035385414,0.003584424712914931,0.41999292373657227,2019-07-25 11:32:23:463,-104.10788243609255,-90.6519526477724,0,-50.379486083984375,20.091819763183594,-60.27545928955078
0.06457202881574631,-0.027211541309952736,9.74720573425293,0.0013273772237956873,-0.0017650414814433647,0.00438356835575693,0.429990291595459,2019-07-25 11:32:23:473,-105.61714277738861,-92.43645964350387,0,-50.379486083984375,20.091819763183594,-60.27545928955078
0.043019283562898636,-0.0655275359749794,9.871732711791992,0.0023929017341525857,-0.005227996400177609,-0.0017431982289810482,0.4401876926422119,2019-07-25 11:32:23:483,-107.09681279365357,-94.18149422782263,0,-50.379486083984375,20.091819763183594,-60.27545928955078
0.07654578238725662,-0.07031703740358353,9.783126831054688,0.0015937583513849119,-0.0033633282469787123,0.0033180435853257064,0.45001935958862305,2019-07-25 11:32:23:493,-108.54405405837691,-95.8905079506627,0,-50.379486083984375,19.19218635559082,-60.57533645629883
0.08612477779388428,-0.046369537711143494,9.74720573425293,0.005589475785371931,-0.0054943775277668345,-0.0017431982289810482,0.4599933624267578,2019-07-25 11:32:23:503,-109.95997104549572,-97.57037679165575,0,-50.379486083984375,19.19218635559082,-60.57533645629883
0.050203531980514526,-0.041580040007829666,9.780732154846191,-0.00027090962301288673,-0.00043313574596936985,0.00038785095427920163,0.46999526023864746,2019-07-25 11:32:23:513,-111.35464655342538,-99.21394560212639,0,-50.379486083984375,19.19218635559082,-60.57533645629883
0.05499303340911865,-0.03200104087591171,9.768758773803711,0.0021265206065633614,-0.0022978037366218136,-0.0017431982289810482,0.479999303817749,2019-07-25 11:32:23:523,-112.71981204607579,-100.82710737101877,0,-50.379486083984375,19.19218635559082,-60.57533645629883
0.06696677953004837,-0.010448292829096317,9.821443557739258,-0.00027090962301288673,-0.004961615272588385,-0.004673391022574007,0.4899933338165283,2019-07-25 11:32:23:533,-114.05481830933022,-102.40919414634281,0,-50.379486083984375,19.19218635559082,-60.57533645629883
0.08373002707958221,-0.07989603281021118,9.833416938781738,-0.002401958822527782,-0.0017650414814433647,-0.004140628507321232,0.5001771450042725,2019-07-25 11:32:23:543,-115.36295559927096,-103.95032647286573,0,-50.379486083984375,19.19218635559082,-60.57533645629883
0.05259828269481659,-0.027211541309952736,9.816654205322266,-0.0005372907668567566,-0.0054943775277668345,-0.010533775829536947,0.5100038051605225,2019-07-25 11:32:23:553,-116.64652504581412,-105.46784704111428,0,-50.379486083984375,19.19218635559082,-60.57533645629883
0.04780878126621246,-0.020027291029691696,9.732837677001953,-0.0008036719269552719,-0.002830565991800263,-0.011066538084715397,0.5200166702270508,2019-07-25 11:32:23:563,-117.9063743216552,-106.95568030822363,0,-50.379486083984375,19.19218635559082,-60.57533645629883
0.03104553557932377,-0.02960629016160965,9.751995086669922,-0.002401958822527782,-0.0012322792262649154,-0.008669107936412375,0.5299797058105469,2019-07-25 11:32:23:573,-119.14390945285024,-108.41174409190091,0,-50.379486083984375,19.19218635559082,-60.57533645629883
0.03104553557932377,-0.0032640439458191395,9.809469223022461,-0.004799389230905129,0.001165151182112431,-0.014529493263523966,0.5399649143218994,2019-07-25 11:32:23:583,-120.3580578837328,-109.84043704887848,0,-50.379486083984375,19.19218635559082,-60.57533645629883
0.10049327462911606,-0.024816790595650673,9.85496997833252,-0.0018691964373121703,-0.005227996400177609,-0.013197587105429193,0.5499718189239502,2019-07-25 11:32:23:593,-121.536274440555,-111.23969239282752,0,-50.379486083984375,19.19218635559082,-60.57533645629883
0.13880927860736847,-0.06313278526067734,9.749600410461426,-0.005598532613672802,-0.0009658980336571096,-0.019590735207867884,0.5599751472473145,2019-07-25 11:32:23:603,-122.6886926270658,-112.60433374596099,0,-50.379486083984375,19.19218635559082,-60.57533645629883
0.098098523914814,-0.017632542178034782,9.766364097595215,-0.002401958822527782,-0.0006995169060678851,-0.013463968753167068,0.5699596405029297,2019-07-25 11:32:23:613,-123.82301681090921,-113.94883159117902,0,-50.379486083984375,19.19218635559082,-60.57533645629883
0.08851952850818634,-0.012843042612075806,9.790311813354492,-0.004266626715652354,0.0024970568200585537,-0.012132062595072296,0.5799527168273926,2019-07-25 11:32:23:623,-124.93759703478484,-115.26595768870052,0,-50.379486083984375,19.19218635559082,-60.57533645629883
0.12444077432155609,-0.05115903913974762,9.79749584197998,-0.002401958822527782,-0.0020314226090325893,-0.010800157477274823,0.5899510383605957,2019-07-25 11:32:23:633,-126.02315082807962,-116.55330655536495,0,-50.379486083984375,19.19218635559082,-60.57533645629883
0.14120401442050934,-0.03200104087591171,9.852575302124023,-0.0018691964373121703,-0.00469523414499916,-0.013197587105429193,0.5999469757080078,2019-07-25 11:32:23:643,-127.08363073697284,-117.81746939303635,0,-50.379486083984375,19.19218635559082,-60.57533645629883
0.07415103167295456,-0.017632542178034782,9.85496997833252,-0.002401958822527782,-0.0022978037366218136,-0.012664824850250743,0.6099507808685303,2019-07-25 11:32:23:653,-128.13204545124105,-119.05772052190243,0,-50.379486083984375,19.19218635559082,-60.57533645629883
0.10528277605772018,-0.020027291029691696,9.773548126220703,-0.0005372907668567566,-0.0006995169060678851,-0.009468251319180047,0.6203973293304443,2019-07-25 11:32:23:664,-129.15665065164063,-120.27390282248334,0,-50.379486083984375,19.19218635559082,-60.57533645629883
0.1699410229921341,-0.07510653138160706,9.831022262573242,-0.0016028153097229455,9.962654984569266e-05,-0.017193304539416213,0.6299686431884766,2019-07-25 11:32:23:673,-130.1537646265913,-121.45880903238063,0,-50.379486083984375,19.19218635559082,-60.57533645629883
0.15796726942062378,-0.08229078352451324,9.814258575439453,-0.0005372907668567566,-0.006559902038123733,-0.01373034936060764,0.6404354572296143,2019-07-25 11:32:23:684,-131.1283913025881,-122.61970901062104,0,-50.379486083984375,19.19218635559082,-60.57533645629883
0.16754627227783203,-0.034395791590213776,9.811863899230957,0.002925663989331035,-0.00043313574596936985,-0.004673391022574007,0.6499695777893066,2019-07-25 11:32:23:693,-132.08602597904806,-123.7648640281187,0,-50.379486083984375,19.19218635559082,-60.57533645629883
0.19867801666259766,-0.0391852892935276,9.811863899230957,0.0013273772237956873,-0.002830565991800263,-0.006804440043287803,0.6604037284851074,2019-07-25 11:32:23:704,-133.01944690613254,-124.88576804849832,0,-50.379486083984375,19.19218635559082,-60.57533645629883
0.15557251870632172,-0.04876428842544556,9.732837677001953,0.0018601394789741364,0.000898769989504625,-0.004673391022574007,0.6700234413146973,2019-07-25 11:32:23:713,-133.94122834503074,-125.98331611822701,0,-50.379486083984375,19.19218635559082,-60.57533645629883
0.15796726942062378,-0.046369537711143494,9.783126831054688,0.000528233808518723,0.0024970568200585537,-0.003075103996964334,0.6799685955047607,2019-07-25 11:32:23:723,-134.8452967940213,-127.05851346335322,0,-50.379486083984375,19.19218635559082,-60.57533645629883
0.1507830172777176,-0.0655275359749794,9.819048881530762,-0.002401958822527782,-0.0012322792262649154,-0.004939772150163231,0.6903870105743408,2019-07-25 11:32:23:734,-135.73007448840704,-128.1082908985901,0,-50.379486083984375,19.19218635559082,-60.57533645629883
0.20346751809120178,-0.03679053857922554,9.780732154846191,-0.0026683399501170064,0.00169791343729088,-0.005206153277752455,0.7000141143798828,2019-07-25 11:32:23:743,-136.59255590290195,-129.14037230323783,0,-50.52942657470703,18.44249153137207,-60.125518798828125
0.15317776799201965,-0.07031703740358353,9.766364097595215,-0.002135577564901395,-0.00469523414499916,-0.0038742473797320075,0.7106177806854248,2019-07-25 11:32:23:754,-137.43993795405282,-130.1480429885189,0,-50.52942657470703,18.44249153137207,-60.125518798828125
0.19388851523399353,-0.020027291029691696,9.814258575439453,-0.0018691964373121703,0.0003660077018168852,-0.004407009894984782,0.7199687957763672,2019-07-25 11:32:23:763,-138.26869583729402,-131.14176230290028,0,-50.52942657470703,18.44249153137207,-60.125518798828125
0.20346751809120178,-0.07031703740358353,9.845390319824219,-0.002135577564901395,-0.004961615272588385,-0.002808722869375109,0.7299740314483643,2019-07-25 11:32:23:773,-139.07685608857295,-132.1095431685113,0,-50.52942657470703,18.44249153137207,-60.125518798828125
0.10528277605772018,-0.0655275359749794,9.783126831054688,-0.00027090962301288673,-0.0009658980336571096,0.0009206132419669414,0.73996901512146,2019-07-25 11:32:23:783,-139.88244539979416,-133.05952502035873,0,-50.52942657470703,18.44249153137207,-60.125518798828125
0.14838826656341553,-0.08229078352451324,9.768758773803711,-0.00027090962301288673,-0.006027139782945282,-0.0004112924935070534,0.7499680519104004,2019-07-25 11:32:23:793,-140.66400737148948,-133.98852960011112,0,-50.52942657470703,18.44249153137207,-60.125518798828125
0.15557251870632172,-0.03200104087591171,9.833416938781738,0.0007946149686172382,0.0032962002028262276,-0.001210435973802599,0.7599749565124512,2019-07-25 11:32:23:803,-141.43445152534275,-134.90547633372958,0,-50.52942657470703,18.44249153137207,-60.125518798828125
0.15796726942062378,-0.06073803827166557,9.828627586364746,-0.0010700530545444964,-0.003896090502157161,-0.00547253440534168,0.7699546813964844,2019-07-25 11:32:23:813,-142.18516352833495,-135.799685859514,0,-50.52942657470703,18.44249153137207,-60.125518798828125
0.14838826656341553,-0.05594853684306145,9.809469223022461,0.000528233808518723,0.0019642945648801046,0.0014533755621639719,0.7799644470214844,2019-07-25 11:32:23:823,-142.92523129074485,-136.67745334907238,0,-50.52942657470703,18.44249153137207,-60.125518798828125
0.1507830172777176,-0.06792228668928146,9.835811614990234,-0.0066640571240297,-0.008158188803659079,-0.0036078662521427827,0.7899696826934814,2019-07-25 11:32:23:833,-143.64457794164986,-137.5322473427037,0,-50.52942657470703,18.44249153137207,-60.125518798828125
0.13401977717876434,-0.03200104087591171,9.79749584197998,-0.002401958822527782,-0.0020314226090325893,-0.002808722869375109,0.7999610900878906,2019-07-25 11:32:23:843,-144.3548727397974,-138.37651202813353,0,-50.52942657470703,18.44249153137207,-60.125518798828125
0.17952001094818115,-0.046369537711143494,9.82623291015625,0.003724807632173034,-0.004162471629746385,-0.0022759606141966597,0.8099653720855713,2019-07-25 11:32:23:853,-145.0445041268725,-139.20566667513165,0,-50.52942657470703,18.44249153137207,-60.125518798828125
0.1627567708492279,-0.046369537711143494,9.763969421386719,0.002925663989331035,-0.0020314226090325893,-0.0017431982289810482,0.8199620246887207,2019-07-25 11:32:23:863,-145.72337415034713,-140.01775358340305,0,-50.52942657470703,18.44249153137207,-60.125518798828125
0.20346751809120178,-0.024816790595650673,9.831022262573242,-0.005332151486083577,-0.0054943775277668345,-0.0017431982289810482,0.829960823059082,2019-07-25 11:32:23:873,-146.38210892322107,-140.81151220735978,0,-50.52942657470703,18.44249153137207,-60.125518798828125
0.1627567708492279,-0.09426452964544296,9.732837677001953,-0.003733864460473905,0.0035625813304154524,-0.007603583426055476,0.8399686813354492,2019-07-25 11:32:23:883,-147.03730798521613,-141.58208567528507,0,-50.52942657470703,18.44249153137207,-60.125518798828125
0.15317776799201965,-0.03679053857922554,9.799890518188477,-0.007463200506797374,-0.0006995169060678851,-0.004140628507321232,0.8499691486358643,2019-07-25 11:32:23:893,-147.67825918644962,-142.3419512375289,0,-50.52942657470703,18.44249153137207,-60.125518798828125
0.14838826656341553,-0.034395791590213776,9.763969421386719,-0.0018691964373121703,-0.00016675460212549993,-0.004140628507321232,0.8599648475646973,2019-07-25 11:32:23:903,-148.3071866588476,-143.0900263826856,0,-50.52942657470703,18.44249153137207,-60.125518798828125
0.1364145278930664,-0.0032640439458191395,9.795101165771484,0.0031920451169202596,-0.00043313574596936985,-0.0022759606141966597,0.8699636459350586,2019-07-25 11:32:23:913,-148.9248418309618,-143.8296361125931,0,-50.52942657470703,18.44249153137207,-60.125518798828125
0.17473050951957703,-0.008053543046116829,9.787917137145996,0.0021265206065633614,-0.0017650414814433647,-0.0017431982289810482,0.8799681663513184,2019-07-25 11:32:23:923,-149.52489916200707,-144.55329510414035,0,-50.52942657470703,18.44249153137207,-60.125518798828125
0.1435987651348114,-0.04397478699684143,9.787917137145996,-0.0016028153097229455,0.0038289624580046767,-0.0036078662521427827,0.8899614810943604,2019-07-25 11:32:23:933,-150.11973914981928,-145.2561815331562,0,-50.52942657470703,18.44249153137207,-60.125518798828125
0.12923027575016022,-0.07271178811788559,9.7759428024292,0.003458426504583809,-0.0017650414814433647,-0.006538058915698578,0.8999791145324707,2019-07-25 11:32:23:943,-150.7012043301905,-145.94448026178938,0,-50.52942657470703,18.44249153137207,-60.125518798828125
0.16515152156352997,-0.0391852892935276,9.802285194396973,0.003458426504583809,-0.00043313574596936985,-0.004939772150163231,0.9099786281585693,2019-07-25 11:32:23:953,-151.26763218457677,-146.62295161422878,0,-50.52942657470703,18.44249153137207,-60.125518798828125
0.1435987651348114,-0.05834328755736351,9.85496997833252,0.0013273772237956873,-0.004428853017409935,-0.0014768171013918236,0.9199750423431396,2019-07-25 11:32:23:963,-151.82309745089876,-147.28445367726044,0,-50.52942657470703,18.44249153137207,-60.125518798828125
0.14599351584911346,-0.0391852892935276,9.816654205322266,-4.528479676974485e-06,-0.0025641848642110384,-0.0033414851245535584,0.9299874305725098,2019-07-25 11:32:23:973,-152.36815310416847,-147.93418791327107,0,-50.52942657470703,18.44249153137207,-60.125518798828125
0.1771252602338791,-0.05834328755736351,9.845390319824219,-0.001336434182133721,-0.0025641848642110384,-0.005206153277752455,0.9399752616882324,2019-07-25 11:32:23:983,-152.89873843166515,-148.56796410355963,0,-50.52942657470703,18.44249153137207,-60.125518798828125
0.18191476166248322,-0.03200104087591171,9.792706489562988,0.00026185266467485305,-0.0033633282469787123,-0.0009440547811947932,0.9499785900115967,2019-07-25 11:32:23:993,-153.41758981311688,-149.19300723984645,0,-49.479854583740234,18.292551040649414,-61.17509078979492
0.17473050951957703,-0.010448292829096317,9.749600410461426,-0.0005372907668567566,0.0019642945648801046,-0.0006776736536055686,0.9599771499633789,2019-07-25 11:32:24:003,-153.92980612084924,-149.80761741479074,0,-49.479854583740234,18.292551040649414,-61.17509078979492
0.17952001094818115,-0.05834328755736351,9.783126831054688,0.001060996096206463,-0.0012322792262649154,-0.0004112924935070534,0.9699845314025879,2019-07-25 11:32:24:013,-154.42949241607943,-150.40522747883432,0,-49.479854583740234,18.292551040649414,-61.17509078979492
0.18670426309108734,-0.05834328755736351,9.804679870605469,0.0007946149686172382,-0.0025641848642110384,-0.004673391022574007,0.9799773693084717,2019-07-25 11:32:24:023,-154.91764551011266,-150.99075003157702,0,-49.479854583740234,18.292551040649414,-61.17509078979492
0.1771252602338791,-0.005658793728798628,9.842995643615723,0.000528233808518723,-0.0036297093745679366,-0.004939772150163231,0.9899814128875732,2019-07-25 11:32:24:033,-155.39663510881616,-151.5705729601783,0,-49.479854583740234,18.292551040649414,-61.17509078979492
0.15557251870632172,-0.027211541309952736,9.864548683166504,-0.0010700530545444964,-0.005760758655356059,-0.0025423417417858845,0.9999756813049316,2019-07-25 11:32:24:043,-155.86739901429178,-152.13539999052804,0,-49.479854583740234,18.292551040649414,-61.17509078979492
0.1962832659482956,-0.041580040007829666,9.819048881530762,0.00026185266467485305,-0.003896090502157161,0.0006542321143777169,1.0099773406982422,2019-07-25 11:32:24:053,-156.32495916343044,-152.68798654537778,0,-49.479854583740234,18.292551040649414,-61.17509078979492
0.17473050951957703,-0.046369537711143494,9.783126831054688,0.001060996096206463,0.0024970568200585537,0.00012146980230800906,1.0199837684631348,2019-07-25 11:32:24:063,-156.7793986461372,-153.22939163693408,0,-49.479854583740234,18.292551040649414,-61.17509078979492
0.16515152156352997,-0.015237792395055294,9.804679870605469,-0.00400024558806313,-0.0030969471193894875,-0.0009440547811947932,1.0299839973449707,2019-07-25 11:32:24:073,-157.22277155020495,-153.76077671467812,0,-49.479854583740234,18.292551040649414,-61.17509078979492
0.1771252602338791,-0.05115903913974762,9.783126831054688,0.0007946149686172382,-0.0017650414814433647,-0.0004112924935070534,1.0399656295776367,2019-07-25 11:32:24:083,-157.6565821310551,-154.2800142386126,0,-49.479854583740234,18.292551040649414,-61.17509078979492
0.15317776799201965,-0.04876428842544556,9.819048881530762,-0.005598532613672802,-0.00869095105883753,0.00012146980230800906,1.04996919631958,2019-07-25 11:32:24:093,-158.08069388675068,-154.7855783566632,0,-49.479854583740234,18.292551040649414,-61.17509078979492
0.18191476166248322,-0.017632542178034782,9.819048881530762,-0.0032011022052954555,-0.0030969471193894875,0.0009206132419669414,1.0599675178527832,2019-07-25 11:32:24:103,-158.49611374139914,-155.28601190271155,0,-49.479854583740234,18.292551040649414,-61.17509078979492
0.1172565221786499,-0.017632542178034782,9.823838233947754,-0.002934721077706231,0.0006323888619154005,-0.00547253440534168,1.069974660873413,2019-07-25 11:32:24:113,-158.9128699012815,-155.77658587494378,0,-49.479854583740234,18.292551040649414,-61.17509078979492
0.12923027575016022,-0.02242204174399376,9.79749584197998,-0.0010700530545444964,-0.002830565991800263,0.002518900202558033,1.0799708366394043,2019-07-25 11:32:24:123,-159.31790984923634,-156.2578310753689,0,-49.479854583740234,18.292551040649414,-61.17509078979492
0.12204602360725403,-0.0391852892935276,9.763969421386719,-0.004799389230905129,-0.0017650414814433647,0.002252519074968808,1.0899672508239746,2019-07-25 11:32:24:133,-159.7162381620817,-156.7253817440314,0,-49.479854583740234,18.292551040649414,-61.17509078979492
0.15796726942062378,-0.0391852892935276,9.795101165771484,-0.002934721077706231,-0.0022978037366218136,0.004916330610935379,1.0999763011932373,2019-07-25 11:32:24:143,-160.10214324295112,-157.18464056654915,0,-49.479854583740234,18.292551040649414,-61.17509078979492
0.1699410229921341,-0.034395791590213776,9.761574745178223,0.0007946149686172382,-0.004162471629746385,0.0009206132419669414,1.109968662261963,2019-07-25 11:32:24:153,-160.47781750429468,-157.6373558690867,0,-49.479854583740234,18.292551040649414,-61.17509078979492
0.16754627227783203,-0.04397478699684143,9.845390319824219,0.00026185266467485305,-0.0036297093745679366,-0.0017431982289810482,1.119978666305542,2019-07-25 11:32:24:163,-160.84672202940973,-158.07963768989254,0,-49.479854583740234,18.292551040649414,-61.17509078979492
0.1771252602338791,-0.017632542178034782,9.840600967407227,-0.0026683399501170064,-0.006027139782945282,-0.0038742473797320075,1.1299703121185303,2019-07-25 11:32:24:173,-161.2057825787982,-158.51449465130966,0,-49.479854583740234,18.292551040649414,-61.17509078979492
0.11965127289295197,-0.0391852892935276,9.792706489562988,0.0023929017341525857,-0.00043313574596936985,0.0017197566897531966,1.1399726867675781,2019-07-25 11:32:24:183,-161.56742309802627,-158.94096335806375,0,-49.479854583740234,18.292551040649414,-61.17509078979492
0.1507830172777176,-0.05115903913974762,9.809469223022461,0.001060996096206463,-0.00469523414499916,0.0011869944345747473,1.1499683856964111,2019-07-25 11:32:24:193,-161.91582672630992,-159.35676337651,0,-49.479854583740234,18.292551040649414,-61.17509078979492
0.1771252602338791,-0.03679053857922554,9.780732154846191,0.000528233808518723,-0.0025641848642110384,0.00411718696809338,1.1599726676940918,2019-07-25 11:32:24:203,-162.25531997087745,-159.76561446052992,0,-49.479854583740234,18.292551040649414,-61.17509078979492
0.1364145278930664,-0.08229078352451324,9.828627586364746,-0.005065770358494353,-0.0017650414814433647,0.006780998504059952,1.1699979305267334,2019-07-25 11:32:24:213,-162.5933165075869,-160.15785653838984,0,-49.479854583740234,18.292551040649414,-61.17509078979492
0.14838826656341553,-0.06313278526067734,9.79749584197998,0.000528233808518723,-0.0022978037366218136,0.0014533755621639719,1.179969072341919,2019-07-25 11:32:24:223,-162.9228095150707,-160.54761124280793,0,-49.479854583740234,18.292551040649414,-61.17509078979492
0.13401977717876434,-0.08708028495311737,9.778337478637695,-0.0016028153097229455,-0.0020314226090325893,0.00012146980230800906,1.189969539642334,2019-07-25 11:32:24:233,-163.24750794268232,-160.92555439771934,0,-49.479854583740234,18.292551040649414,-61.17509078979492
0.13401977717876434,-0.07750128209590912,9.819048881530762,0.00026185266467485305,-0.0025641848642110384,0.004649949483346154,1.1999704837799072,2019-07-25 11:32:24:243,-163.56547827996093,-161.29814588455926,0,-47.980464935302734,18.292551040649414,-60.57533645629883
0.15557251870632172,-0.053553786128759384,9.795101165771484,-0.0026683399501170064,-0.002830565991800263,0.002252519074968808,1.209975004196167,2019-07-25 11:32:24:253,-163.87437994931383,-161.6644188980139,0,-47.980464935302734,18.292551040649414,-60.57533645629883
0.1507830172777176,-0.041580040007829666,9.816654205322266,-0.002401958822527782,-0.002830565991800263,0.00438356835575693,1.2199673652648926,2019-07-25 11:32:24:263,-164.17770441838258,-162.02492917034533,0,-47.980464935302734,18.292551040649414,-60.57533645629883
0.16754627227783203,-0.046369537711143494,9.778337478637695,-0.002401958822527782,-0.00149866035385414,-0.0009440547811947932,1.2299695014953613,2019-07-25 11:32:24:273,-164.4736759613034,-162.37764763371027,0,-47.980464935302734,18.292551040649414,-60.57533645629883
0.1699410229921341,-0.015237792395055294,9.795101165771484,-0.00027090962301288673,-0.0033633282469787123,0.0014533755621639719,1.2399678230285645,2019-07-25 11:32:24:283,-164.76243507964708,-162.7281599439718,0,-47.980464935302734,18.292551040649414,-60.57533645629883
0.13401977717876434,-0.03200104087591171,9.814258575439453,-0.001336434182133721,-0.0017650414814433647,-0.001210435973802599,1.2499704360961914,2019-07-25 11:32:24:293,-165.05054783639338,-163.06910970574452,0,-47.980464935302734,18.292551040649414,-60.57533645629883
0.11246702820062637,-0.06313278526067734,9.780732154846191,0.0007946149686172382,-0.0022978037366218136,-0.001210435973802599,1.2599759101867676,2019-07-25 11:32:24:303,-165.33506984578378,-163.4007773643512,0,-47.980464935302734,18.292551040649414,-60.57533645629883
0.18430951237678528,-0.027211541309952736,9.725653648376465,0.00026185266467485305,-0.0020314226090325893,0.003051662457736482,1.2699766159057617,2019-07-25 11:32:24:313,-165.6055142391514,-163.72970269258914,0,-47.980464935302734,18.292551040649414,-60.57533645629883
0.12923027575016022,-0.02960629016160965,9.831022262573242,-0.002135577564901395,-0.002830565991800263,-0.002808722869375109,1.2799689769744873,2019-07-25 11:32:24:323,-165.87675344315366,-164.05045949705436,0,-47.980464935302734,18.292551040649414,-60.57533645629883
0.1507830172777176,-0.024816790595650673,9.835811614990234,0.00026185266467485305,-0.004162471629746385,-0.0022759606141966597,1.2899701595306396,2019-07-25 11:32:24:333,-166.1393153627396,-164.36670609459745,0,-47.980464935302734,18.292551040649414,-60.57533645629883
0.13880927860736847,-0.046369537711143494,9.835811614990234,0.001060996096206463,0.0019642945648801046,-0.0001449113496631835,1.2999682426452637,2019-07-25 11:32:24:343,-166.40146097091167,-164.67456539000028,0,-47.980464935302734,18.292551040649414,-60.57533645629883
0.0909142792224884,-0.02242204174399376,9.802285194396973,-0.001336434182133721,-0.0020314226090325893,-0.004407009894984782,1.3099749088287354,2019-07-25 11:32:24:353,-166.66166251170725,-164.97770197880322,0,-47.980464935302734,18.292551040649414,-60.57533645629883
0.12204602360725403,-0.0391852892935276,9.73523235321045,-0.0016028153097229455,-0.0020314226090325893,0.00411718696809338,1.3199708461761475,2019-07-25 11:32:24:363,-166.91292403223918,-165.27263592565546,0,-47.980464935302734,18.292551040649414,-60.57533645629883
0.13401977717876434,0.0015254555037245154,9.795101165771484,-0.002401958822527782,0.0003660077018168852,-0.002808722869375109,1.329965591430664,2019-07-25 11:32:24:373,-167.15919314288368,-158.36601368020516,0,-47.980464935302734,18.292551040649414,-60.57533645629883
0.1627567708492279,-0.015237792395055294,9.761574745178223,-0.00027090962301288673,0.00169791343729088,-0.002009579356570273,1.3399689197540283,2019-07-25 11:32:24:383,-167.39785865406068,-158.79675247083054,0,-47.980464935302734,18.292551040649414,-60.57533645629883
0.10528277605772018,-0.08947503566741943,9.833416938781738,-0.0018691964373121703,-0.00016675460212549993,-0.0009440547811947932,1.3499696254730225,2019-07-25 11:32:24:393,-167.63753941417943,-159.20934130756842,0,-47.980464935302734,18.292551040649414,-60.57533645629883
0.11486177146434784,-0.03679053857922554,9.79749584197998,-0.003733864460473905,-0.0030969471193894875,-0.0009440547811947932,1.3599770069122314,2019-07-25 11:32:24:403,-167.86961478777044,-159.6187533710838,0,-47.980464935302734,18.292551040649414,-60.57533645629883
0.17473050951957703,-0.06792228668928146,9.787917137145996,-0.001336434182133721,0.0024970568200585537,-0.001210435973802599,1.3699686527252197,2019-07-25 11:32:24:413,-168.09316909874468,-160.01767668388453,0,-47.980464935302734,18.292551040649414,-60.57533645629883
0.11007227748632431,-0.06073803827166557,9.842995643615723,0.0031920451169202596,-0.005227996400177609,-0.0036078662521427827,1.379969596862793,2019-07-25 11:32:24:423,-168.31555591302035,-160.41204465254182,0,-47.980464935302734,18.292551040649414,-60.57533645629883
0.16515152156352997,-0.06792228668928146,9.787917137145996,-0.0018691964373121703,-0.00469523414499916,0.0038508058405041555,1.3899705410003662,2019-07-25 11:32:24:433,-168.52727497958438,-160.7948022684368,0,-47.980464935302734,18.292551040649414,-60.57533645629883
0.11246702820062637,-0.053553786128759384,9.780732154846191,0.000528233808518723,-0.0022978037366218136,-0.002009579356570273,1.3999783992767334,2019-07-25 11:32:24:443,-168.74226213850005,-161.17292873239276,0,-47.980464935302734,18.292551040649414,-60.57533645629883
0.11246702820062637,-0.020027291029691696,9.869338035583496,-0.0010700530545444964,-0.00043313574596936985,-0.006005296660520129,1.4099702835083008,2019-07-25 11:32:24:453,-168.95411605752332,-161.54654447334914,0,-47.980464935302734,18.292551040649414,-60.57533645629883
0.1364145278930664,-0.02960629016160965,9.799890518188477,0.0031920451169202596,-0.0012322792262649154,0.005449092866113828,1.419966459274292,2019-07-25 11:32:24:463,-169.15839195693567,-161.9139433309873,0,-47.980464935302734,18.292551040649414,-60.57533645629883
0.13162502646446228,-0.03679053857922554,9.771153450012207,-0.0016028153097229455,0.0003660077018168852,-0.0022759606141966597,1.4299681186676025,2019-07-25 11:32:24:473,-169.3599942252673,-162.270449732948,0,-47.980464935302734,18.292551040649414,-60.57533645629883
0.15796726942062378,-0.04876428842544556,9.754390716552734,0.0013273772237956873,-0.00149866035385414,-0.00547253440534168,1.439969539642334,2019-07-25 11:32:24:483,-169.5533968422527,-162.620057534953,0,-47.980464935302734,18.292551040649414,-60.57533645629883
0.13401977717876434,-0.02960629016160965,9.771153450012207,0.00026185266467485305,-0.00149866035385414,0.00411718696809338,1.449974775314331,2019-07-25 11:32:24:493,-169.74577073624098,-162.96433141328032,0,-49.92966842651367,18.44249153137207,-61.32503128051758
0.17473050951957703,-0.08468553423881531,9.799890518188477,0.000528233808518723,-0.003896090502157161,0.0014533755621639719,1.4599645137786865,2019-07-25 11:32:24:503,-169.9282405864476,-163.29543892580992,0,-49.92966842651367,18.44249153137207,-61.32503128051758
0.1364145278930664,-0.0391852892935276,9.795101165771484,-0.0016028153097229455,-0.004162471629746385,0.00411718696809338,1.4699676036834717,2019-07-25 11:32:24:513,-170.1113799115822,-163.62404568124134,0,-49.92966842651367,18.44249153137207,-61.32503128051758
0.18430951237678528,-0.034395791590213776,9.811863899230957,-0.00400024558806313,-0.004162471629746385,-0.0033414851245535584,1.4799697399139404,2019-07-25 11:32:24:523,-170.28529184047892,-163.94530112933865,0,-49.92966842651367,18.44249153137207,-61.32503128051758
0.1699410229921341,-0.07271178811788559,9.761574745178223,0.00265928286174181,-0.00149866035385414,-0.0001449113496631835,1.4899742603302002,2019-07-25 11:32:24:533,-170.45879669049947,-164.25935345423386,0,-49.92966842651367,18.44249153137207,-61.32503128051758
0.17952001094818115,-0.06313278526067734,9.768758773803711,-0.0010700530545444964,0.0014315323097016555,-0.001210435973802599,1.499967098236084,2019-07-25 11:32:24:543,-170.62936791874415,-164.56616034981698,0,-49.92966842651367,18.44249153137207,-61.32503128051758
0.15557251870632172,-0.05834328755736351,9.802285194396973,0.000528233808518723,-0.003896090502157161,-0.0014768171013918236,1.5099658966064453,2019-07-25 11:32:24:553,-170.79640782154482,-164.86831329062863,0,-49.92966842651367,18.44249153137207,-61.32503128051758
0.19388851523399353,0.003920205403119326,9.833416938781738,0.000528233808518723,-0.0030969471193894875,0.0009206132419669414,1.519972324371338,2019-07-25 11:32:24:563,-170.95614817192515,-157.97170065051026,0,-49.92966842651367,18.44249153137207,-61.32503128051758
0.16515152156352997,-0.046369537711143494,9.787917137145996,-0.004533008103315903,-0.005760758655356059,0.0027852813301472578,1.5299668312072754,2019-07-25 11:32:24:573,-171.1144591285086,-158.4042941075459,0,-49.92966842651367,18.44249153137207,-61.32503128051758
0.1699410229921341,-0.06073803827166557,9.780732154846191,-0.002934721077706231,-0.003896090502157161,-0.0014768171013918236,1.5399773120880127,2019-07-25 11:32:24:583,-171.270071629495,-158.8274426482101,0,-49.92966842651367,18.44249153137207,-61.32503128051758
0.16515152156352997,0.02547295205295086,9.749600410461426,-0.006930438251618925,-0.0020314226090325893,-0.004140628507321232,1.5499730110168457,2019-07-25 11:32:24:593,-171.42412088124055,-152.0499979842865,0,-49.92966842651367,18.44249153137207,-61.32503128051758
0.15557251870632172,-0.024816790595650673,9.7855224609375,-4.528479676974485e-06,-0.0036297093745679366,-0.0025423417417858845,1.5599749088287354,2019-07-25 11:32:24:603,-171.575383501256,-152.60608936304448,0,-49.92966842651367,18.44249153137207,-61.32503128051758
0.14599351584911346,-0.06313278526067734,9.763969421386719,-0.002135577564901395,-0.00149866035385414,-0.001210435973802599,1.5699727535247803,2019-07-25 11:32:24:613,-171.72590175323202,-153.14535944555735,0,-49.92966842651367,18.44249153137207,-61.32503128051758
0.15796726942062378,-0.034395791590213776,9.821443557739258,-0.0018691964373121703,0.0003660077018168852,0.003051662457736482,1.5799705982208252,2019-07-25 11:32:24:623,-171.87315996609803,-153.67738982370494,0,-49.92966842651367,18.44249153137207,-61.32503128051758
0.1364145278930664,-0.03679053857922554,9.809469223022461,-4.528479676974485e-06,-0.004162471629746385,-0.002808722869375109,1.589968204498291,2019-07-25 11:32:24:633,-172.01742555604133,-154.19954173431867,0,-49.92966842651367,18.44249153137207,-61.32503128051758
0.13880927860736847,-0.005658793728798628,9.744811058044434,0.00265928286174181,-0.004428853017409935,0.0009206132419669414,1.5999679565429688,2019-07-25 11:32:24:643,-172.15826850113098,-154.7163786153306,0,-49.92966842651367,18.44249153137207,-61.32503128051758
0.1364145278930664,-0.02960629016160965,9.809469223022461,-0.0026683399501170064,0.001165151182112431,0.0027852813301472578,1.6099700927734375,2019-07-25 11:32:24:653,-172.29982295362547,-155.21709393768836,0,-49.92966842651367,18.44249153137207,-61.32503128051758
0.0909142792224884,-0.0391852892935276,9.787917137145996,-0.002135577564901395,0.0032962002028262276,-0.005738915532930904,1.6199748516082764,2019-07-25 11:32:24:663,-172.44503474875592,-155.70696479041044,0,-49.92966842651367,18.44249153137207,-61.32503128051758
0.13162502646446228,-0.012843042612075806,9.761574745178223,0.0018601394789741364,0.0006323888619154005,-0.0006776736536055686,1.6299703121185303,2019-07-25 11:32:24:673,-172.58103839417404,-156.19236183665387,0,-49.92966842651367,18.44249153137207,-61.32503128051758
0.12683552503585815,-0.04876428842544556,9.792706489562988,-0.001336434182133721,-0.00016675460212549993,-0.001210435973802599,1.6399667263031006,2019-07-25 11:32:24:683,-172.7144829128082,-156.6620582472295,0,-49.92966842651367,18.44249153137207,-61.32503128051758
0.09570377320051193,-0.06792228668928146,9.766364097595215,-0.00400024558806313,-0.0036297093745679366,-0.005206153277752455,1.6499691009521484,2019-07-25 11:32:24:693,-172.8469258541401,-157.11860102767932,0,-49.92966842651367,18.44249153137207,-61.32503128051758
0.14599351584911346,-0.005658793728798628,9.82623291015625,-0.0016028153097229455,0.001165151182112431,-0.007869964553644701,1.6599681377410889,2019-07-25 11:32:24:703,-172.9736172861991,-157.57466919808581,0,-49.92966842651367,18.44249153137207,-61.32503128051758
0.10767752677202225,-0.03200104087591171,9.83820629119873,0.0013273772237956873,-0.006559902038123733,-0.0001449113496631835,1.6699695587158203,2019-07-25 11:32:24:713,-173.0979196867782,-158.02019389825222,0,-49.92966842651367,18.44249153137207,-61.32503128051758
0.1364145278930664,-0.024816790595650673,9.83820629119873,-0.0008036719269552719,0.0014315323097016555,-0.0038742473797320075,1.6799724102020264,2019-07-25 11:32:24:723,-173.22087731594806,-158.45644807484595,0,-49.92966842651367,18.44249153137207,-61.32503128051758
0.14599351584911346,-0.02242204174399376,9.831022262573242,-0.0018691964373121703,-0.0022978037366218136,-0.0001449113496631835,1.6899685859680176,2019-07-25 11:32:24:733,-173.33815412314345,-158.88365642827478,0,-49.92966842651367,18.44249153137207,-61.32503128051758
0.1627567708492279,-0.0391852892935276,9.7759428024292,0.0021265206065633614,-0.0006995169060678851,-0.0001449113496631835,1.699970006942749,2019-07-25 11:32:24:743,-173.45192196083184,-159.30258431466467,0,-49.92966842651367,19.342124938964844,-61.02515411376953
0.11246702820062637,-0.04876428842544556,9.744811058044434,0.001060996096206463,9.962654984569266e-05,-0.0017431982289810482,1.7099745273590088,2019-07-25 11:32:24:753,-173.5697148079575,-159.7113943843409,0,-49.92966842651367,19.342124938964844,-61.02515411376953
0.11965127289295197,-0.024816790595650673,9.835811614990234,-0.004799389230905129,-0.00016675460212549993,-0.004673391022574007,1.719970941543579,2019-07-25 11:32:24:763,-173.68428769754178,-160.11158135263764,0,-49.92966842651367,19.342124938964844,-61.02515411376953
0.12444077432155609,-0.046369537711143494,9.778337478637695,-0.0016028153097229455,-0.00149866035385414,-0.0036078662521427827,1.729978322982788,2019-07-25 11:32:24:773,-173.79517749854378,-160.50301511415066,0,-49.92966842651367,19.342124938964844,-61.02515411376953
0.11486177146434784,-0.0655275359749794,9.819048881530762,-0.00346748333288468,-0.00016675460212549993,0.002518900202558033,1.739969253540039,2019-07-25 11:32:24:783,-173.90577626248046,-160.8833624231164,0,-49.92966842651367,19.342124938964844,-61.02515411376953
0.11486177146434784,-0.05594853684306145,9.79749584197998,-0.0010700530545444964,-0.0009658980336571096,0.0006542321143777169,1.7499711513519287,2019-07-25 11:32:24:793,-174.01368466092106,-161.25855055483103,0,-49.92966842651367,19.342124938964844,-61.02515411376953
0.12444077432155609,-0.053553786128759384,9.85496997833252,-0.00027090962301288673,0.00169791343729088,0.0009206132419669414,1.7599725723266602,2019-07-25 11:32:24:803,-174.11989553156607,-161.6270003441953,0,-49.92966842651367,19.342124938964844,-61.02515411376953
0.12204602360725403,-0.02960629016160965,9.749600410461426,-4.528479676974485e-06,-0.004961615272588385,-0.0022759606141966597,1.7699711322784424,2019-07-25 11:32:24:813,-174.220368197962,-161.9909780415416,0,-49.92966842651367,19.342124938964844,-61.02515411376953
0.13162502646446228,-0.027211541309952736,9.7855224609375,0.002925663989331035,-0.0009658980336571096,0.003584424712914931,1.7799711227416992,2019-07-25 11:32:24:823,-174.32000570721414,-162.3496146862646,0,-49.92966842651367,19.342124938964844,-61.02515411376953
0.13880927860736847,-0.05115903913974762,9.809469223022461,-0.002135577564901395,9.962654984569266e-05,-0.0004112924935070534,1.7899727821350098,2019-07-25 11:32:24:833,-174.41744730124066,-162.69544686363952,0,-49.92966842651367,19.342124938964844,-61.02515411376953
0.16754627227783203,-0.02242204174399376,9.799890518188477,-0.00027090962301288673,0.0054272492235400245,0.0038508058405041555,1.7999708652496338,2019-07-25 11:32:24:843,-174.51255564096215,-163.03876400244604,0,-49.92966842651367,19.342124938964844,-61.02515411376953
0.1172565221786499,-0.034395791590213776,9.773548126220703,-0.0016028153097229455,-0.0020314226090325893,0.001986137817342421,1.809971809387207,2019-07-25 11:32:24:853,-174.60741650678787,-163.37305588477744,0,-49.92966842651367,19.342124938964844,-61.02515411376953
0.1435987651348114,-0.012843042612075806,9.773548126220703,-0.00346748333288468,-0.0033633282469787123,-0.0017431982289810482,1.8199684619903564,2019-07-25 11:32:24:863,-174.69654504450665,-163.70214262903207,0,-49.92966842651367,19.342124938964844,-61.02515411376953
0.1435987651348114,0.0015254555037245154,9.799890518188477,-0.0026683399501170064,-0.0025641848642110384,-0.0001449113496631835,1.8299715518951416,2019-07-25 11:32:24:873,-174.784383899541,-156.82677941800034,0,-49.92966842651367,19.342124938964844,-61.02515411376953
0.13401977717876434,-0.06073803827166557,9.744811058044434,-4.528479676974485e-06,-0.0033633282469787123,-0.0001449113496631835,1.8400039672851562,2019-07-25 11:32:24:883,-174.871042883694,-157.28309904026645,0,-49.92966842651367,19.342124938964844,-61.02515411376953
0.1364145278930664,-0.0655275359749794,9.802285194396973,0.000528233808518723,-0.0020314226090325893,-0.0001449113496631835,1.8499634265899658,2019-07-25 11:32:24:893,-174.95653978436695,-157.73007221453605,0,-49.92966842651367,19.342124938964844,-61.02515411376953
0.16754627227783203,-0.015237792395055294,9.773548126220703,-0.00346748333288468,-0.0022978037366218136,-0.0009440547811947932,1.8599684238433838,2019-07-25 11:32:24:903,-175.03647581829034,-158.17173623173966,0,-49.92966842651367,19.342124938964844,-61.02515411376953
0.11246702820062637,-0.03679053857922554,9.842995643615723,-0.00027090962301288673,-0.0033633282469787123,0.0011869944345747473,1.8699707984924316,2019-07-25 11:32:24:913,-175.12076457570177,-158.60386624332915,0,-49.92966842651367,19.342124938964844,-61.02515411376953
0.1364145278930664,-0.08468553423881531,9.75678539276123,-0.002401958822527782,-0.0022978037366218136,0.003584424712914931,1.879974603652954,2019-07-25 11:32:24:923,-175.2010380007368,-159.0204938060603,0,-49.92966842651367,19.342124938964844,-61.02515411376953
0.12683552503585815,-0.04397478699684143,9.840600967407227,-0.0010700530545444964,-0.002830565991800263,-0.0033414851245535584,1.8899688720703125,2019-07-25 11:32:24:933,-175.2806599022466,-159.4343627111827,0,-49.92966842651367,19.342124938964844,-61.02515411376953
0.12204602360725403,-0.041580040007829666,9.804679870605469,-0.001336434182133721,-0.0033633282469787123,-0.0022759606141966597,1.8999664783477783,2019-07-25 11:32:24:943,-175.35889533895218,-159.84006561958,0,-49.92966842651367,19.342124938964844,-61.02515411376953
0.11246702820062637,-0.0391852892935276,9.79749584197998,0.00026185266467485305,-0.006826283165712956,-0.001210435973802599,1.909970998764038,2019-07-25 11:32:24:953,-175.43472917945644,-160.23882831466224,0,-49.92966842651367,19.342124938964844,-61.02515411376953
0.10528277605772018,-0.053553786128759384,9.842995643615723,-0.0008036719269552719,-0.004961615272588385,-0.004140628507321232,1.9199702739715576,2019-07-25 11:32:24:963,-175.51099236795767,-160.62736588256215,0,-49.92966842651367,19.342124938964844,-61.02515411376953
0.1627567708492279,-0.07271178811788559,9.82623291015625,-0.0005372907668567566,-0.0012322792262649154,0.0014533755621639719,1.929969310760498,2019-07-25 11:32:24:973,-175.5811020311492,-161.00603755768327,0,-49.92966842651367,19.342124938964844,-61.02515411376953
0.12923027575016022,-0.04397478699684143,9.816654205322266,-0.0008036719269552719,-0.0036297093745679366,0.0038508058405041555,1.9399707317352295,2019-07-25 11:32:24:983,-175.65235721433191,-161.38033226056868,0,-49.92966842651367,19.342124938964844,-61.02515411376953
0.12923027575016022,-0.06073803827166557,9.749600410461426,-0.005598532613672802,9.962654984569266e-05,-0.0014768171013918236,1.9499762058258057,2019-07-25 11:32:24:993,-175.72417789878546,-161.74244159613104,0,-49.77973175048828,19.791940689086914,-59.97557830810547
0.13162502646446228,-0.08468553423881531,9.79749584197998,-0.00027090962301288673,0.001165151182112431,-0.0001449113496631835,1.9599676132202148,2019-07-25 11:32:25:003,-175.79495406605307,-162.09753620198404,0,-49.77973175048828,19.791940689086914,-59.97557830810547
0.15796726942062378,-0.041580040007829666,9.754390716552734,0.001060996096206463,9.962654984569266e-05,0.0027852813301472578,1.969966173171997,2019-07-25 11:32:25:013,-175.86055503366308,-162.45129647536973,0,-49.77973175048828,19.791940689086914,-59.97557830810547
0.12444077432155609,-0.09665928035974503,9.7759428024292,-0.00346748333288468,-0.00016675460212549993,0.001986137817342421,1.9799718856811523,2019-07-25 11:32:25:023,-175.9286643472236,-162.78899261677833,0,-49.77973175048828,19.791940689086914,-59.97557830810547
0.12683552503585815,-0.053553786128759384,9.804679870605469,0.000528233808518723,-0.0030969471193894875,0.0006542321143777169,1.9899697303771973,2019-07-25 11:32:25:033,-175.99352951070725,-163.1272503013615,0,-49.77973175048828,19.791940689086914,-59.97557830810547
0.1364145278930664,-0.027211541309952736,9.874127388000488,0.00265928286174181,0.00169791343729088,0.0027852813301472578,1.9999744892120361,2019-07-25 11:32:25:043,-176.05878253216972,-163.4630412345705,0,-49.77973175048828,19.791940689086914,-59.97557830810547
0.15557251870632172,-0.020027291029691696,9.845390319824219,-0.004799389230905129,-0.00016675460212549993,0.0009206132419669414,2.009974718093872,2019-07-25 11:32:25:053,-176.11940750061603,-163.78875450290423,0,-49.77973175048828,19.791940689086914,-59.97557830810547
0.13401977717876434,-0.041580040007829666,9.763969421386719,0.000528233808518723,-0.0033633282469787123,0.004649949483346154,2.0199697017669678,2019-07-25 11:32:25:063,-176.179403998798,-164.1083959939005,0,-49.77973175048828,19.791940689086914,-59.97557830810547
0.12923027575016022,-0.07750128209590912,9.790311813354492,-0.0008036719269552719,-0.0022978037366218136,-0.0017431982289810482,2.029968500137329,2019-07-25 11:32:25:073,-176.23940086817507,-164.41670585183027,0,-49.77973175048828,19.791940689086914,-59.97557830810547
0.15317776799201965,-0.046369537711143494,9.819048881530762,0.000528233808518723,0.0003660077018168852,0.00012146980230800906,2.039975166320801,2019-07-25 11:32:25:083,-176.29694359670134,-164.72325709637164,0,-49.77973175048828,19.791940689086914,-59.97557830810547
0.14120401442050934,-0.017632542178034782,9.811863899230957,-0.0010700530545444964,-0.0030969471193894875,0.002518900202558033,2.0499672889709473,2019-07-25 11:32:25:093,-176.35277725708121,-165.02613231357836,0,-49.77973175048828,19.791940689086914,-59.97557830810547
0.13401977717876434,-0.03679053857922554,9.780732154846191,-0.0026683399501170064,-0.00043313574596936985,0.005182711738524604,2.0599775314331055,2019-07-25 11:32:25:103,-176.40977741454464,-165.31979948543952,0,-49.77973175048828,19.791940689086914,-59.97557830810547
0.11007227748632431,-0.02960629016160965,9.833416938781738,0.0013273772237956873,-0.00149866035385414,0.0014533755621639719,2.069969415664673,2019-07-25 11:32:25:113,-176.46791455865673,-165.61069811794317,0,-49.77973175048828,19.791940689086914,-59.97557830810547
0.12204602360725403,-0.05834328755736351,9.771153450012207,-0.002401958822527782,-0.0006995169060678851,-0.002808722869375109,2.0799713134765625,2019-07-25 11:32:25:123,-176.52385116740788,-165.89029305396807,0,-49.77973175048828,19.791940689086914,-59.97557830810547
0.13162502646446228,-0.053553786128759384,9.761574745178223,0.00026185266467485305,-0.002830565991800263,-0.0070708211708770275,2.0899696350097656,2019-07-25 11:32:25:133,-176.5763344679742,-166.1663475584829,0,-49.77973175048828,19.791940689086914,-59.97557830810547
0.17473050951957703,-0.02960629016160965,9.75678539276123,0.0007946149686172382,-0.0020314226090325893,-0.00547253440534168,2.0999701023101807,2019-07-25 11:32:25:143,-176.62314751707046,-166.43998961249102,0,-49.77973175048828,19.791940689086914,-59.97557830810547
0.12444077432155609,-0.041580040007829666,9.768758773803711,-0.00027090962301288673,-0.005227996400177609,-0.001210435973802599,2.1099700927734375,2019-07-25 11:32:25:153,-176.67315243143213,-166.70616022471464,0,-49.77973175048828,19.791940689086914,-59.97557830810547
0.13401977717876434,-0.0391852892935276,9.811863899230957,-0.002401958822527782,-0.0012322792262649154,-0.0001449113496631835,2.1199758052825928,2019-07-25 11:32:25:163,-176.72334603176256,-166.96611117546138,0,-49.77973175048828,19.791940689086914,-59.97557830810547
0.1699410229921341,-0.010448292829096317,9.852575302124023,-0.0010700530545444964,-0.0036297093745679366,-0.003075103996964334,2.129969358444214,2019-07-25 11:32:25:173,-176.76707911336084,-167.22497330518928,0,-49.77973175048828,19.791940689086914,-59.97557830810547
0.12923027575016022,-0.010448292829096317,9.811863899230957,-0.00346748333288468,-0.0022978037366218136,-0.0036078662521427827,2.1399688720703125,2019-07-25 11:32:25:183,-176.81535560686638,-167.47730670372317,0,-49.77973175048828,19.791940689086914,-59.97557830810547
0.12204602360725403,-0.02960629016160965,9.833416938781738,-0.0018691964373121703,0.001165151182112431,-0.001210435973802599,2.1499688625335693,2019-07-25 11:32:25:193,-176.8654810904983,-167.72326092598604,0,-49.77973175048828,19.791940689086914,-59.97557830810547
0.11965127289295197,-0.017632542178034782,9.792706489562988,-0.00719681937920815,-0.00922371383416463,-0.003075103996964334,2.1599671840667725,2019-07-25 11:32:25:203,-176.90899266890568,-167.96269207206868,0,-49.77973175048828,19.791940689086914,-59.97557830810547
0.14599351584911346,-0.020027291029691696,9.850180625915527,-0.0005372907668567566,-0.002830565991800263,0.0027852813301472578,2.1699743270874023,2019-07-25 11:32:25:213,-176.9522394857851,-168.20080646592237,0,-49.77973175048828,19.791940689086914,-59.97557830810547
0.11486177146434784,-0.03200104087591171,9.802285194396973,-0.0016028153097229455,-0.0030969471193894875,-0.006271677788109354,2.1799705028533936,2019-07-25 11:32:25:223,-176.9980293695407,-168.4321497008908,0,-49.77973175048828,19.791940689086914,-59.97557830810547
0.1364145278930664,-0.07271178811788559,9.847785949707031,-0.001336434182133721,-0.0025641848642110384,-0.0038742473797320075,2.1899712085723877,2019-07-25 11:32:25:233,-177.04075633793377,-168.6542954570659,0,-49.77973175048828,19.791940689086914,-59.97557830810547
0.17233577370643616,-0.05594853684306145,9.7855224609375,0.003724807632173034,-0.0030969471193894875,-0.005738915532930904,2.199970006942749,2019-07-25 11:32:25:243,-177.07802351111968,-168.87674909202144,0,-49.03003692626953,19.342124938964844,-59.82564163208008
0.1771252602338791,-0.0391852892935276,9.751995086669922,0.0007946149686172382,-0.00043313574596936985,-0.0017431982289810482,2.2099733352661133,2019-07-25 11:32:25:253,-177.11540880483687,-169.09505596150345,0,-49.03003692626953,19.342124938964844,-59.82564163208008
0.17233577370643616,-0.005658793728798628,9.792706489562988,-4.528479676974485e-06,-0.006559902038123733,-0.0017431982289810482,2.2199690341949463,2019-07-25 11:32:25:263,-177.1492546599466,-169.31249012422114,0,-49.03003692626953,19.342124938964844,-59.82564163208008
0.18430951237678528,-0.07031703740358353,9.811863899230957,-0.0032011022052954555,-0.0030969471193894875,-0.0025423417417858845,2.2299649715423584,2019-07-25 11:32:25:273,-177.18300859019067,-169.5162315371793,0,-49.03003692626953,19.342124938964844,-59.82564163208008
0.12204602360725403,-0.04876428842544556,9.811863899230957,-0.004799389230905129,-0.0009658980336571096,0.0033180435853257064,2.2399721145629883,2019-07-25 11:32:25:283,-177.22455280968558,-169.71751505623246,0,-49.03003692626953,19.342124938964844,-59.82564163208008
0.1627567708492279,-0.04397478699684143,9.83820629119873,-0.0008036719269552719,-0.0054943775277668345,-0.003075103996964334,2.2499730587005615,2019-07-25 11:32:25:293,-177.25802083705304,-169.91759147561567,0,-49.03003692626953,19.342124938964844,-59.82564163208008
0.14120401442050934,-0.041580040007829666,9.804679870605469,0.0018601394789741364,-0.0017650414814433647,0.00038785095427920163,2.2599706649780273,2019-07-25 11:32:25:303,-177.29536760252694,-170.11542425084272,0,-49.03003692626953,19.342124938964844,-59.82564163208008
0.1771252602338791,-0.0391852892935276,9.778337478637695,0.004790331882455607,-0.0022978037366218136,0.0006542321143777169,2.26997447013855,2019-07-25 11:32:25:313,-177.32741464734264,-170.31121448585947,0,-49.03003692626953,19.342124938964844,-59.82564163208008
0.15796726942062378,-0.046369537711143494,9.795101165771484,0.000528233808518723,-0.0033633282469787123,-0.0004112924935070534,2.2799692153930664,2019-07-25 11:32:25:323,-177.3605000679961,-170.49986197409407,0,-49.03003692626953,19.342124938964844,-59.82564163208008
0.13162502646446228,-0.020027291029691696,9.79749584197998,0.00026185266467485305,-0.0054943775277668345,-0.0009440547811947932,2.289968490600586,2019-07-25 11:32:25:333,-177.3948112613304,-170.68766936419996,0,-49.03003692626953,19.342124938964844,-59.82564163208008
0.13880927860736847,-0.06073803827166557,9.835811614990234,0.004523950754866383,-0.00016675460212549993,-0.0036078662521427827,2.299970865249634,2019-07-25 11:32:25:343,-177.4306505595115,-170.8693806119507,0,-49.03003692626953,19.342124938964844,-59.82564163208008
0.12923027575016022,0.006314954720437527,9.811863899230957,0.000528233808518723,-0.0030969471193894875,0.006248236248881503,2.309967279434204,2019-07-25 11:32:25:353,-177.4652074669682,-163.8530270116604,0,-49.03003692626953,19.342124938964844,-59.82564163208008
0.07894052565097809,-0.03679053857922554,9.864548683166504,-0.00346748333288468,-0.00043313574596936985,-0.004407009894984782,2.319974422454834,2019-07-25 11:32:25:363,-177.50649000601368,-164.16974433932788,0,-49.03003692626953,19.342124938964844,-59.82564163208008
0.16036202013492584,-0.04397478699684143,9.751995086669922,-4.528479676974485e-06,-0.0009658980336571096,-0.004939772150163231,2.3299691677093506,2019-07-25 11:32:25:373,-177.5369763776517,-164.48117965541633,0,-49.03003692626953,19.342124938964844,-59.82564163208008
0.1172565221786499,-0.04397478699684143,9.85496997833252,0.0021265206065633614,-0.0006995169060678851,-0.0006776736536055686,2.339970588684082,2019-07-25 11:32:25:383,-177.57221031319233,-164.7876370067761,0,-49.03003692626953,19.342124938964844,-59.82564163208008
0.1435987651348114,-0.034395791590213776,9.780732154846191,-0.002934721077706231,-0.0030969471193894875,0.00038785095427920163,2.349968910217285,2019-07-25 11:32:25:393,-177.60220457100064,-165.0862068893812,0,-49.03003692626953,19.342124938964844,-59.82564163208008
0.12683552503585815,-0.020027291029691696,9.802285194396973,-0.001336434182133721,0.0006323888619154005,0.0011869944345747473,2.3599753379821777,2019-07-25 11:32:25:403,-177.6356891797158,-165.38139061808292,0,-49.03003692626953,19.342124938964844,-59.82564163208008
0.06696677953004837,-0.02242204174399376,9.807074546813965,-4.528479676974485e-06,-0.0033633282469787123,-0.0025423417417858845,2.3699729442596436,2019-07-25 11:32:25:413,-177.67326267781436,-165.67114034648202,0,-49.03003692626953,19.342124938964844,-59.82564163208008
0.098098523914814,-0.05834328755736351,9.82623291015625,0.0018601394789741364,-0.0036297093745679366,0.003584424712914931,2.3799655437469482,2019-07-25 11:32:25:423,-177.7063211824369,-165.9519574350579,0,-49.03003692626953,19.342124938964844,-59.82564163208008
0.14838826656341553,-0.06073803827166557,9.819048881530762,-0.00346748333288468,-0.00149866035385414,0.0006542321143777169,2.38997220993042,2019-07-25 11:32:25:433,-177.73403661707093,-166.22388176105864,0,-49.03003692626953,19.342124938964844,-59.82564163208008
0.13401977717876434,-0.053553786128759384,9.802285194396973,0.0031920451169202596,-0.0009658980336571096,-0.0022759606141966597,2.3999693393707275,2019-07-25 11:32:25:443,-177.7631473651689,-166.49493540957957,0,-49.03003692626953,19.342124938964844,-59.82564163208008
0.12683552503585815,-0.04397478699684143,9.819048881530762,-0.0005372907668567566,-0.006559902038123733,-0.0033414851245535584,2.40997052192688,2019-07-25 11:32:25:453,-177.78939930272023,-166.75960300840933,0,-49.03003692626953,19.342124938964844,-59.82564163208008
0.15317776799201965,-0.03679053857922554,9.804679870605469,0.0015937583513849119,-0.004162471629746385,-0.0006776736536055686,2.4199726581573486,2019-07-25 11:32:25:463,-177.81337249941635,-167.02100618244174,0,-49.03003692626953,19.342124938964844,-59.82564163208008
0.18430951237678528,-0.02960629016160965,9.754390716552734,0.0007946149686172382,-0.0017650414814433647,-0.001210435973802599,2.4299685955047607,2019-07-25 11:32:25:473,-177.834464849588,-167.27755400821982,0,-49.03003692626953,19.342124938964844,-59.82564163208008
0.1699410229921341,-0.07989603281021118,9.790311813354492,-0.0005372907668567566,-0.0006995169060678851,0.00012146980230800906,2.4399757385253906,2019-07-25 11:32:25:483,-177.85749359626615,-167.52234973122552,0,-49.03003692626953,19.342124938964844,-59.82564163208008
0.12923027575016022,-0.041580040007829666,9.720863342285156,0.0015937583513849119,-0.0025641848642110384,0.005981855121292278,2.4499704837799072,2019-07-25 11:32:25:493,-177.88367165824812,-167.7678956477929,0,-49.17997741699219,18.592430114746094,-60.57533645629883
0.15796726942062378,-0.0032640439458191395,9.842995643615723,-0.004266626715652354,-0.0012322792262649154,0.00012146980230800906,2.4599673748016357,2019-07-25 11:32:25:503,-177.90691764191962,-168.00976277655664,0,-49.17997741699219,18.592430114746094,-60.57533645629883
0.15557251870632172,-0.06313278526067734,9.792706489562988,0.00026185266467485305,-0.0030969471193894875,-0.004140628507321232,2.469970226287842,2019-07-25 11:32:25:513,-177.9288367244965,-168.24232707025342,0,-49.17997741699219,18.592430114746094,-60.57533645629883
0.17473050951957703,-0.034395791590213776,9.787917137145996,-0.0016028153097229455,-0.0009658980336571096,0.0006542321143777169,2.4799704551696777,2019-07-25 11:32:25:523,-177.9492633112203,-168.4725536758073,0,-49.17997741699219,18.592430114746094,-60.57533645629883
0.16036202013492584,-0.07271178811788559,9.828627586364746,-0.006131294868851251,0.0006323888619154005,-0.0014768171013918236,2.489971876144409,2019-07-25 11:32:25:533,-177.9719382986826,-168.69118211697096,0,-49.17997741699219,18.592430114746094,-60.57533645629883
0.17233577370643616,-0.012843042612075806,9.787917137145996,-0.0016028153097229455,-0.0009658980336571096,0.004649949483346154,2.4999678134918213,2019-07-25 11:32:25:543,-177.9917833610933,-168.91495526960483,0,-49.17997741699219,18.592430114746094,-60.57533645629883
0.1771252602338791,-0.008053543046116829,9.79749584197998,0.0023929017341525857,-0.0025641848642110384,0.00411718696809338,2.509977102279663,2019-07-25 11:32:25:553,-178.00979224765658,-169.1370590807578,0,-49.17997741699219,18.592430114746094,-60.57533645629883
0.12444077432155609,-0.05594853684306145,9.809469223022461,-0.00027090962301288673,0.002763437947647778,-0.002009579356570273,2.5199711322784424,2019-07-25 11:32:25:563,-178.03661108897066,-169.3476301891039,0,-49.17997741699219,18.592430114746094,-60.57533645629883
0.15317776799201965,-0.11342252790927887,9.787917137145996,-0.0010700530545444964,-0.00016675460212549993,0.00411718696809338,2.5299665927886963,2019-07-25 11:32:25:573,-178.05785352908566,-169.5467987323266,0,-49.17997741699219,18.592430114746094,-60.57533645629883
0.1507830172777176,-0.034395791590213776,9.831022262573242,0.00265928286174181,-0.004961615272588385,0.0057154739937030526,2.5400030612945557,2019-07-25 11:32:25:583,-178.07632628936503,-169.75335218898852,0,-49.17997741699219,18.592430114746094,-60.57533645629883
0.14838826656341553,-0.07271178811788559,9.7759428024292,0.0015937583513849119,-0.007092664293302181,0.003051662457736482,2.549976110458374,2019-07-25 11:32:25:593,-178.09343554853442,-169.95065465982208,0,-49.17997741699219,18.592430114746094,-60.57533645629883
0.16515152156352997,-0.0391852892935276,9.900469779968262,-0.002934721077706231,0.0003660077018168852,0.0017197566897531966,2.559971809387207,2019-07-25 11:32:25:603,-178.1126588101315,-170.14545901239245,0,-49.17997741699219,18.592430114746094,-60.57533645629883
0.19149376451969147,-0.08947503566741943,9.819048881530762,-0.001336434182133721,-0.0036297093745679366,0.0014533755621639719,2.569974184036255,2019-07-25 11:32:25:613,-178.12602194788363,-170.3313575033841,0,-49.17997741699219,18.592430114746094,-60.57533645629883
0.17473050951957703,-0.03200104087591171,9.795101165771484,-0.0005372907668567566,-0.0033633282469787123,0.005981855121292278,2.5799717903137207,2019-07-25 11:32:25:623,-178.14117413944814,-170.52068499248108,0,-49.17997741699219,18.592430114746094,-60.57533645629883
0.12444077432155609,-0.03679053857922554,9.816654205322266,-0.004799389230905129,-0.004961615272588385,-0.0001449113496631835,2.589977741241455,2019-07-25 11:32:25:633,-178.16103764256178,-170.70328023320755,0,-49.17997741699219,18.592430114746094,-60.57533645629883
0.15317776799201965,-0.03679053857922554,9.807074546813965,-0.0010700530545444964,-0.004961615272588385,-0.0022759606141966597,2.599970817565918,2019-07-25 11:32:25:643,-178.1771361529231,-170.88431541101295,0,-49.17997741699219,18.592430114746094,-60.57533645629883
0.11486177146434784,-0.0032640439458191395,9.823838233947754,0.0023929017341525857,-0.0025641848642110384,-0.001210435973802599,2.609971046447754,2019-07-25 11:32:25:653,-178.19875600630633,-171.06759200557622,0,-49.17997741699219,18.592430114746094,-60.57533645629883
0.14120401442050934,-0.0032640439458191395,9.816654205322266,0.0015937583513849119,-0.004162471629746385,-0.0014768171013918236,2.6199727058410645,2019-07-25 11:32:25:663,-178.2159614158697,-171.24675418943878,0,-49.17997741699219,18.592430114746094,-60.57533645629883
0.15557251870632172,-0.008053543046116829,9.811863899230957,0.0021265206065633614,0.00169791343729088,0.00012146980230800906,2.629972219467163,2019-07-25 11:32:25:673,-178.23442791532142,-171.4220725227659,0,-49.17997741699219,18.592430114746094,-60.57533645629883
0.13880927860736847,-0.04397478699684143,9.831022262573242,-0.002135577564901395,0.0024970568200585537,-0.007337202298466253,2.6400275230407715,2019-07-25 11:32:25:683,-178.25497050637793,-171.58729959779777,0,-49.17997741699219,18.592430114746094,-60.57533645629883
0.11007227748632431,0.003920205403119326,9.811863899230957,-0.0010700530545444964,-0.0036297093745679366,-0.001210435973802599,2.6499826908111572,2019-07-25 11:32:25:693,-178.27498748903398,-164.55541330215001,0,-49.17997741699219,18.592430114746094,-60.57533645629883
0.1627567708492279,-0.034395791590213776,9.790311813354492,-0.0010700530545444964,9.962654984569266e-05,-0.0025423417417858845,2.659963846206665,2019-07-25 11:32:25:703,-178.29049532036132,-164.85967946613914,0,-49.17997741699219,18.592430114746094,-60.57533645629883
0.10288802534341812,-0.0032640439458191395,9.833416938781738,0.0023929017341525857,-0.004162471629746385,-0.007337202298466253,2.6699647903442383,2019-07-25 11:32:25:713,-178.31035857915916,-165.16344924657926,0,-49.17997741699219,18.592430114746094,-60.57533645629883
0.13162502646446228,-0.10384353250265121,9.804679870605469,0.0013273772237956873,9.962654984569266e-05,-0.0070708211708770275,2.679955244064331,2019-07-25 11:32:25:723,-178.32882462894707,-165.44878867902418,0,-49.17997741699219,18.592430114746094,-60.57533645629883
0.06936153024435043,-0.07031703740358353,9.809469223022461,-0.0010700530545444964,0.0003660077018168852,-0.006271677788109354,2.6899573802948,2019-07-25 11:32:25:733,-178.35435120228234,-165.73099783884592,0,-49.17997741699219,18.592430114746094,-60.57533645629883
0.13162502646446228,-0.03679053857922554,9.795101165771484,-0.0026683399501170064,-0.0020314226090325893,-0.010267395222096373,2.6999545097351074,2019-07-25 11:32:25:743,-178.37072615821765,-166.0105759879734,0,-49.77973175048828,17.39291763305664,-60.27545928955078
0.1172565221786499,-0.024816790595650673,9.802285194396973,-0.0016028153097229455,-0.00469523414499916,-0.004673391022574007,2.709955930709839,2019-07-25 11:32:25:753,-178.38696791883746,-166.28656321306124,0,-49.77973175048828,17.39291763305664,-60.27545928955078
0.15796726942062378,-0.05834328755736351,9.73523235321045,-0.0018691964373121703,0.0003660077018168852,-0.0036078662521427827,2.719957113265991,2019-07-25 11:32:25:763,-178.40084170392268,-166.5529148787962,0,-49.77973175048828,17.39291763305664,-60.27545928955078
0.12444077432155609,-0.05115903913974762,9.790311813354492,-0.002934721077706231,-0.006559902038123733,-0.004673391022574007,2.7299561500549316,2019-07-25 11:32:25:773,-178.41457735384262,-166.8142209981683,0,-49.77973175048828,17.39291763305664,-60.27545928955078
0.12683552503585815,-0.07510653138160706,9.82623291015625,0.003991188759762259,-0.004428853017409935,0.001986137817342421,2.739964723587036,2019-07-25 11:32:25:783,-178.4290063963998,-167.07142094401902,0,-49.77973175048828,17.39291763305664,-60.27545928955078
0.13880927860736847,-0.06073803827166557,9.814258575439453,-0.002934721077706231,-0.00016675460212549993,-0.0017431982289810482,2.7499544620513916,2019-07-25 11:32:25:793,-178.44412640227182,-167.32125467430055,0,-49.77973175048828,17.39291763305664,-60.27545928955078
0.12923027575016022,-0.06792228668928146,9.799890518188477,-0.0010700530545444964,0.0035625813304154524,0.00411718696809338,2.7599594593048096,2019-07-25 11:32:25:803,-178.46213504833005,-167.56628632166883,0,-49.77973175048828,17.39291763305664,-60.27545928955078
0.15557251870632172,-0.06313278526067734,9.763969421386719,0.001060996096206463,-0.004162471629746385,-0.007603583426055476,2.7699577808380127,2019-07-25 11:32:25:813,-178.47229881440373,-167.80814697832818,0,-49.77973175048828,17.39291763305664,-60.27545928955078
0.10049327462911606,-0.07510653138160706,9.883707046508789,-0.00027090962301288673,-0.004961615272588385,0.0027852813301472578,2.779958486557007,2019-07-25 11:32:25:823,-178.48841592677715,-168.04312423967403,0,-49.77973175048828,17.39291763305664,-60.27545928955078
0.12683552503585815,-0.053553786128759384,9.835811614990234,0.0013273772237956873,-0.007625426548480631,0.007846523014416849,2.7899532318115234,2019-07-25 11:32:25:833,-178.49959211042102,-168.276767492259,0,-49.77973175048828,17.39291763305664,-60.27545928955078
0.10288802534341812,-0.05594853684306145,9.804679870605469,-0.002934721077706231,-0.002830565991800263,0.002518900202558033,2.799962043762207,2019-07-25 11:32:25:843,-178.51598497896794,-168.5030439705278,0,-49.77973175048828,17.39291763305664,-60.27545928955078
0.11965127289295197,-0.04397478699684143,9.82623291015625,-0.00027090962301288673,0.0006323888619154005,0.00038785095427920163,2.8099565505981445,2019-07-25 11:32:25:853,-178.53206736773373,-168.7277028419932,0,-49.77973175048828,17.39291763305664,-60.27545928955078
0.1435987651348114,-0.046369537711143494,9.819048881530762,-0.002401958822527782,-0.00043313574596936985,0.006780998504059952,2.819967269897461,2019-07-25 11:32:25:863,-178.5444252966976,-168.94638720412735,0,-49.77973175048828,17.39291763305664,-60.27545928955078
0.15557251870632172,-0.08229078352451324,9.807074546813965,0.0015937583513849119,9.962654984569266e-05,0.008912048044922398,2.829951047897339,2019-07-25 11:32:25:873,-178.55541616745813,-169.1587377937178,0,-49.77973175048828,17.39291763305664,-60.27545928955078
0.12923027575016022,-0.06313278526067734,9.778337478637695,-0.0026683399501170064,-0.00149866035385414,0.00411718696809338,2.8399572372436523,2019-07-25 11:32:25:883,-178.56832231594325,-169.36666546317974,0,-49.77973175048828,17.39291763305664,-60.27545928955078
0.11965127289295197,-0.024816790595650673,9.771153450012207,0.0031920451169202596,9.962654984569266e-05,0.00012146980230800906,2.849961996078491,2019-07-25 11:32:25:893,-178.58298039098503,-169.57821494392064,0,-49.77973175048828,17.39291763305664,-60.27545928955078
0.098098523914814,-0.017632542178034782,9.744811058044434,-0.0010700530545444964,-0.0006995169060678851,0.0073137607592384,2.859954357147217,2019-07-25 11:32:25:903,-178.59939305550347,-169.78397682022518,0,-49.77973175048828,17.39291763305664,-60.27545928955078
0.16036202013492584,-0.041580040007829666,9.811863899230957,0.004523950754866383,-0.0020314226090325893,0.005981855121292278,2.8699538707733154,2019-07-25 11:32:25:913,-178.60753779183625,-169.98598129949102,0,-49.77973175048828,17.39291763305664,-60.27545928955078
0.16036202013492584,-0.027211541309952736,9.744811058044434,-0.0005372907668567566,-0.007359045420891406,0.0065146173764707264,2.879957675933838,2019-07-25 11:32:25:923,-178.61239771894117,-170.18276000889819,0,-49.77973175048828,17.39291763305664,-60.27545928955078
0.18670426309108734,-0.06073803827166557,9.833416938781738,0.0013273772237956873,0.000898769989504625,0.009178428652362973,2.8899588584899902,2019-07-25 11:32:25:933,-178.61889992606825,-170.37277233382554,0,-49.77973175048828,17.39291763305664,-60.27545928955078
0.11007227748632431,-0.07989603281021118,9.7759428024292,-0.0005372907668567566,-0.00469523414499916,0.0033180435853257064,2.8999621868133545,2019-07-25 11:32:25:943,-178.6309827853046,-170.55565006116876,0,-49.77973175048828,17.39291763305664,-60.27545928955078
0.1627567708492279,-0.008053543046116829,9.823838233947754,-0.003733864460473905,-0.0033633282469787123,-0.0001449113496631835,2.909960985183716,2019-07-25 11:32:25:953,-178.63749159388647,-170.74150133528215,0,-49.77973175048828,17.39291763305664,-60.27545928955078
0.15317776799201965,-0.046369537711143494,9.799890518188477,-0.006131294868851251,-0.0036297093745679366,0.0006542321143777169,2.9199559688568115,2019-07-25 11:32:25:963,-178.6447948645833,-170.9178083041497,0,-49.77973175048828,17.39291763305664,-60.27545928955078
0.12204602360725403,-0.012843042612075806,9.759180068969727,0.000528233808518723,0.0032962002028262276,-0.002009579356570273,2.929957389831543,2019-07-25 11:32:25:973,-178.65942023683576,-171.09824076323568,0,-49.77973175048828,17.39291763305664,-60.27545928955078
0.11486177146434784,-0.005658793728798628,9.821443557739258,0.003458426504583809,-0.0006995169060678851,0.00012146980230800906,2.93996000289917,2019-07-25 11:32:25:983,-178.6724380810582,-171.2775581182642,0,-49.77973175048828,17.39291763305664,-60.27545928955078
0.11965127289295197,-0.0655275359749794,9.740021705627441,0.001060996096206463,-0.0022978037366218136,-0.002009579356570273,2.949955701828003,2019-07-25 11:32:25:993,-178.68362337147192,-171.44489323552727,0,-49.479854583740234,17.39291763305664,-60.57533645629883
0.11007227748632431,-0.0655275359749794,9.804679870605469,0.0021265206065633614,-0.0033633282469787123,0.005182711738524604,2.959956407546997,2019-07-25 11:32:26:003,-178.6951981810314,-171.6095311193347,0,-49.479854583740234,17.39291763305664,-60.57533645629883
0.0909142792224884,-0.02242204174399376,9.723258972167969,0.005855856912961156,0.0014315323097016555,-0.004939772150163231,2.969958543777466,2019-07-25 11:32:26:013,-178.7113839809643,-171.77798675403045,0,-49.479854583740234,17.39291763305664,-60.57533645629883
0.12444077432155609,-0.03679053857922554,9.7855224609375,-0.004799389230905129,-0.00043313574596936985,-0.00547253440534168,2.979954957962036,2019-07-25 11:32:26:023,-178.72234156113294,-171.93542486677066,0,-49.479854583740234,17.39291763305664,-60.57533645629883
0.12444077432155609,-0.053553786128759384,9.816654205322266,-0.002934721077706231,-0.003896090502157161,-0.004939772150163231,2.98996639251709,2019-07-25 11:32:26:033,-178.73117916293455,-172.08881527615657,0,-49.479854583740234,17.39291763305664,-60.57533645629883
0.11965127289295197,-0.03679053857922554,9.804679870605469,-0.0032011022052954555,-0.0006995169060678851,-0.003075103996964334,2.9999547004699707,2019-07-25 11:32:26:043,-178.74217979047032,-172.2409438075319,0,-49.479854583740234,17.39291763305664,-60.57533645629883
0.16036202013492584,-0.05115903913974762,9.7759428024292,-0.002135577564901395,-0.00469523414499916,-0.006005296660520129,3.009960889816284,2019-07-25 11:32:26:053,-178.74590258012242,-172.38892836436608,0,-49.479854583740234,17.39291763305664,-60.57533645629883
0.1435987651348114,-0.041580040007829666,9.823838233947754,-0.002135577564901395,-0.00043313574596936985,-0.0033414851245535584,3.0199573040008545,2019-07-25 11:32:26:063,-178.75399232114015,-172.53510096919268,0,-49.479854583740234,17.39291763305664,-60.57533645629883
0.12444077432155609,-0.06073803827166557,9.766364097595215,-0.0005372907668567566,-0.0022978037366218136,-0.0022759606141966597,3.029956340789795,2019-07-25 11:32:26:073,-178.76302218143798,-172.67697081398052,0,-49.479854583740234,17.39291763305664,-60.57533645629883
0.14599351584911346,-0.06792228668928146,9.790311813354492,0.0015937583513849119,-0.0022978037366218136,-0.0025423417417858845,3.03996205329895,2019-07-25 11:32:26:083,-178.76938411506998,-172.81637690627903,0,-49.479854583740234,17.39291763305664,-60.57533645629883
0.12204602360725403,-0.03679053857922554,9.809469223022461,-0.003733864460473905,-0.0020314226090325893,-0.006005296660520129,3.0499534606933594,2019-07-25 11:32:26:093,-178.77860042194274,-172.95365685904537,0,-49.479854583740234,17.39291763305664,-60.57533645629883
0.15557251870632172,-0.07271178811788559,9.768758773803711,0.0021265206065633614,0.0006323888619154005,-0.007869964553644701,3.059969425201416,2019-07-25 11:32:26:103,-178.78513631201054,-173.08725043216347,0,-49.479854583740234,17.39291763305664,-60.57533645629883
0.12923027575016022,-0.015237792395055294,9.751995086669922,-0.0026683399501170064,-0.003896090502157161,-0.0001449113496631835,3.069957733154297,2019-07-25 11:32:26:113,-178.79206408113765,-173.22221837913986,0,-49.479854583740234,17.39291763305664,-60.57533645629883
0.13880927860736847,-0.06792228668928146,9.761574745178223,-0.00346748333288468,0.0014315323097016555,-0.004673391022574007,3.079960346221924,2019-07-25 11:32:26:123,-178.80073302837928,-173.34785321692914,0,-49.479854583740234,17.39291763305664,-60.57533645629883
0.16036202013492584,-0.04876428842544556,9.809469223022461,0.0013273772237956873,-0.0030969471193894875,0.002252519074968808,3.0899622440338135,2019-07-25 11:32:26:133,-178.80424771844304,-173.4759451495475,0,-49.479854583740234,17.39291763305664,-60.57533645629883
0.16036202013492584,-0.027211541309952736,9.82623291015625,-0.0005372907668567566,-0.0009658980336571096,0.00012146980230800906,3.099961519241333,2019-07-25 11:32:26:143,-178.80892101551794,-173.60295123308444,0,-49.479854583740234,17.39291763305664,-60.57533645629883
0.1507830172777176,-0.027211541309952736,9.787917137145996,-0.0016028153097229455,-0.0025641848642110384,0.001986137817342421,3.1099538803100586,2019-07-25 11:32:26:153,-178.81365245729359,-173.72680714767205,0,-49.479854583740234,17.39291763305664,-60.57533645629883
0.17473050951957703,-0.07510653138160706,9.795101165771484,0.001060996096206463,-0.005760758655356059,0.00038785095427920163,3.119955539703369,2019-07-25 11:32:26:163,-178.81370489594542,-173.8440804124741,0,-49.479854583740234,17.39291763305664,-60.57533645629883
0.18430951237678528,-0.02960629016160965,9.7759428024292,-0.0032011022052954555,-0.0036297093745679366,-0.0036078662521427827,3.12995982170105,2019-07-25 11:32:26:173,-178.81379003169874,-173.96193024317375,0,-49.479854583740234,17.39291763305664,-60.57533645629883
0.18191476166248322,-0.06792228668928146,9.845390319824219,-0.0026683399501170064,-0.0012322792262649154,0.0009206132419669414,3.139955997467041,2019-07-25 11:32:26:183,-178.8156517264529,-174.07328851929822,0,-49.479854583740234,17.39291763305664,-60.57533645629883
0.1771252602338791,-0.010448292829096317,9.79749584197998,-0.0010700530545444964,-0.0030969471193894875,-0.003075103996964334,3.1499626636505127,2019-07-25 11:32:26:193,-178.81688427861093,-174.18999948267742,0,-49.479854583740234,17.39291763305664,-60.57533645629883
0.18670426309108734,-0.012843042612075806,9.823838233947754,-0.0018691964373121703,-0.0020314226090325893,-0.0009440547811947932,3.1599550247192383,2019-07-25 11:32:26:203,-178.81763106042402,-174.30365264938501,0,-49.479854583740234,17.39291763305664,-60.57533645629883
0.17473050951957703,-0.034395791590213776,9.823838233947754,0.004257569887351483,-0.0030969471193894875,-0.0014768171013918236,3.169957399368286,2019-07-25 11:32:26:213,-178.81915955463717,-174.41595865412262,0,-49.479854583740234,17.39291763305664,-60.57533645629883
0.14838826656341553,-0.05834328755736351,9.780732154846191,0.0023929017341525857,-0.00469523414499916,-0.0017431982289810482,3.179966688156128,2019-07-25 11:32:26:223,-178.8227536354537,-174.52214889177188,0,-49.479854583740234,17.39291763305664,-60.57533645629883
0.18430951237678528,-0.0391852892935276,9.799890518188477,0.0007946149686172382,0.0014315323097016555,-0.0017431982289810482,3.1899518966674805,2019-07-25 11:32:26:233,-178.82555213578485,-174.6275694601957,0,-49.479854583740234,17.39291763305664,-60.57533645629883
0.1699410229921341,-0.04397478699684143,9.751995086669922,0.0015937583513849119,-0.0030969471193894875,0.003584424712914931,3.1999588012695312,2019-07-25 11:32:26:243,-178.82733393282004,-174.73074632629948,0,-49.17997741699219,19.19218635559082,-60.875213623046875
0.1771252602338791,-0.02242204174399376,9.7855224609375,0.000528233808518723,-0.00016675460212549993,0.0017197566897531966,3.209955930709839,2019-07-25 11:32:26:253,-178.82995398591942,-174.83380222987782,0,-49.17997741699219,19.19218635559082,-60.875213623046875
0.20346751809120178,-0.027211541309952736,9.79749584197998,-0.0032011022052954555,-0.0020314226090325893,-0.0006776736536055686,3.2199654579162598,2019-07-25 11:32:26:263,-178.82841902790392,-174.93214440330237,0,-49.17997741699219,19.19218635559082,-60.875213623046875
0.14120401442050934,-0.04876428842544556,9.79749584197998,-0.002401958822527782,-0.0020314226090325893,-0.0004112924935070534,3.2299532890319824,2019-07-25 11:32:26:273,-178.83419730928676,-175.02645103338915,0,-49.17997741699219,19.19218635559082,-60.875213623046875
0.16754627227783203,-0.041580040007829666,9.804679870605469,-0.004799389230905129,-0.0017650414814433647,0.00012146980230800906,3.2400054931640625,2019-07-25 11:32:26:283,-178.83693716491968,-175.11835348293513,0,-49.17997741699219,19.19218635559082,-60.875213623046875
0.14120401442050934,-0.06073803827166557,9.82623291015625,-0.005065770358494353,-0.0009658980336571096,-0.004140628507321232,3.2499847412109375,2019-07-25 11:32:26:293,-178.84319140081627,-175.20606483475007,0,-49.17997741699219,19.19218635559082,-60.875213623046875
0.17233577370643616,-0.06073803827166557,9.783126831054688,-0.004799389230905129,-0.0006995169060678851,0.002518900202558033,3.259978771209717,2019-07-25 11:32:26:303,-178.84575111180231,-175.2921360299335,0,-49.17997741699219,19.19218635559082,-60.875213623046875
0.14838826656341553,-0.046369537711143494,9.807074546813965,0.000528233808518723,-0.00043313574596936985,0.003584424712914931,3.2699716091156006,2019-07-25 11:32:26:313,-178.8512558340757,-175.3811716535513,0,-49.17997741699219,19.19218635559082,-60.875213623046875
0.0909142792224884,-0.05594853684306145,9.852575302124023,0.001060996096206463,0.0014315323097016555,0.001986137817342421,3.279982805252075,2019-07-25 11:32:26:323,-178.86446182656937,-175.46763754359745,0,-49.17997741699219,19.19218635559082,-60.875213623046875
0.16515152156352997,-0.020027291029691696,9.7855224609375,-0.00346748333288468,-0.0036297093745679366,-0.0004112924935070534,3.2900636196136475,2019-07-25 11:32:26:333,-178.86578011364278,-175.55397681533358,0,-49.17997741699219,19.19218635559082,-60.875213623046875
0.14120401442050934,-0.024816790595650673,9.831022262573242,-0.001336434182133721,-0.0017650414814433647,0.0033180435853257064,3.3000025749206543,2019-07-25 11:32:26:343,-178.87102171756365,-175.6392587855434,0,-49.17997741699219,19.19218635559082,-60.875213623046875
0.11965127289295197,-0.05594853684306145,9.845390319824219,-4.528479676974485e-06,-0.004961615272588385,0.0033180435853257064,3.3099818229675293,2019-07-25 11:32:26:353,-178.87689546931244,-175.7199592319675,0,-49.17997741699219,19.19218635559082,-60.875213623046875
0.13162502646446228,-0.0032640439458191395,9.79749584197998,-0.00400024558806313,-0.0012322792262649154,0.00012146980230800906,3.3199849128723145,2019-07-25 11:32:26:363,-178.88327147961465,-175.80293145811575,0,-48.28034210205078,19.19218635559082,-60.57533645629883
0.15796726942062378,-0.046369537711143494,9.75678539276123,0.0007946149686172382,-0.0017650414814433647,-0.00547253440534168,3.330007314682007,2019-07-25 11:32:26:373,-178.88606143177896,-175.88187403209295,0,-48.28034210205078,19.19218635559082,-60.57533645629883
0.13880927860736847,-0.0391852892935276,9.835811614990234,0.0015937583513849119,-0.004428853017409935,-0.0033414851245535584,3.339994430541992,2019-07-25 11:32:26:383,-178.88968579034645,-175.96056505610454,0,-48.28034210205078,19.19218635559082,-60.57533645629883
0.1172565221786499,-0.04876428842544556,9.828627586364746,0.000528233808518723,0.0019642945648801046,0.005182711738524604,3.349989891052246,2019-07-25 11:32:26:393,-178.89932428210022,-176.03596486150934,0,-48.28034210205078,19.19218635559082,-60.57533645629883
0.0909142792224884,-0.05115903913974762,9.831022262573242,0.0018601394789741364,-0.004428853017409935,0.001986137817342421,3.3599891662597656,2019-07-25 11:32:26:403,-178.90825440784167,-176.11032685003917,0,-48.28034210205078,19.19218635559082,-60.57533645629883
0.098098523914814,-0.06792228668928146,9.799890518188477,-0.004266626715652354,-0.0030969471193894875,0.0014533755621639719,3.3699874877929688,2019-07-25 11:32:26:413,-178.91688025861296,-176.17778288449458,0,-48.28034210205078,19.19218635559082,-60.57533645629883
0.1172565221786499,-0.03200104087591171,9.852575302124023,-0.001336434182133721,-0.00016675460212549993,0.00038785095427920163,3.3799967765808105,2019-07-25 11:32:26:423,-178.924811917313,-176.2497542174323,0,-48.28034210205078,19.19218635559082,-60.57533645629883
0.08133527636528015,-0.041580040007829666,9.842995643615723,0.0023929017341525857,-0.0009658980336571096,0.0014533755621639719,3.389986753463745,2019-07-25 11:32:26:433,-178.93630508404578,-176.32126070315806,0,-48.28034210205078,19.19218635559082,-60.57533645629883
0.09570377320051193,-0.027211541309952736,9.804679870605469,0.0015937583513849119,-0.00016675460212549993,-0.0009440547811947932,3.399991035461426,2019-07-25 11:32:26:443,-178.94630034868726,-176.3925504423865,0,-48.28034210205078,19.19218635559082,-60.57533645629883
0.10528277605772018,-0.05115903913974762,9.83820629119873,-0.00027090962301288673,-0.00469523414499916,0.002252519074968808,3.4099860191345215,2019-07-25 11:32:26:453,-178.95247684086456,-176.45858864441956,0,-48.28034210205078,19.19218635559082,-60.57533645629883
0.10049327462911606,-0.005658793728798628,9.857364654541016,0.000528233808518723,-0.00149866035385414,-0.0025423417417858845,3.419987201690674,2019-07-25 11:32:26:463,-178.96090380141274,-176.52905567622344,0,-48.28034210205078,19.19218635559082,-60.57533645629883
0.12683552503585815,-0.05834328755736351,9.742416381835938,0.0021265206065633614,-0.005227996400177609,-0.001210435973802599,3.429985523223877,2019-07-25 11:32:26:473,-178.9638329898346,-176.59280606995307,0,-48.28034210205078,19.19218635559082,-60.57533645629883
0.16754627227783203,-0.03679053857922554,9.787917137145996,-0.0005372907668567566,0.0014315323097016555,0.00438356835575693,3.4399912357330322,2019-07-25 11:32:26:483,-178.96574711066776,-176.65634087423467,0,-48.28034210205078,19.19218635559082,-60.57533645629883
0.15317776799201965,-0.0391852892935276,9.783126831054688,0.000528233808518723,-0.0006995169060678851,-0.0014768171013918236,3.4499876499176025,2019-07-25 11:32:26:493,-178.9680990045361,-176.71892073269356,0,-48.28034210205078,18.89230728149414,-61.77484893798828
0.16515152156352997,-0.05834328755736351,9.761574745178223,-0.00346748333288468,-0.004961615272588385,-0.0009440547811947932,3.460000514984131,2019-07-25 11:32:26:503,-178.9665621391613,-176.7757439631953,0,-48.28034210205078,18.89230728149414,-61.77484893798828
0.15557251870632172,-0.05115903913974762,9.802285194396973,0.0007946149686172382,-0.0017650414814433647,-0.0022759606141966597,3.469987392425537,2019-07-25 11:32:26:513,-178.96805577633975,-176.8346940877961,0,-48.28034210205078,18.89230728149414,-61.77484893798828
0.18670426309108734,-0.027211541309952736,9.7855224609375,-0.0018691964373121703,0.0003660077018168852,-0.0025423417417858845,3.4799869060516357,2019-07-25 11:32:26:523,-178.96703915713235,-176.89376415660323,0,-48.28034210205078,18.89230728149414,-61.77484893798828
0.13880927860736847,-0.05115903913974762,9.773548126220703,0.000528233808518723,-0.004961615272588385,-0.0001449113496631835,3.489987850189209,2019-07-25 11:32:26:533,-178.96863834462457,-176.95018733383884,0,-48.28034210205078,18.89230728149414,-61.77484893798828
0.15796726942062378,-0.06073803827166557,9.75678539276123,-0.00400024558806313,0.001165151182112431,0.0017197566897531966,3.500014305114746,2019-07-25 11:32:26:543,-178.97137020961722,-177.00179803950442,0,-48.28034210205078,18.89230728149414,-61.77484893798828
0.18191476166248322,-0.05115903913974762,9.792706489562988,-0.003733864460473905,-0.004428853017409935,-0.0004112924935070534,3.50999116897583,2019-07-25 11:32:26:553,-178.96817704683983,-177.05368393388304,0,-48.28034210205078,18.89230728149414,-61.77484893798828
0.16036202013492584,0.003920205403119326,9.795101165771484,-0.006397675996440476,-0.0006995169060678851,-0.007603583426055476,3.519989490509033,2019-07-25 11:32:26:563,-178.9696619348323,-169.90947719127712,0,-48.28034210205078,18.89230728149414,-61.77484893798828
0.15796726942062378,-0.012843042612075806,9.814258575439453,-0.0010700530545444964,-0.002830565991800263,-0.002808722869375109,3.5299882888793945,2019-07-25 11:32:26:573,-178.9702368179283,-170.1091873299056,0,-48.28034210205078,18.89230728149414,-61.77484893798828
0.16515152156352997,-0.027211541309952736,9.761574745178223,0.001060996096206463,-0.0030969471193894875,-0.0014768171013918236,3.53999924659729,2019-07-25 11:32:26:583,-178.96970588357473,-170.30440561734238,0,-48.28034210205078,18.89230728149414,-61.77484893798828
0.16515152156352997,-0.046369537711143494,9.7855224609375,-0.0010700530545444964,-0.004428853017409935,-0.003075103996964334,3.5499870777130127,2019-07-25 11:32:26:593,-178.96849006818016,-170.49228742411427,0,-48.28034210205078,18.89230728149414,-61.77484893798828
0.1627567708492279,-0.07031703740358353,9.804679870605469,0.000528233808518723,-0.00469523414499916,-0.0014768171013918236,3.5599851608276367,2019-07-25 11:32:26:603,-178.96746405967082,-170.67452010417256,0,-48.28034210205078,18.89230728149414,-61.77484893798828
0.14599351584911346,-0.027211541309952736,9.804679870605469,0.00026185266467485305,0.0003660077018168852,-0.0009440547811947932,3.569988965988159,2019-07-25 11:32:26:613,-178.9712587330656,-170.85799646490426,0,-50.229549407958984,18.14261245727539,-60.125518798828125
0.15317776799201965,-0.05115903913974762,9.790311813354492,-0.0010700530545444964,0.000898769989504625,0.002518900202558033,3.579989194869995,2019-07-25 11:32:26:623,-178.97441086528082,-171.03424778863788,0,-50.229549407958984,18.14261245727539,-60.125518798828125
0.16036202013492584,-0.04876428842544556,9.807074546813965,-0.00400024558806313,-0.002830565991800263,0.0009206132419669414,3.5900039672851562,2019-07-25 11:32:26:633,-178.97459498041053,-171.2056155264039,0,-50.229549407958984,18.14261245727539,-60.125518798828125
0.11007227748632431,-0.053553786128759384,9.828627586364746,-0.0016028153097229455,-0.0030969471193894875,0.003051662457736482,3.6000115871429443,2019-07-25 11:32:26:643,-178.9805300797331,-171.37435879969453,0,-50.229549407958984,18.14261245727539,-60.125518798828125
0.13162502646446228,-0.05115903913974762,9.821443557739258,-0.0005372907668567566,-0.004961615272588385,0.002518900202558033,3.6099846363067627,2019-07-25 11:32:26:653,-178.98278463354512,-171.54060182879653,0,-50.229549407958984,18.14261245727539,-60.125518798828125
0.1172565221786499,-0.04876428842544556,9.814258575439453,-0.004266626715652354,-0.0017650414814433647,-0.0025423417417858845,3.6199896335601807,2019-07-25 11:32:26:663,-178.9884471241068,-171.70169920476113,0,-50.229549407958984,18.14261245727539,-60.125518798828125
0.11965127289295197,-0.034395791590213776,9.862154006958008,-0.001336434182133721,-0.0025641848642110384,0.0011869944345747473,3.629984140396118,2019-07-25 11:32:26:673,-178.99333719966563,-171.86291868476823,0,-50.229549407958984,18.14261245727539,-60.125518798828125
0.06936153024435043,-0.02242204174399376,9.809469223022461,-0.002135577564901395,-0.00149866035385414,0.007580141886827625,3.6399893760681152,2019-07-25 11:32:26:683,-179.0045260285288,-172.02184128181045,0,-50.229549407958984,18.14261245727539,-60.125518798828125
0.11007227748632431,-0.03200104087591171,9.842995643615723,0.00026185266467485305,-0.0017650414814433647,0.0011869944345747473,3.649991512298584,2019-07-25 11:32:26:693,-179.0106302141211,-172.17782598883076,0,-50.229549407958984,18.14261245727539,-60.125518798828125
0.11007227748632431,-0.03200104087591171,9.773548126220703,-0.004266626715652354,-0.00469523414499916,0.005449092866113828,3.659987449645996,2019-07-25 11:32:26:703,-179.01487725522463,-172.32812273642926,0,-50.229549407958984,18.14261245727539,-60.125518798828125
0.09570377320051193,-0.017632542178034782,9.883707046508789,0.00026185266467485305,-0.0030969471193894875,0.0027852813301472578,3.6700074672698975,2019-07-25 11:32:26:713,-179.0217417625003,-172.47966329366918,0,-50.229549407958984,18.14261245727539,-60.125518798828125
0.09570377320051193,-0.03679053857922554,9.862154006958008,-0.002135577564901395,-0.0017650414814433647,-0.0001449113496631835,3.679987907409668,2019-07-25 11:32:26:723,-179.02919801529146,-172.62459845745846,0,-50.229549407958984,18.14261245727539,-60.125518798828125
0.12683552503585815,-0.05834328755736351,9.802285194396973,-0.002135577564901395,0.0022306756924693294,-0.0033414851245535584,3.6899831295013428,2019-07-25 11:32:26:733,-179.0350393643174,-172.76408751822697,0,-50.229549407958984,18.14261245727539,-60.125518798828125
0.10528277605772018,-0.06792228668928146,9.773548126220703,-0.0008036719269552719,-0.0030969471193894875,-0.0004112924935070534,3.6999833583831787,2019-07-25 11:32:26:743,-179.04025603228388,-172.90039096576274,0,-48.730159759521484,18.44249153137207,-61.624908447265625
0.08612477779388428,-0.05115903913974762,9.787917137145996,-0.00400024558806313,0.0003660077018168852,0.0027852813301472578,3.709995746612549,2019-07-25 11:32:26:753,-179.04957392321995,-173.0341448665994,0,-48.730159759521484,18.44249153137207,-61.624908447265625
0.12923027575016022,-0.015237792395055294,9.787917137145996,-0.003733864460473905,-0.00016675460212549993,0.0011869944345747473,3.719987392425537,2019-07-25 11:32:26:763,-179.05336019848852,-173.16958320534158,0,-48.730159759521484,18.44249153137207,-61.624908447265625
0.11007227748632431,-0.008053543046116829,9.728048324584961,-0.002135577564901395,-0.0009658980336571096,-0.007337202298466253,3.729984998703003,2019-07-25 11:32:26:773,-179.05878536171684,-173.30404403737455,0,-48.730159759521484,18.44249153137207,-61.624908447265625
0.1364145278930664,-0.0391852892935276,9.737627029418945,-0.0005372907668567566,-0.0020314226090325893,-0.002009579356570273,3.739985942840576,2019-07-25 11:32:26:783,-179.06041681124478,-173.43305017379151,0,-48.730159759521484,18.44249153137207,-61.624908447265625
0.10767752677202225,-0.04397478699684143,9.840600967407227,-0.001336434182133721,0.0003660077018168852,0.002252519074968808,3.7499992847442627,2019-07-25 11:32:26:793,-179.0668759594606,-173.55851703336162,0,-48.730159759521484,18.44249153137207,-61.624908447265625
0.11007227748632431,-0.027211541309952736,9.83820629119873,0.0013273772237956873,-0.0022978037366218136,-0.005206153277752455,3.759983539581299,2019-07-25 11:32:26:803,-179.07143000684098,-173.68492135441178,0,-48.730159759521484,18.44249153137207,-61.624908447265625
0.07415103167295456,-0.053553786128759384,9.804679870605469,-0.003733864460473905,-0.006559902038123733,-0.006271677788109354,3.7699851989746094,2019-07-25 11:32:26:813,-179.0776512309868,-173.80286701788913,0,-48.730159759521484,18.44249153137207,-61.624908447265625
0.08851952850818634,-0.08947503566741943,9.823838233947754,0.001060996096206463,-0.006559902038123733,-0.005738915532930904,3.7799904346466064,2019-07-25 11:32:26:823,-179.08208769487385,-173.91696908303362,0,-48.730159759521484,18.44249153137207,-61.624908447265625
0.08133527636528015,-0.07271178811788559,9.792706489562988,-0.0016028153097229455,-0.002830565991800263,-0.004407009894984782,3.789987087249756,2019-07-25 11:32:26:833,-179.08933970246827,-174.0292216468367,0,-48.730159759521484,18.44249153137207,-61.624908447265625
0.08851952850818634,-0.0391852892935276,9.790311813354492,0.0015937583513849119,-0.0022978037366218136,-0.0014768171013918236,3.7999844551086426,2019-07-25 11:32:26:843,-179.09590247120173,-174.14494541960542,0,-48.730159759521484,18.44249153137207,-61.624908447265625
0.10049327462911606,-0.02960629016160965,9.780732154846191,0.0007946149686172382,-0.002830565991800263,-0.004673391022574007,3.809983730316162,2019-07-25 11:32:26:853,-179.10062174876543,-174.25902397656898,0,-48.730159759521484,18.44249153137207,-61.624908447265625
0.08373002707958221,-0.0655275359749794,9.840600967407227,-0.002401958822527782,-0.004428853017409935,-0.002009579356570273,3.819986343383789,2019-07-25 11:32:26:863,-179.10637193318976,-174.3648640283266,0,-49.32991409301758,18.44249153137207,-61.02515411376953
0.08133527636528015,-0.012843042612075806,9.799890518188477,-0.005065770358494353,-0.005227996400177609,-0.009201870711739474,3.829998731613159,2019-07-25 11:32:26:873,-179.11179491013434,-174.4732170458865,0,-49.32991409301758,18.44249153137207,-61.02515411376953
0.05499303340911865,-0.053553786128759384,9.799890518188477,0.00026185266467485305,-0.006559902038123733,-0.005738915532930904,3.839993953704834,2019-07-25 11:32:26:883,-179.11944704708534,-174.57763760410862,0,-49.32991409301758,18.44249153137207,-61.02515411376953
0.07654578238725662,-0.041580040007829666,9.804679870605469,-0.00346748333288468,-0.003896090502157161,-0.004939772150163231,3.849982738494873,2019-07-25 11:32:26:893,-179.12592685328667,-174.67928043740977,0,-49.32991409301758,18.44249153137207,-61.02515411376953
0.08133527636528015,-0.04876428842544556,9.7855224609375,-0.0008036719269552719,-0.0020314226090325893,-0.010267395222096373,3.8599765300750732,2019-07-25 11:32:26:903,-179.13274398489744,-174.77953344318988,0,-49.32991409301758,18.44249153137207,-61.02515411376953
0.09330902993679047,-0.03679053857922554,9.821443557739258,-0.0010700530545444964,-0.0017650414814433647,-0.00840272680882315,3.869985580444336,2019-07-25 11:32:26:913,-179.13821064902015,-174.87904888621222,0,-49.32991409301758,18.44249153137207,-61.02515411376953
0.05978253111243248,-0.041580040007829666,9.866943359375,0.002925663989331035,-0.0033633282469787123,-0.0036078662521427827,3.879974365234375,2019-07-25 11:32:26:923,-179.1466171807025,-174.97827987671684,0,-49.32991409301758,18.44249153137207,-61.02515411376953
0.08612477779388428,-0.08468553423881531,9.7759428024292,-0.0010700530545444964,-0.004961615272588385,-0.005206153277752455,3.8899788856506348,2019-07-25 11:32:26:933,-179.15080253216024,-175.06818676115066,0,-49.32991409301758,18.44249153137207,-61.02515411376953
0.07654578238725662,-0.04876428842544556,9.864548683166504,-0.0016028153097229455,-0.004428853017409935,-0.00547253440534168,3.8999719619750977,2019-07-25 11:32:26:943,-179.15640964373281,-175.16025901155976,0,-49.32991409301758,18.44249153137207,-61.02515411376953
0.13162502646446228,-0.041580040007829666,9.85496997833252,-0.0018691964373121703,0.0014315323097016555,-0.003075103996964334,3.9099783897399902,2019-07-25 11:32:26:953,-179.15878159425844,-175.25116879281163,0,-49.32991409301758,18.44249153137207,-61.02515411376953
0.15796726942062378,0.0015254555037245154,9.819048881530762,0.003724807632173034,-0.0033633282469787123,-0.006005296660520129,3.9199869632720947,2019-07-25 11:32:26:963,-179.15528212466714,-168.14841671022282,0,-49.32991409301758,18.44249153137207,-61.02515411376953
0.03344028443098068,-0.012843042612075806,9.831022262573242,0.000528233808518723,-0.007891807676069855,-0.007603583426055476,3.9299826622009277,2019-07-25 11:32:26:973,-179.16384932471212,-168.38424785161675,0,-49.32991409301758,18.44249153137207,-61.02515411376953
0.028650784865021706,-0.08229078352451324,9.804679870605469,-0.005065770358494353,-0.0012322792262649154,-0.010800157477274823,3.9399971961975098,2019-07-25 11:32:26:983,-179.17653087713126,-168.6040968812957,0,-49.32991409301758,18.44249153137207,-61.02515411376953
0.06217728182673454,-0.015237792395055294,9.900469779968262,-0.004266626715652354,0.000898769989504625,-0.010001013574358498,3.949978828430176,2019-07-25 11:32:26:993,-179.18630746560748,-168.8278599640472,0,-49.03003692626953,18.44249153137207,-61.624908447265625
0.1507830172777176,-0.02242204174399376,9.816654205322266,-0.002401958822527782,-0.008424569931248304,-0.014529493263523966,3.959975242614746,2019-07-25 11:32:27:003,-179.18025284087872,-169.04733719131855,0,-49.03003692626953,18.44249153137207,-61.624908447265625
0.021466536447405815,-0.17329126596450806,9.701705932617188,-0.001336434182133721,0.0019642945648801046,-0.011066538084715397,3.969982624053955,2019-07-25 11:32:27:013,-179.19521603421754,-169.24517339121994,0,-49.03003692626953,18.44249153137207,-61.624908447265625
0.13401977717876434,-0.118212029337883,9.725653648376465,-0.010393392910278845,-0.00149866035385414,-0.020922640325665355,3.9799749851226807,2019-07-25 11:32:27:023,-179.19468111134515,-169.44051097497362,0,-49.03003692626953,18.44249153137207,-61.624908447265625
0.098098523914814,-0.08468553423881531,9.819048881530762,0.0015937583513849119,-0.008158188803659079,-0.017459686187154086,3.9899773597717285,2019-07-25 11:32:27:033,-179.1947575470076,-169.64271302327668,0,-49.03003692626953,18.44249153137207,-61.624908447265625
0.09570377320051193,-0.2738707661628723,9.73523235321045,-0.0066640571240297,-0.008158188803659079,-0.026250262877449845,3.9999759197235107,2019-07-25 11:32:27:043,-179.19501749849294,-169.81388913838632,0,-49.03003692626953,18.44249153137207,-61.624908447265625
0.13401977717876434,-0.046369537711143494,9.75678539276123,0.0013273772237956873,0.00169791343729088,-0.01426311161578609,4.009980916976929,2019-07-25 11:32:27:053,-179.19633162703374,-170.0129110769817,0,-49.03003692626953,18.44249153137207,-61.624908447265625
0.18430951237678528,0.02547295205295086,9.866943359375,0.000528233808518723,-0.0020314226090325893,-0.015062255518702414,4.019993543624878,2019-07-25 11:32:27:063,-179.1898602785252,-163.01590817401842,0,-49.03003692626953,18.44249153137207,-61.624908447265625
-0.02403370849788189,-0.0391852892935276,9.771153450012207,-0.0016028153097229455,-0.005227996400177609,-0.019324354600427307,4.0299811363220215,2019-07-25 11:32:27:073,-172.00594975852943,-163.3500957040725,0,-49.03003692626953,18.44249153137207,-61.624908447265625
0.1172565221786499,-0.12300153076648712,9.842995643615723,-0.009594250047659821,-0.004428853017409935,-0.014795873870964541,4.039978265762329,2019-07-25 11:32:27:083,-172.14969439467296,-163.66338915967518,0,-49.03003692626953,18.44249153137207,-61.624908447265625
0.021466536447405815,0.04942044988274574,9.773548126220703,0.0021265206065633614,0.0038289624580046767,-0.014529493263523966,4.049979209899902,2019-07-25 11:32:27:093,-172.30633379194543,-156.79710985950697,0,-49.03003692626953,18.44249153137207,-61.624908447265625
0.05259828269481659,0.003920205403119326,9.900469779968262,0.005855856912961156,-0.012686667972675897,-0.008136345681233927,4.05997633934021,2019-07-25 11:32:27:103,-172.4469977590944,-150.06490851264354,0,-49.03003692626953,18.44249153137207,-61.624908447265625
0.10767752677202225,-0.15892277657985687,9.716073989868164,-0.002934721077706231,-0.0006995169060678851,-0.010800157477274823,4.069974899291992,2019-07-25 11:32:27:113,-172.5849660948417,-150.6432210269675,0,-47.53064727783203,18.14261245727539,-59.82564163208008
0.1507830172777176,-0.09426452964544296,9.737627029418945,-0.0016028153097229455,-0.00043313574596936985,-0.002808722869375109,4.079985857009888,2019-07-25 11:32:27:123,-172.71528070324024,-151.21836301919893,0,-47.53064727783203,18.14261245727539,-59.82564163208008
0.098098523914814,-0.015237792395055294,9.771153450012207,0.001060996096206463,0.0024970568200585537,-0.007869964553644701,4.089977502822876,2019-07-25 11:32:27:133,-172.85087185812375,-151.79280399275942,0,-47.53064727783203,18.14261245727539,-59.82564163208008
0.1962832659482956,-0.12300153076648712,9.82623291015625,-0.0016028153097229455,-0.005227996400177609,0.007047379631649175,4.099993944168091,2019-07-25 11:32:27:143,-172.9680269643942,-152.34170301171588,0,-47.53064727783203,18.14261245727539,-59.82564163208008
0.0717562809586525,-0.06792228668928146,9.809469223022461,0.005855856912961156,0.006226392606307698,0.003051662457736482,4.109985589981079,2019-07-25 11:32:27:153,-173.1037773907417,-152.89021988974827,0,-47.53064727783203,18.14261245727539,-59.82564163208008
0.06457202881574631,0.02547295205295086,9.83820629119873,-0.00027090962301288673,0.0003660077018168852,-0.0014768171013918236,4.119976997375488,2019-07-25 11:32:27:163,-173.23438619110587,-146.23523048995446,0,-47.53064727783203,18.14261245727539,-59.82564163208008
0.12923027575016022,0.05660469830036163,9.910049438476562,0.00026185266467485305,-0.006559902038123733,0.0038508058405041555,4.12997841835022,2019-07-25 11:32:27:173,-173.35107230184565,-139.71721815571456,0,-47.53064727783203,18.14261245727539,-59.82564163208008
0.028650784865021706,-0.0032640439458191395,9.66578483581543,0.00026185266467485305,0.0024970568200585537,0.0033180435853257064,4.139979124069214,2019-07-25 11:32:27:183,-173.48205639909125,-140.52263386806993,0,-47.53064727783203,18.14261245727539,-59.82564163208008
0.06696677953004837,0.003920205403119326,9.725653648376465,-0.005065770358494353,0.006226392606307698,0.0057154739937030526,4.149976968765259,2019-07-25 11:32:27:193,-173.60802045822473,-134.1097992749321,0,-47.53064727783203,18.14261245727539,-59.82564163208008
0.10049327462911606,-0.046369537711143494,9.989075660705566,-4.528479676974485e-06,-0.0033633282469787123,0.005182711738524604,4.159986734390259,2019-07-25 11:32:27:203,-173.72244181459575,-135.02228141374613,0,-47.53064727783203,18.14261245727539,-59.82564163208008
0.10288802534341812,-0.053553786128759384,9.831022262573242,0.005323094137634056,0.0032962002028262276,0.005981855121292278,4.169984340667725,2019-07-25 11:32:27:213,-173.83785103501972,-135.91858174917448,0,-47.53064727783203,18.14261245727539,-59.82564163208008
0.05978253111243248,0.023078203201293945,9.790311813354492,0.010917098337156423,0.007025536509224022,-0.0006776736536055686,4.17999529838562,2019-07-25 11:32:27:223,-173.9580459545821,-129.6090479704934,0,-47.53064727783203,18.14261245727539,-59.82564163208008
0.07415103167295456,0.030262451618909836,9.888496398925781,-0.00027090962301288673,0.00462810584077235,-0.0014768171013918236,4.1899824142456055,2019-07-25 11:32:27:233,-174.07288762729917,-123.42022200572549,0,-47.53064727783203,18.14261245727539,-59.82564163208008
0.16515152156352997,0.0853416919708252,9.79749584197998,0.0018601394789741364,-0.0020314226090325893,-0.0004112924935070534,4.1999735832214355,2019-07-25 11:32:27:243,-174.17097594022394,-117.36284242503585,0,-47.83052444458008,19.94188117980957,-59.22588348388672
0.16515152156352997,-0.024816790595650673,9.751995086669922,0.0015937583513849119,-0.004162471629746385,0.00038785095427920163,4.209980487823486,2019-07-25 11:32:27:253,-174.26581318542927,-118.6135649780339,0,-47.83052444458008,19.94188117980957,-59.22588348388672
0.07894052565097809,0.003920205403119326,9.670574188232422,-0.002135577564901395,0.009955728392556842,-0.0022759606141966597,4.219976186752319,2019-07-25 11:32:27:263,-174.376730788121,-112.64055959540765,0,-47.83052444458008,19.94188117980957,-59.22588348388672
0.13401977717876434,-0.03200104087591171,9.869338035583496,0.003458426504583809,0.002763437947647778,-0.0009440547811947932,4.22997522354126,2019-07-25 11:32:27:273,-174.47518778950354,-113.98597453335451,0,-47.83052444458008,19.94188117980957,-59.22588348388672
0.1699410229921341,-0.046369537711143494,9.910049438476562,-0.008528725017154272,-0.0033633282469787123,-0.008935489064001599,4.2399866580963135,2019-07-25 11:32:27:283,-174.56414473120674,-115.2960989512733,0,-47.83052444458008,19.94188117980957,-59.22588348388672
0.1627567708492279,-0.07510653138160706,9.859759330749512,-0.005598532613672802,-0.00016675460212549993,-0.006538058915698578,4.249979496002197,2019-07-25 11:32:27:293,-174.6538541600197,-116.57830683361658,0,-47.83052444458008,19.94188117980957,-59.22588348388672
0.20107276737689972,-0.06792228668928146,9.749600410461426,-0.002401958822527782,0.0054272492235400245,-0.0070708211708770275,4.259977340698242,2019-07-25 11:32:27:303,-174.74019415134484,-117.83740919993801,0,-47.83052444458008,19.94188117980957,-59.22588348388672
0.30404698848724365,-0.09905403107404709,9.823838233947754,0.001060996096206463,0.0038289624580046767,-0.012398444242810171,4.269977807998657,2019-07-25 11:32:27:313,-174.81208565011735,-119.06970288477433,0,-47.83052444458008,19.94188117980957,-59.22588348388672
0.272915244102478,-0.08947503566741943,9.811863899230957,0.0021265206065633614,-0.0006995169060678851,-0.009734632966917924,4.280094623565674,2019-07-25 11:32:27:323,-174.8835813493019,-120.27906742333813,0,-47.83052444458008,19.94188117980957,-59.22588348388672
0.3136259913444519,-0.07989603281021118,9.773548126220703,-0.00346748333288468,0.001165151182112431,-0.02065625971822478,4.290511608123779,2019-07-25 11:32:27:334,-174.94983225637,-121.46209056932321,0,-47.83052444458008,19.94188117980957,-59.22588348388672
0.38307374715805054,-0.08468553423881531,9.704100608825684,-0.002135577564901395,0.002763437947647778,-0.019857115815308458,4.3001110553741455,2019-07-25 11:32:27:343,-175.00711306590009,-122.62169776786284,0,-47.83052444458008,19.94188117980957,-59.22588348388672
0.35673150420188904,-0.09665928035974503,9.783126831054688,0.003724807632173034,0.0003660077018168852,-0.01586139838132144,4.3100905418396,2019-07-25 11:32:27:353,-175.06540978487408,-123.7600294861513,0,-47.83052444458008,19.94188117980957,-59.22588348388672
0.30404698848724365,-0.05115903913974762,9.823838233947754,-0.0026683399501170064,-0.0009658980336571096,-0.012664824850250743,4.319975137710571,2019-07-25 11:32:27:363,-175.12811082181497,-124.87738045284716,0,-48.880096435546875,18.292551040649414,-59.97557830810547
0.2226255089044571,-0.12300153076648712,9.802285194396973,-0.002934721077706231,-0.0012322792262649154,0.0038508058405041555,4.329979658126831,2019-07-25 11:32:27:373,-175.19883527475358,-125.96380577568823,0,-48.880096435546875,18.292551040649414,-59.97557830810547
0.19149376451969147,-0.07989603281021118,9.773548126220703,-4.528479676974485e-06,0.002763437947647778,-0.0033414851245535584,4.339992046356201,2019-07-25 11:32:27:383,-175.27396303176494,-127.03515978227269,0,-48.880096435546875,18.292551040649414,-59.97557830810547
0.28488901257514954,-0.1445542722940445,9.792706489562988,0.003991188759762259,-0.0033633282469787123,0.006248236248881503,4.349939823150635,2019-07-25 11:32:27:393,-175.3332776003078,-128.0797718151535,0,-48.880096435546875,18.292551040649414,-59.97557830810547
0.17952001094818115,-0.07989603281021118,9.847785949707031,-4.528479676974485e-06,0.0006323888619154005,0.004649949483346154,4.3599536418914795,2019-07-25 11:32:27:403,-175.40608049333184,-129.108877113382,0,-48.880096435546875,18.292551040649414,-59.97557830810547
0.2633362412452698,-0.08947503566741943,9.7759428024292,0.0015937583513849119,-0.0020314226090325893,0.005981855121292278,4.369960784912109,2019-07-25 11:32:27:413,-175.46595716640599,-130.11710731959062,0,-48.880096435546875,18.292551040649414,-59.97557830810547
0.2681257426738739,-0.05834328755736351,9.761574745178223,0.006388619168139605,0.003029819075237003,0.003584424712914931,4.379956483840942,2019-07-25 11:32:27:423,-175.52687104283956,-131.11150196842814,0,-48.880096435546875,18.292551040649414,-59.97557830810547
0.28488901257514954,-0.053553786128759384,9.823838233947754,0.0023929017341525857,-0.0012322792262649154,0.006780998504059952,4.389944076538086,2019-07-25 11:32:27:433,-175.58242058407978,-132.0843670773574,0,-48.880096435546875,18.292551040649414,-59.97557830810547
0.21783600747585297,-0.034395791590213776,9.7759428024292,-0.00027090962301288673,-0.0022978037366218136,0.003584424712914931,4.399959325790405,2019-07-25 11:32:27:443,-175.64394993446624,-133.03849560227124,0,-48.880096435546875,18.292551040649414,-59.97557830810547
0.22502025961875916,-0.05594853684306145,9.7759428024292,-0.00400024558806313,-0.0006995169060678851,-0.002009579356570273,4.40995454788208,2019-07-25 11:32:27:453,-175.70430659770054,-133.9689225319585,0,-48.880096435546875,18.292551040649414,-59.97557830810547
0.2345992624759674,-0.08947503566741943,9.85496997833252,0.001060996096206463,-0.00149866035385414,-0.00547253440534168,4.419966459274292,2019-07-25 11:32:27:463,-175.76210440018443,-134.87973685199054,0,-48.880096435546875,18.292551040649414,-59.97557830810547
0.2154412567615509,-0.05115903913974762,9.914838790893555,0.001060996096206463,-0.0009658980336571096,-0.006538058915698578,4.429954528808594,2019-07-25 11:32:27:473,-175.8214247273688,-135.77682445680503,0,-48.880096435546875,18.292551040649414,-59.97557830810547
0.14838826656341553,-0.04876428842544556,9.833416938781738,0.0018601394789741364,0.0022306756924693294,-0.0038742473797320075,4.439954042434692,2019-07-25 11:32:27:483,-175.88895790574082,-136.65664979026187,0,-48.880096435546875,18.292551040649414,-59.97557830810547
0.1890990138053894,-0.04397478699684143,9.763969421386719,0.003458426504583809,0.000898769989504625,-0.00547253440534168,4.44996190071106,2019-07-25 11:32:27:493,-175.94949360360306,-137.52029930343917,0,-48.130401611328125,19.342124938964844,-59.82564163208008
0.1699410229921341,-0.03679053857922554,9.730443000793457,0.00265928286174181,-0.00149866035385414,-0.013996731008345515,4.4599504470825195,2019-07-25 11:32:27:503,-176.00965195535542,-138.36705213601445,0,-48.130401611328125,19.342124938964844,-59.82564163208008
0.12683552503585815,-0.012843042612075806,9.85496997833252,-0.002135577564901395,-0.00043313574596936985,-0.013996731008345515,4.469963788986206,2019-07-25 11:32:27:513,-176.07446802751682,-139.19701700786803,0,-48.130401611328125,19.342124938964844,-59.82564163208008
0.13880927860736847,-0.03200104087591171,9.811863899230957,-0.0005372907668567566,-0.0025641848642110384,-0.011599300339893846,4.479935646057129,2019-07-25 11:32:27:523,-176.13533264805855,-140.00903847952208,0,-48.130401611328125,19.342124938964844,-59.82564163208008
