ACCELEROMETER X (m/s²),ACCELEROMETER Y (m/s²),ACCELEROMETER Z (m/s²),GYROSCOPE X (rad/s),GYROSCOPE Y (rad/s),GYROSCOPE Z (rad/s),Time since start in ms ,YYYY-MO-DD HH-MI-SS_SSS,Pitch (Deg),Roll (Deg),Heading (Deg),MagX,MagY,MagZ
-0.02463958039879799,0.02297043986618519,9.877645492553711,-0.0011267922997395827,-6.659528596096748e-05,0.00035242226430983473,0.0,2019-08-07 14:20:10:707,3.5971415434199567,3.5973351809671437,0,-44.68180847167969,50.979244232177734,-48.28034210205078
-0.043797578662633896,0.01578618958592415,9.834540367126465,0.0015370192362269886,-0.003529550070594388,-0.003909676004682793,0.009999752044677734,2019-08-07 14:20:10:717,7.122077263349071,7.122686067418302,0,-44.68180847167969,50.979244232177734,-48.28034210205078
-0.00787633191794157,0.025365188717842102,9.832145690917969,0.0012706381086377639,0.002064453868853653,0.00035242226430983473,0.019997119903564453,2019-08-07 14:20:10:727,10.577558865684631,10.576562820258001,0,-44.68180847167969,50.979244232177734,-48.28034210205078
-0.0030868323519825935,0.001417691819369793,9.84411907196045,0.0028689248741731116,-0.0008657387296835611,0.0022170901899436976,0.03000044822692871,2019-08-07 14:20:10:737,13.966134635153965,13.963255102294957,0,-44.68180847167969,50.979244232177734,-48.28034210205078
-0.000692082685418427,-0.041687801480293274,9.841724395751953,-0.0005940299795425521,-0.003529550070594388,-0.0004467211834764202,0.04003119468688965,2019-08-07 14:20:10:747,17.288719291207272,10.089178439271853,0,-44.68180847167969,50.979244232177734,-48.28034210205078
-0.029429078102111816,0.01818094030022621,9.8034086227417,0.0010042569160299579,-0.00033297644199582136,0.00061880342440835,0.04999256134033203,2019-08-07 14:20:10:757,20.539691208824614,13.484708001393642,0,-44.68180847167969,50.979244232177734,-48.28034210205078
-0.0030868323519825935,-0.01774030551314354,9.889619827270508,0.0015370192362269886,-0.0016648821774698163,-0.008171774566259036,0.05999636650085449,2019-08-07 14:20:10:767,23.72947489652267,9.616206055333393,0,-44.68180847167969,50.979244232177734,-48.28034210205078
0.008886916562914848,0.05649693310260773,9.860882759094238,-0.0005940299795425521,0.0012653104860859794,0.001950709062354473,0.07003164291381836,2019-08-07 14:20:10:777,19.655205154629247,13.017651321937382,0,-44.68180847167969,50.979244232177734,-48.28034210205078
0.018465915694832802,0.0517074353992939,9.812987327575684,0.001803400363816213,-0.0021976444326482656,-0.0017786268539318336,0.07999706268310547,2019-08-07 14:20:10:787,15.665487121061142,16.35025108932919,0,-44.68180847167969,50.979244232177734,-48.28034210205078
0.004097416531294584,0.013391440734267235,9.834540367126465,0.002602543746583887,0.004994646272335123,-0.007106249535753488,0.0899972915649414,2019-08-07 14:20:10:797,11.74985025620617,19.6202243464943,0,-44.68180847167969,50.979244232177734,-48.28034210205078
0.02325541339814663,-0.00337180751375854,9.796224594116211,0.0010042569160299579,0.0031299783792105513,-0.005507962770218141,0.09999561309814453,2019-08-07 14:20:10:807,7.9158163696066515,15.627650483251397,0,-44.68180847167969,51.27912139892578,-47.68058776855469
0.0352291613817215,0.01818094030022621,9.810592651367188,0.00020511348449834825,-0.0008657387296835611,-0.006573487280575038,0.1100001335144043,2019-08-07 14:20:10:817,4.162101259217139,18.9128586480814,0,-44.68180847167969,51.27912139892578,-47.68058776855469
0.018465915694832802,0.03733893856406212,9.820171356201172,-0.004323365830810277,-0.001132119922291367,-0.0023113892391474454,0.12000131607055664,2019-08-07 14:20:10:827,0.4816497777784563,22.132672267260233,0,-44.68180847167969,51.27912139892578,-47.68058776855469
0.042413413524627686,0.0038124416023492813,9.805803298950195,-0.0029914601928641544,-0.003529550070594388,-0.007372630663342713,0.12999939918518066,2019-08-07 14:20:10:837,-3.1210453187849554,25.291252675198855,0,-44.68180847167969,51.27912139892578,-47.68058776855469
0.03762391209602356,0.025365188717842102,9.781855583190918,-0.0037906035756318283,-0.002996787815415939,-0.008171774566259036,0.1399974822998047,2019-08-07 14:20:10:847,-6.652534533854318,28.384584181911098,0,-44.68180847167969,51.27912139892578,-47.68058776855469
0.05199240893125534,0.001417691819369793,9.858488082885742,-0.002192316810096481,-0.00246402556023749,-0.0023113892391474454,0.14999794960021973,2019-08-07 14:20:10:857,-10.112056874865441,31.41795875124886,0,-44.68180847167969,51.27912139892578,-47.68058776855469
0.06636090576648712,0.01818094030022621,9.781855583190918,0.0015370192362269886,-0.0027304066878267143,-0.0017786268539318336,0.15999794006347656,2019-08-07 14:20:10:867,-13.500508753661904,34.38660670164635,0,-44.68180847167969,51.27912139892578,-47.68058776855469
0.028044912964105606,0.008601941168308258,9.810592651367188,-0.0061880337239348495,-0.0048614559686148365,-0.008704536821437486,0.17000055313110352,2019-08-07 14:20:10:877,-16.824492417795195,37.3013453079456,0,-44.68180847167969,51.27912139892578,-47.68058776855469
-0.005481582134962082,0.020575689151883125,9.85609245300293,-0.002192316810096481,-0.006726123861739408,8.60411123386422e-05,0.17999553680419922,2019-08-07 14:20:10:887,-12.884865068977936,40.1541565444273,0,-44.68180847167969,51.27912139892578,-47.68058776855469
0.05678191035985947,-0.012950805947184563,9.810592651367188,-0.0011267922997395827,-0.00033297644199582136,-0.004442438259861242,0.19000029563903809,2019-08-07 14:20:10:897,-16.22034843766215,35.75321911087528,0,-44.68180847167969,51.27912139892578,-47.68058776855469
0.006492166314274073,0.00620719138532877,9.8034086227417,-0.004589746958399502,-0.006193361606560959,-0.007372630663342713,0.1999955177307129,2019-08-07 14:20:10:907,-19.491706700340927,38.6400050785598,0,-44.68180847167969,51.27912139892578,-47.68058776855469
-0.03661332651972771,-0.06324055045843124,9.817776679992676,-0.002192316810096481,-0.007791648372096307,-0.0007131023435749355,0.21000456809997559,2019-08-07 14:20:10:917,-15.501767037427328,34.27581831036371,0,-44.68180847167969,51.27912139892578,-47.68058776855469
0.061571408063173294,0.03973368555307388,9.769882202148438,-0.0013931734273288073,0.002064453868853653,-0.0009794834711641602,0.21999835968017578,2019-08-07 14:20:10:927,-18.78566851171382,37.18642336035689,0,-44.68180847167969,51.27912139892578,-47.68058776855469
0.04480816051363945,0.1235499233007431,9.731565475463867,-0.007519939882029623,-0.006992504989328633,0.0032826149603749208,0.2300267219543457,2019-08-07 14:20:10:937,-22.000741490619998,40.03238178145697,0,-44.68180847167969,51.27912139892578,-47.68058776855469
0.107071653008461,-0.03210880234837532,9.719592094421387,-0.008585464392386522,-0.0115209846784941,0.01313871668117623,0.23999285697937012,2019-08-07 14:20:10:947,-25.14165658149207,35.64032408071522,0,-44.68180847167969,51.27912139892578,-47.68058776855469
-0.015060581266880035,0.010996690951287746,9.71719741821289,-0.0013931734273288073,-0.007258886116917857,0.026191392453196884,0.25000476837158203,2019-08-07 14:20:10:957,-21.036518781278332,38.52700399457326,0,-44.68180847167969,51.27912139892578,-47.68058776855469
0.05917666107416153,-0.0009770578471943736,9.777066230773926,-0.0037906035756318283,-0.005127837096204061,0.046169979623131976,0.2600066661834717,2019-08-07 14:20:10:967,-24.20597290283186,34.15870725288444,0,-44.68180847167969,51.27912139892578,-47.68058776855469
0.17651939392089844,-0.09437229484319687,9.939908981323242,-0.0024586979376857053,-0.005394218223793286,0.0680132310451511,0.2700328826904297,2019-08-07 14:20:10:977,-27.29846887957726,29.887796601114825,0,-44.68180847167969,51.27912139892578,-47.68058776855469
0.15736140310764313,0.01818094030022621,9.882434844970703,0.013790551365405645,-0.0016648821774698163,0.09811430002317943,0.27999329566955566,2019-08-07 14:20:10:987,-30.333323108174024,32.880219782371626,0,-44.68180847167969,51.27912139892578,-47.68058776855469
-0.027034329250454903,-0.11592504382133484,9.975830078125,0.004999974154961233,0.021776657830604923,0.12581794145364797,0.2899949550628662,2019-08-07 14:20:10:997,-26.141991642872924,28.633123059511757,0,-44.68180847167969,51.27912139892578,-47.68058776855469
1.0146818161010742,-0.06084579974412918,9.882434844970703,0.029240657805877972,0.018313703692093654,0.15139053802459196,0.3000009059906006,2019-08-07 14:20:11:007,-29.11219469921716,24.451087510539324,0,-44.68180847167969,51.27912139892578,-47.68058776855469
0.2651251256465912,0.5091046094894409,9.326852798461914,0.06280468300301217,-0.01205374693367255,0.16204577896697173,0.3099982738494873,2019-08-07 14:20:11:017,-32.09061939602219,27.464322710172315,0,-44.68180847167969,51.27912139892578,-47.68058776855469
-0.02463958039879799,-0.15663579106330872,9.839329719543457,-0.00272507906527493,0.022043040518640096,0.1729674025973867,0.31999969482421875,2019-08-07 14:20:11:027,-27.864055491894288,23.334807298846528,0,-44.68180847167969,51.27912139892578,-47.68058776855469
0.09270315617322922,-0.06803005188703537,10.339832305908203,-0.005921652596345625,0.01804732308465308,0.17616397820905197,0.3300020694732666,2019-08-07 14:20:11:037,-30.90663675080736,19.27897628820641,0,-44.68180847167969,51.27912139892578,-47.68058776855469
0.04480816051363945,0.8156325817108154,9.896803855895996,0.03616656816349511,0.0031299783792105513,0.17669674358512233,0.34000086784362793,2019-08-07 14:20:11:047,-33.88507314170178,22.37886548268016,0,-44.68180847167969,51.27912139892578,-47.68058776855469
0.004097416531294584,0.5522100925445557,9.863277435302734,0.015921601426416743,0.011121412727035939,0.15591901043167633,0.34999704360961914,2019-08-07 14:20:11:057,-36.81313791104425,25.45826277076935,0,-43.93211364746094,52.02881622314453,-48.130401611328125
-0.11803481727838516,0.3151299059391022,9.944698333740234,0.009794834971715925,0.017248179181736756,0.12608432414168316,0.35999608039855957,2019-08-07 14:20:11:067,-32.50015942005885,28.507298366603656,0,-43.93211364746094,52.02881622314453,-48.130401611328125
-0.10845582187175751,0.5234731435775757,9.73396110534668,0.02045008111558221,0.024973231361675615,0.09438496735782219,0.3699953556060791,2019-08-07 14:20:11:077,-28.276944917151834,31.464104773863063,0,-43.93211364746094,52.02881622314453,-48.130401611328125
-0.10606107115745544,0.4851571321487427,9.954277992248535,0.008995691068799602,0.006592933558019122,0.06907875763610259,0.37999415397644043,2019-08-07 14:20:11:087,-24.127316563106508,34.373966106438886,0,-43.93211364746094,52.02881622314453,-48.130401611328125
-0.043797578662633896,-0.005766557063907385,9.975830078125,0.005266355282550457,0.006060170782692022,0.023261201610161368,0.39000606536865234,2019-08-07 14:20:11:097,-20.053208023040487,30.084188610430928,0,-43.93211364746094,52.02881622314453,-48.130401611328125
-0.08690307289361954,-0.17339903116226196,9.875250816345215,0.0055327364101396825,0.008990363706322143,-0.016163208393935775,0.39999842643737793,2019-08-07 14:20:11:107,-16.067271980727327,25.89951959395114,0,-43.93211364746094,52.02881622314453,-48.130401611328125
-0.03182382881641388,-0.30511027574539185,9.78664493560791,-0.006987177626851173,0.014850748513285082,-0.06491095630320982,0.40999555587768555,2019-08-07 14:20:11:117,-12.157989052843792,21.821165077987125,0,-43.93211364746094,52.02881622314453,-48.130401611328125
-0.03182382881641388,-0.4799270033836365,9.927935600280762,-0.0056552714687564,0.0009989292934781736,-0.09634393039903563,0.4199972152709961,2019-08-07 14:20:11:127,-8.319063462666868,17.84326942377473,0,-43.93211364746094,52.02881622314453,-48.130401611328125
0.11665065586566925,-0.3937160074710846,9.817776679992676,-0.002192316810096481,-0.012852889796291574,-0.13683386595378697,0.42999887466430664,2019-08-07 14:20:11:137,-11.731849473643344,13.93356453053667,0,-43.93211364746094,52.02881622314453,-48.130401611328125
0.17651939392089844,-0.5876907110214233,9.765092849731445,-0.01604413596488481,-0.0005993576020943366,-0.15388225811949732,0.4399986267089844,2019-08-07 14:20:11:147,-15.076163985312627,10.132783113475728,0,-43.93211364746094,52.02881622314453,-48.130401611328125
0.4016258716583252,-0.4056897461414337,9.71719741821289,-0.012847562433814115,0.004994646272335123,-0.18158589122758748,0.45000290870666504,2019-08-07 14:20:11:157,-18.330110981101985,6.385158254627985,0,-43.93211364746094,52.02881622314453,-48.130401611328125
0.27230939269065857,-0.2572152614593506,9.899198532104492,-0.01444584919934946,-0.009922697912958753,-0.20795762754025857,0.45999860763549805,2019-08-07 14:20:11:167,-21.526425418530888,2.6953310599561044,0,-43.93211364746094,52.02881622314453,-48.130401611328125
0.34415188431739807,-0.2620047628879547,9.824960708618164,-0.020039854439169127,-0.01844689503611124,-0.22527240239400412,0.4700000286102295,2019-08-07 14:20:11:177,-24.645414436696043,-0.9167704252367419,0,-43.93211364746094,52.02881622314453,-48.130401611328125
0.4590998589992523,-0.4727427363395691,9.657328605651855,-0.01444584919934946,-0.006459742734150184,-0.23512851191703518,0.48000526428222656,2019-08-07 14:20:11:187,-27.69444239936707,-4.43426966067937,0,-43.93211364746094,52.02881622314453,-48.130401611328125
0.46867886185646057,-0.24524152278900146,9.798619270324707,-0.013913086944171014,-0.0115209846784941,-0.23805870484066532,0.49003076553344727,2019-08-07 14:20:11:197,-30.67929936112568,-7.909077980476592,0,-43.93211364746094,52.02881622314453,-48.130401611328125
0.5165738463401794,-0.16621479392051697,9.777066230773926,-0.013913086944171014,-0.027503852333847577,-0.23166555361733474,0.4999961853027344,2019-08-07 14:20:11:207,-33.589834896493805,-11.32363202049303,0,-43.93211364746094,52.02881622314453,-48.130401611328125
0.3800731301307678,-0.355400025844574,9.772276878356934,-0.023236427970239823,-0.021909849174622513,-0.22527240239400412,0.5100328922271729,2019-08-07 14:20:11:217,-36.461145050741045,-14.642407747848235,0,-43.93211364746094,52.02881622314453,-48.130401611328125
0.3417571187019348,-0.35779476165771484,9.710013389587402,-0.017642422730420156,-0.02430727880277688,-0.21541630951572988,0.5199952125549316,2019-08-07 14:20:11:227,-39.278009658053406,-17.897485097893522,0,-43.93211364746094,52.02881622314453,-48.130401611328125
0.16933514177799225,-0.27158376574516296,9.78664493560791,-0.01657689822006326,-0.027770235021882753,-0.19890066608133303,0.5300033092498779,2019-08-07 14:20:11:237,-42.05701846325098,-21.098428443716436,0,-43.93211364746094,52.02881622314453,-48.130401611328125
0.24836188554763794,-0.5972697138786316,9.889619827270508,-0.03042871893529754,-0.028569376844204478,-0.1898437212671643,0.5400354862213135,2019-08-07 14:20:11:247,-44.771013032335844,-24.190197206351417,0,-43.93211364746094,52.02881622314453,-48.130401611328125
0.11904539912939072,-0.17339903116226196,9.877645492553711,-0.008585464392386522,-0.023774517587895734,-0.17998761174413325,0.5499980449676514,2019-08-07 14:20:11:257,-47.44848348618736,-27.281476455017426,0,-43.93211364746094,52.02881622314453,-48.130401611328125
0.1789141446352005,-0.0656353011727333,9.841724395751953,-0.007253558754440398,-0.027237471726407003,-0.16427111637384195,0.5599992275238037,2019-08-07 14:20:11:267,-50.06338873214339,-30.324131485191522,0,-43.93211364746094,52.02881622314453,-48.130401611328125
0.13580864667892456,-0.036898303776979446,9.719592094421387,-0.008851844999827095,-0.012852889796291574,-0.14429253128450142,0.5699989795684814,2019-08-07 14:20:11:277,-52.638893798537744,-33.30832848300615,0,-43.93211364746094,52.02881622314453,-48.130401611328125
0.07833465933799744,-0.05366155132651329,9.85609245300293,-0.011515657316016642,-0.018180512348076064,-0.1448252966605718,0.580003023147583,2019-08-07 14:20:11:287,-55.16679609823082,-36.229454390551645,0,-43.93211364746094,52.02881622314453,-48.130401611328125
0.028044912964105606,-0.02492455393075943,10.023725509643555,-0.008585464392386522,-0.020844324664265612,-0.1299079576767644,0.5900046825408936,2019-08-07 14:20:11:297,-57.64854807887846,-39.097194398905394,0,-43.93211364746094,52.02881622314453,-48.130401611328125
-0.0701398253440857,0.23849791288375854,9.820171356201172,-0.005388890341167176,-0.022975373684979407,-0.11632251548837612,0.6000006198883057,2019-08-07 14:20:11:307,-52.890866192903424,-34.740050732266425,0,-44.381927490234375,50.67936325073242,-47.68058776855469
0.11425590515136719,0.10918142646551132,9.731565475463867,-0.005122509213577951,-0.011787365285934675,-0.1091302245233184,0.6100020408630371,2019-08-07 14:20:11:317,-55.41297604538798,-30.45522886706034,0,-44.381927490234375,50.67936325073242,-47.68058776855469
0.17651939392089844,0.6096841096878052,9.662117958068848,0.008729310461359028,-0.006726123861739408,-0.09554479065730849,0.6200015544891357,2019-08-07 14:20:11:327,-57.88000733922243,-26.323237610794692,0,-44.381927490234375,50.67936325073242,-47.68058776855469
0.20765113830566406,0.7485796213150024,9.741145133972168,0.007397404303264255,-0.0019312633050590406,-0.08675421188641813,0.6300079822540283,2019-08-07 14:20:11:337,-60.296898410355,-22.288816817881596,0,-44.381927490234375,50.67936325073242,-47.68058776855469
0.107071653008461,0.008601941168308258,10.114726066589355,-0.024035569792561547,-0.01658222662283802,-0.08142659141522826,0.6400349140167236,2019-08-07 14:20:11:347,-62.66949458062839,-18.2304827240688,0,-44.381927490234375,50.67936325073242,-47.68058776855469
-0.11803481727838516,0.4133146405220032,9.927935600280762,0.0012706381086377639,-0.021909849174622513,-0.05558761631743831,0.6500062942504883,2019-08-07 14:20:11:357,-57.81746087976933,-14.314263117358523,0,-44.381927490234375,50.67936325073242,-47.68058776855469
-0.04140282794833183,0.5665786266326904,9.724381446838379,0.009794834971715925,-0.0037959311981836125,-0.03880560683976311,0.6599931716918945,2019-08-07 14:20:11:367,-53.06386190519258,-10.50016033315402,0,-44.381927490234375,50.67936325073242,-47.68058776855469
0.15736140310764313,0.2289189100265503,10.02612018585205,-0.009384607255005544,0.0009989292934781736,-0.018560639062387443,0.6700012683868408,2019-08-07 14:20:11:377,-55.58516218472291,-6.711042705064882,0,-44.381927490234375,50.67936325073242,-47.68058776855469
0.21962489187717438,0.36302489042282104,9.937514305114746,-0.0029914601928641544,-0.006193361606560959,-0.0007131023435749355,0.6800222396850586,2019-08-07 14:20:11:387,-58.04465279975968,-3.0169811818267283,0,-44.381927490234375,50.67936325073242,-47.68058776855469
0.18370364606380463,0.2863928973674774,9.932724952697754,0.010860359482072824,-0.012852889796291574,0.024326726120518262,0.6899967193603516,2019-08-07 14:20:11:397,-60.45537023096323,0.6042445901677369,0,-44.381927490234375,50.67936325073242,-47.68058776855469
0.07354515790939331,0.10199718177318573,9.793828964233398,-0.008319083264797297,-0.0016648821774698163,0.05442779301795199,0.7000017166137695,2019-08-07 14:20:11:407,-62.83672262601323,4.184899556155703,0,-44.381927490234375,50.67936325073242,-47.68058776855469
0.028044912964105606,0.17144492268562317,9.882434844970703,-0.0011267922997395827,0.01564989241620141,0.07147618934485157,0.7100279331207275,2019-08-07 14:20:11:417,-65.18554667119065,7.681958051272558,0,-44.381927490234375,50.67936325073242,-47.68058776855469
0.05678191035985947,0.2025766670703888,9.925540924072266,0.007663785430853478,0.001531691613675204,0.08799181613449159,0.7199954986572266,2019-08-07 14:20:11:427,-67.47613752296046,11.100645170073891,0,-44.381927490234375,50.67936325073242,-47.68058776855469
0.018465915694832802,0.15228691697120667,9.841724395751953,-0.00032764881944403687,-0.005394218223793286,0.10770402685817532,0.7300050258636475,2019-08-07 14:20:11:437,-69.72143297478175,14.461086390587777,0,-44.381927490234375,50.67936325073242,-47.68058776855469
-0.10127156972885132,0.18581341207027435,9.915961265563965,0.00393444938453001,-0.001132119922291367,0.12635070682971833,0.7400052547454834,2019-08-07 14:20:11:447,-64.73807142949966,17.74818483124535,0,-44.381927490234375,50.67936325073242,-47.68058776855469
-0.055771324783563614,0.18102392554283142,9.781855583190918,0.010860359482072824,0.013518843395487609,0.1415344285015609,0.7500004768371582,2019-08-07 14:20:11:457,-59.85743056201094,20.965921971487862,0,-44.381927490234375,50.67936325073242,-47.68058776855469
0.04001866281032562,0.034944187849760056,9.86567211151123,0.0071310231756750294,0.016715416926558306,0.15218966944394066,0.7599997520446777,2019-08-07 14:20:11:467,-62.265018740070495,24.138540949057443,0,-44.381927490234375,50.67936325073242,-47.68058776855469
-0.04140282794833183,0.06847068667411804,9.870461463928223,0.012458646247608172,0.002597216124032102,0.15671815849578183,0.770000696182251,2019-08-07 14:20:11:477,-57.42598348771154,27.240824949531742,0,-44.381927490234375,50.67936325073242,-47.68058776855469
-0.04858707636594772,0.08283918350934982,9.808197975158691,0.010860359482072824,0.0004661670057904337,0.16577511995470737,0.7800326347351074,2019-08-07 14:20:11:487,-52.68340290579648,30.280212824215752,0,-44.381927490234375,50.67936325073242,-47.68058776855469
-0.07971882075071335,0.013391440734267235,9.779460906982422,0.008729310461359028,0.010855031079298064,0.17243463722131633,0.7900464534759521,2019-08-07 14:20:11:497,-48.04517926059485,33.26813114750914,0,-44.381927490234375,50.67936325073242,-47.68058776855469
-0.07732407003641129,0.08762867748737335,9.738750457763672,0.005799117537728906,0.016182654671379856,0.16737339943816162,0.7999954223632812,2019-08-07 14:20:11:507,-43.50241403366966,36.18921834495504,0,-44.381927490234375,50.67936325073242,-47.68058776855469
-0.0030868323519825935,0.06128643453121185,9.899198532104492,0.01352417075796507,0.008990363706322143,0.1772295089611927,0.8099982738494873,2019-08-07 14:20:11:517,-39.03777259626279,39.050743678970925,0,-44.381927490234375,50.67936325073242,-47.68058776855469
-0.012665831483900547,0.01818094030022621,9.913566589355469,0.011659502344691848,-0.001132119922291367,0.17323378528542185,0.8200082778930664,2019-08-07 14:20:11:527,-34.65784487547834,41.86107391692675,0,-44.381927490234375,50.67936325073242,-47.68058776855469
-0.043797578662633896,-0.022529805079102516,9.714802742004395,0.015388839171238292,0.009523125961500591,0.16684063406209126,0.8300013542175293,2019-08-07 14:20:11:537,-30.375197633582793,37.417875121336955,0,-44.381927490234375,50.67936325073242,-47.68058776855469
-0.01745533011853695,-0.0009770578471943736,9.810592651367188,0.008995691068799602,0.01937922820245055,0.1687053128783375,0.8400073051452637,2019-08-07 14:20:11:547,-26.18062041529777,33.06457766893931,0,-44.381927490234375,50.67936325073242,-47.68058776855469
0.03762391209602356,-0.03929305449128151,9.812987327575684,0.006598260920496581,0.010322268824119614,0.16044748283876067,0.8499970436096191,2019-08-07 14:20:11:557,-29.25840447324198,28.804173440756077,0,-44.08205032348633,52.77851104736328,-47.68058776855469
0.018465915694832802,-0.07521429657936096,9.81538200378418,0.005799117537728906,-0.001132119922291367,0.14819396241292665,0.8599879741668701,2019-08-07 14:20:11:567,-32.27044544032357,24.633617593911797,0,-44.08205032348633,52.77851104736328,-47.68058776855469
-0.000692082685418427,-0.04408255219459534,9.789039611816406,0.004200830512119234,-0.0013985010498805918,0.1404688977494202,0.8700070381164551,2019-08-07 14:20:11:577,-28.02433079402109,20.543742301159973,0,-44.08205032348633,52.77851104736328,-47.68058776855469
-0.022244829684495926,-0.07042480260133743,9.77467155456543,0.004999974154961233,0.008191220323554469,0.12901451706531328,0.8800008296966553,2019-08-07 14:20:11:587,-23.871048508806062,16.538317698434593,0,-44.08205032348633,52.77851104736328,-47.68058776855469
-0.02463958039879799,-0.08000379800796509,9.903987884521484,0.004999974154961233,0.007924839195965244,0.11835926780055508,0.8900048732757568,2019-08-07 14:20:11:597,-19.800929978117388,12.613999164073247,0,-44.08205032348633,52.77851104736328,-47.68058776855469
-0.0030868323519825935,-0.05845104902982712,9.834540367126465,0.003668068256940785,0.0007325481658889489,0.1015772583228799,0.8999934196472168,2019-08-07 14:20:11:607,-15.80568190834493,8.766472530469578,0,-44.08205032348633,52.77851104736328,-47.68058776855469
-0.0629555732011795,-0.06084579974412918,9.848908424377441,0.003135306001762336,-0.0075252672445070825,0.09225391417591919,0.9099793434143066,2019-08-07 14:20:11:617,-11.892673540498803,4.996464376319798,0,-44.08205032348633,52.77851104736328,-47.68058776855469
-0.12521906197071075,-0.08000379800796509,9.77467155456543,-0.0019259356825072562,0.0017980727412644285,0.08319696103937205,0.9200005531311035,2019-08-07 14:20:11:627,-8.070510849255687,1.3069976809607584,0,-44.08205032348633,52.77851104736328,-47.68058776855469
-0.13000856339931488,-0.0728195458650589,9.798619270324707,0.0028689248741731116,0.0017980727412644285,0.07307447715068421,0.9300012588500977,2019-08-07 14:20:11:637,-4.325313491360019,-2.3122374393860117,0,-44.08205032348633,52.77851104736328,-47.68058776855469
-0.06056082621216774,-0.10155654698610306,9.877645492553711,-0.00032764881944403687,0.0004661670057904337,0.059755417650331086,0.9399893283843994,2019-08-07 14:20:11:647,-0.6460942957301095,-5.854027673656676,0,-44.08205032348633,52.77851104736328,-47.68058776855469
-0.10606107115745544,-0.08000379800796509,9.896803855895996,-0.0013931734273288073,-0.006726123861739408,0.04963293376164325,0.9499855041503906,2019-08-07 14:20:11:657,2.9583228925444693,-9.326902001943417,0,-44.08205032348633,52.77851104736328,-47.68058776855469
-0.10845582187175751,-0.0728195458650589,9.90638256072998,-0.0008604111071317767,-0.00246402556023749,0.02459310672795884,0.9599936008453369,2019-08-07 14:20:11:667,6.487996032982542,-12.731457240129647,0,-44.08205032348633,52.77851104736328,-47.68058776855469
-0.11803481727838516,-0.1518462896347046,9.872856140136719,0.0034016871293515603,0.0009989292934781736,0.015003385094449453,0.9699947834014893,2019-08-07 14:20:11:677,9.94397582065603,-16.061115367067632,0,-44.08205032348633,52.77851104736328,-47.68058776855469
-0.12761381268501282,-0.13508303463459015,9.817776679992676,-0.003524222448042604,-0.005394218223793286,-0.0033769137495043436,0.9800198078155518,2019-08-07 14:20:11:687,13.33323868341788,-19.322143575255303,0,-44.08205032348633,52.77851104736328,-47.68058776855469
-0.08211357146501541,-0.1183197945356369,9.834540367126465,-0.0024586979376857053,-0.00805802949968553,-0.016695970649114225,0.990018367767334,2019-08-07 14:20:11:697,16.661530221962643,-22.52053445047357,0,-44.08205032348633,52.77851104736328,-47.68058776855469
-0.11324531584978104,-0.14705678820610046,9.848908424377441,0.0010042569160299579,-0.00805802949968553,-0.02415464222161251,1.0000193119049072,2019-08-07 14:20:11:707,19.919649161824932,-25.653578990870955,0,-44.08205032348633,52.77851104736328,-47.68058776855469
-0.17790356278419495,-0.06803005188703537,9.822566032409668,-6.126766340918298e-05,-0.0048614559686148365,-0.030547791364348504,1.0100247859954834,2019-08-07 14:20:11:717,23.10323514073383,-28.73253662741039,0,-44.08205032348633,52.77851104736328,-47.68058776855469
-0.10127156972885132,-0.06324055045843124,9.824960708618164,0.0007378757884407334,0.001531691613675204,-0.044665992687023356,1.0200188159942627,2019-08-07 14:20:11:727,26.228499710131405,-31.75092412440592,0,-44.08205032348633,52.77851104736328,-47.68058776855469
-0.07971882075071335,-0.1255040466785431,9.949487686157227,-0.0016595545549180318,-0.004328693453362062,-0.06277990728249602,1.0300207138061523,2019-08-07 14:20:11:737,29.29717944741338,-34.70051967553362,0,-44.08205032348633,52.77851104736328,-47.68058776855469
-0.13000856339931488,-0.03210880234837532,9.870461463928223,0.0010042569160299579,0.0028635972516213265,-0.062247146067614875,1.0400211811065674,2019-08-07 14:20:11:747,32.29453534843464,-37.60334552480087,0,-44.08205032348633,52.77851104736328,-47.68058776855469
0.10467690229415894,0.07565493136644363,9.698039054870605,0.004467211899782784,-0.006193361606560959,-0.0630462899705312,1.0500190258026123,2019-08-07 14:20:11:757,28.064489547768346,-33.26272557574371,0,-44.08205032348633,52.77851104736328,-47.68058776855469
0.028044912964105606,-0.020135056227445602,9.78664493560791,-6.126766340918298e-05,0.002597216124032102,-0.06437819508832868,1.060023546218872,2019-08-07 14:20:11:767,23.905024526498973,-36.19507904204451,0,-44.08205032348633,52.77851104736328,-47.68058776855469
0.13580864667892456,-0.08958279341459274,9.913566589355469,-0.00032764881944403687,-0.001132119922291367,-0.0715704902145756,1.0700137615203857,2019-08-07 14:20:11:777,19.843256325381226,-39.06063901550675,0,-44.08205032348633,52.77851104736328,-47.68058776855469
0.15017715096473694,-0.19495178759098053,9.951883316040039,-0.00911822664756497,-0.002996787815415939,-0.06384543387344753,1.0800213813781738,2019-08-07 14:20:11:787,15.86536609931288,-41.851857491993265,0,-44.08205032348633,52.77851104736328,-47.68058776855469
0.20046688616275787,0.0038124416023492813,9.820171356201172,0.001803400363816213,-0.009922697912958753,-0.05771866533815211,1.0900084972381592,2019-08-07 14:20:11:797,11.977012408374478,-37.41627651805535,0,-44.08205032348633,52.77851104736328,-47.68058776855469
0.16215088963508606,-0.015345555730164051,9.77467155456543,-0.0032578413204533796,-0.006992504989328633,-0.05452209388767601,1.1000266075134277,2019-08-07 14:20:11:807,8.160413269849577,-40.26431939491832,0,-43.33235549926758,51.728939056396484,-48.730159759521484
0.14778240025043488,-0.03929305449128151,9.784250259399414,-0.008319083264797297,0.002064453868853653,-0.05345656729672451,1.109971284866333,2019-08-07 14:20:11:817,4.413358949415478,-43.049785780797215,0,-43.33235549926758,51.728939056396484,-48.730159759521484
0.21723014116287231,0.04931268468499184,9.853697776794434,0.006065498665318131,0.0028635972516213265,-0.042801322193155536,1.1200196743011475,2019-08-07 14:20:11:827,0.7487343266524289,-38.59794698449003,0,-43.33235549926758,51.728939056396484,-48.730159759521484
0.28667786717414856,0.09481292963027954,9.827356338500977,-0.0024586979376857053,-0.012852889796291574,-0.04706342023458313,1.1300239562988281,2019-08-07 14:20:11:837,-2.8256018901632425,-34.23566218496013,0,-43.33235549926758,51.728939056396484,-48.730159759521484
0.12383490055799484,0.025365188717842102,9.760302543640137,0.00020511348449834825,-0.005127837096204061,-0.03907198536660909,1.140016794204712,2019-08-07 14:20:11:847,-6.35167449229194,-29.954042041887632,0,-43.33235549926758,51.728939056396484,-48.730159759521484
0.23638813197612762,0.0038124416023492813,9.767487525939941,-0.0013931734273288073,0.004994646272335123,-0.034543506717740924,1.150024652481079,2019-08-07 14:20:11:857,-9.79972019667648,-25.75462559460687,0,-43.33235549926758,51.728939056396484,-48.730159759521484
0.2315986305475235,0.07326018065214157,9.899198532104492,0.00047149462834221814,-0.0008657387296835611,-0.02708483514524263,1.1600148677825928,2019-08-07 14:20:11:867,-13.176435555376738,-21.648277895272717,0,-43.33235549926758,51.728939056396484,-48.730159759521484
0.21483539044857025,0.008601941168308258,9.908777236938477,0.006065498665318131,-0.005127837096204061,-0.02415464222161251,1.1700232028961182,2019-08-07 14:20:11:877,-16.48518409779008,-17.619715729660157,0,-43.33235549926758,51.728939056396484,-48.730159759521484
0.22680914402008057,0.04931268468499184,9.822566032409668,0.001803400363816213,-0.004062312325772837,-0.01296663486286508,1.1800193786621094,2019-08-07 14:20:11:887,-19.726745104436954,-13.674086479627555,0,-43.33235549926758,51.728939056396484,-48.730159759521484
0.2124406397342682,0.08762867748737335,9.760302543640137,-6.126766340918298e-05,0.0031299783792105513,-0.0158968277864952,1.190018892288208,2019-08-07 14:20:11:897,-22.909029781515592,-9.810858183737142,0,-43.33235549926758,51.728939056396484,-48.730159759521484
0.18130889534950256,-0.012950805947184563,9.798619270324707,0.004999974154961233,0.0028635972516213265,-0.00257777036673667,1.2000243663787842,2019-08-07 14:20:11:907,-26.031256925484517,-13.215935483240223,0,-43.33235549926758,51.728939056396484,-48.730159759521484
0.2507566213607788,0.08523393422365189,9.858488082885742,0.00020511348449834825,-0.001132119922291367,-0.0033769137495043436,1.2099907398223877,2019-08-07 14:20:11:917,-29.08085746630346,-9.361638599751549,0,-43.33235549926758,51.728939056396484,-48.730159759521484
0.2435723841190338,0.11157617717981339,9.824960708618164,0.002336162618994662,-0.006193361606560959,-0.00257777036673667,1.2200243473052979,2019-08-07 14:20:11:927,-32.06734828212366,-5.588734903998467,0,-43.33235549926758,51.728939056396484,-48.730159759521484
0.18130889534950256,0.01818094030022621,9.77467155456543,-6.126766340918298e-05,-0.0075252672445070825,0.007011950746624065,1.2300105094909668,2019-08-07 14:20:11:937,-35.000528759518176,-1.8790572583566063,0,-43.33235549926758,51.728939056396484,-48.730159759521484
0.205256387591362,0.025365188717842102,9.77467155456543,0.0028689248741731116,-0.0019312633050590406,0.0075447130018025145,1.2400233745574951,2019-08-07 14:20:11:947,-37.87537306941767,1.7539372825290809,0,-43.33235549926758,51.728939056396484,-48.730159759521484
0.15496665239334106,0.03015468828380108,9.872856140136719,0.001803400363816213,0.0017980727412644285,0.017400815762901124,1.249967336654663,2019-08-07 14:20:11:957,-40.70088448432192,5.314351642601242,0,-43.33235549926758,51.728939056396484,-48.730159759521484
0.17412464320659637,0.025365188717842102,9.772276878356934,-0.0016595545549180318,-0.0019312633050590406,0.012872336073735658,1.2600185871124268,2019-08-07 14:20:11:967,-43.465360812168385,8.80602685996601,0,-43.33235549926758,51.728939056396484,-48.730159759521484
0.17412464320659637,0.01578618958592415,9.796224594116211,0.001803400363816213,0.002064453868853653,0.021662913804328717,1.2700212001800537,2019-08-07 14:20:11:977,-46.17684696193294,12.227046859812202,0,-43.33235549926758,51.728939056396484,-48.730159759521484
0.12144014984369278,0.03015468828380108,9.801013946533203,0.002336162618994662,0.0004661670057904337,0.015536147349627901,1.280017614364624,2019-08-07 14:20:11:987,-48.83937386013376,15.577669024160022,0,-43.33235549926758,51.728939056396484,-48.730159759521484
0.152571901679039,0.06607593595981598,9.784250259399414,-0.004856128085988727,-0.00033297644199582136,0.02059738929397182,1.2899749279022217,2019-08-07 14:20:11:997,-51.44453268859436,18.861092124358027,0,-43.33235549926758,51.728939056396484,-48.730159759521484
0.10467690229415894,-0.0009770578471943736,9.784250259399414,0.004733593027372009,0.003929121761978225,0.024859487335399413,1.2999968528747559,2019-08-07 14:20:12:007,-54.00559394637047,14.88132097981251,0,-43.33235549926758,51.728939056396484,-48.730159759521484
0.10946640372276306,0.00620719138532877,9.810592651367188,0.0020697814914054373,-0.003263168943005164,0.022462057707245044,1.3100147247314453,2019-08-07 14:20:12:017,-56.51086095443962,18.18180527956183,0,-43.33235549926758,51.728939056396484,-48.730159759521484
0.06875565648078918,0.008601941168308258,9.820171356201172,-6.126766340918298e-05,0.002597216124032102,0.025658631238315736,1.3199849128723145,2019-08-07 14:20:12:027,-58.974074756085294,21.417199713043953,0,-43.33235549926758,51.728939056396484,-48.730159759521484
0.09749265760183334,0.04691793769598007,9.870461463928223,0.0015370192362269886,0.002330834996442878,0.022195675019209864,1.3300001621246338,2019-08-07 14:20:12:037,-61.38458593224245,24.58254445080115,0,-43.33235549926758,51.728939056396484,-48.730159759521484
0.11904539912939072,-0.005766557063907385,9.863277435302734,-6.126766340918298e-05,-0.0037959311981836125,0.022994818922126188,1.340001106262207,2019-08-07 14:20:12:047,-63.74093257900798,20.49159792527653,0,-43.33235549926758,51.728939056396484,-48.730159759521484
0.13101914525032043,-0.020135056227445602,9.846513748168945,0.00047149462834221814,-0.0008657387296835611,0.025125867942839983,1.3499972820281982,2019-08-07 14:20:12:057,-66.05038118235096,16.483844594667737,0,-44.08205032348633,51.878875732421875,-48.28034210205078
0.09030840545892715,0.03254943713545799,9.781855583190918,0.004467211899782784,-0.0037959311981836125,0.01846634027325802,1.3600280284881592,2019-08-07 14:20:12:067,-68.31665653183752,19.747838600451118,0,-44.08205032348633,51.878875732421875,-48.28034210205078
0.09509790688753128,0.0038124416023492813,9.8034086227417,-0.0005940299795425521,-0.0021976444326482656,0.015802528997365776,1.3699777126312256,2019-08-07 14:20:12:077,-70.53798003698877,22.952768062804044,0,-44.08205032348633,51.878875732421875,-48.28034210205078
0.04480816051363945,-0.0009770578471943736,9.820171356201172,0.003135306001762336,-0.0019312633050590406,0.013937860584092555,1.3800048828125,2019-08-07 14:20:12:087,-72.72090446116457,18.892061461124744,0,-44.08205032348633,51.878875732421875,-48.28034210205078
0.0352291613817215,-0.02492455393075943,9.846513748168945,-0.0019259356825072562,-0.0037959311981836125,0.010474905405283983,1.3899612426757812,2019-08-07 14:20:12:097,-74.86026438850097,14.918197581391052,0,-44.08205032348633,51.878875732421875,-48.28034210205078
0.05199240893125534,-0.022529805079102516,9.822566032409668,0.00020511348449834825,0.00019978586194656375,0.01793357697778227,1.4000046253204346,2019-08-07 14:20:12:107,-76.9571063095121,11.02234631611995,0,-44.08205032348633,51.878875732421875,-48.28034210205078
0.042413413524627686,-0.027319304645061493,9.84411907196045,-0.0005940299795425521,-6.659528596096748e-05,0.011274049308200309,1.4100072383880615,2019-08-07 14:20:12:117,-79.01298963053218,7.2054131497504015,0,-44.08205032348633,51.878875732421875,-48.28034210205078
0.07354515790939331,-0.029714053496718407,9.817776679992676,-0.0008604111071317767,0.002330834996442878,0.0016843279347652483,1.4200129508972168,2019-08-07 14:20:12:127,-81.02545543060194,3.4652564498205214,0,-44.08205032348633,51.878875732421875,-48.28034210205078
0.08551890403032303,-0.05366155132651329,9.796224594116211,0.0012706381086377639,-0.0075252672445070825,0.009409380894927086,1.4300141334533691,2019-08-07 14:20:12:137,-82.99071705593694,-0.1984852157798218,0,-44.08205032348633,51.878875732421875,-48.28034210205078
0.09509790688753128,-0.07042480260133743,9.822566032409668,-6.126766340918298e-05,-0.0013985010498805918,-0.002844151494325895,1.4400172233581543,2019-08-07 14:20:12:147,-84.91902329495949,-3.786265374616401,0,-44.08205032348633,51.878875732421875,-48.28034210205078
0.05199240893125534,-0.027319304645061493,9.772276878356934,0.003135306001762336,-0.0027304066878267143,-0.010302823586972834,1.4500133991241455,2019-08-07 14:20:12:157,-86.81301362546111,-7.309096359166775,0,-44.08205032348633,51.878875732421875,-48.28034210205078
0.03762391209602356,-0.015345555730164051,9.901593208312988,-6.126766340918298e-05,-0.0005993576020943366,0.0022170901899436976,1.4601068496704102,2019-08-07 14:20:12:167,-88.67205945912188,-10.761103762523188,0,-44.08205032348633,51.878875732421875,-48.28034210205078
0.054387159645557404,-0.03929305449128151,9.858488082885742,-0.002192316810096481,-0.0005993576020943366,-0.004442438259861242,1.4700121879577637,2019-08-07 14:20:12:177,-90.49196321133141,-14.140095096349736,0,-44.08205032348633,51.878875732421875,-48.28034210205078
0.07354515790939331,-0.0009770578471943736,9.738750457763672,0.001803400363816213,-0.00805802949968553,-0.00604072502539659,1.4801502227783203,2019-08-07 14:20:12:187,-92.26888335147675,-17.458204812708725,0,-44.08205032348633,51.878875732421875,-48.28034210205078
0.04720291122794151,0.01818094030022621,9.836935043334961,0.003668068256940785,-0.0016648821774698163,-0.0004467211834764202,1.4899959564208984,2019-08-07 14:20:12:197,-94.01708659879888,-13.513186474558452,0,-44.08205032348633,51.878875732421875,-48.28034210205078
0.06875565648078918,-0.036898303776979446,9.817776679992676,-0.0016595545549180318,-0.002996787815415939,-0.007639012311080588,1.5001723766326904,2019-08-07 14:20:12:207,-95.72700756659178,-16.83766777572081,0,-44.08205032348633,51.878875732421875,-48.28034210205078
0.0807294100522995,-0.01774030551314354,9.777066230773926,-0.0008604111071317767,0.00019978586194656375,-0.011901110352508182,1.5100910663604736,2019-08-07 14:20:12:217,-97.40311705219325,-20.0983559884761,0,-44.08205032348633,51.878875732421875,-48.28034210205078
0.049597661942243576,-0.015345555730164051,9.875250816345215,-0.002192316810096481,-0.0037959311981836125,-0.010036441939234959,1.5199964046478271,2019-08-07 14:20:12:227,-99.04718825570342,-23.293388854873307,0,-44.08205032348633,51.878875732421875,-48.28034210205078
0.03283441439270973,0.03973368555307388,9.882434844970703,0.0020697814914054373,0.0004661670057904337,-0.006573487280575038,1.5301659107208252,2019-08-07 14:20:12:237,-100.66270338619255,-19.233310242983983,0,-44.08205032348633,51.878875732421875,-48.28034210205078
0.09509790688753128,0.001417691819369793,9.769882202148438,0.002602543746583887,-0.004595074841025611,-0.013499397118043528,1.540020227432251,2019-08-07 14:20:12:247,-102.23575303766509,-15.250250355795158,0,-44.08205032348633,51.878875732421875,-48.28034210205078
0.020860664546489716,0.001417691819369793,9.817776679992676,0.00020511348449834825,0.004728265144745899,-0.013233016510602954,1.5499932765960693,2019-08-07 14:20:12:257,-103.79125091555568,-11.345525680004492,0,-44.08205032348633,51.878875732421875,-48.28034210205078
0.06875565648078918,-0.03210880234837532,9.841724395751953,0.00393444938453001,0.003662740634389001,-0.00950367968405651,1.560009241104126,2019-08-07 14:20:12:267,-105.30948040884977,-14.717089324339497,0,-44.08205032348633,51.878875732421875,-48.28034210205078
0.03762391209602356,-0.015345555730164051,9.882434844970703,0.001803400363816213,-0.00033297644199582136,-0.012433872607686629,1.5700106620788574,2019-08-07 14:20:12:277,-106.79874115679276,-18.02198089943374,0,-44.08205032348633,51.878875732421875,-48.28034210205078
0.10228215157985687,-0.015345555730164051,9.793828964233398,0.0012706381086377639,-0.004595074841025611,-0.011368348097329731,1.580012321472168,2019-08-07 14:20:12:287,-108.24821880787087,-21.260459373938073,0,-44.08205032348633,51.878875732421875,-48.28034210205078
0.03762391209602356,0.01818094030022621,9.827356338500977,0.0012706381086377639,-0.0048614559686148365,-0.015097683883578876,1.5900051593780518,2019-08-07 14:20:12:297,-109.67613958362135,-17.2380831170685,0,-44.08205032348633,51.878875732421875,-48.28034210205078
0.03283441439270973,-0.00337180751375854,9.827356338500977,-0.00272507906527493,-0.0016648821774698163,-0.010302823586972834,1.5999791622161865,2019-08-07 14:20:12:307,-111.07785576152924,-20.491402135970223,0,-44.53186798095703,52.628570556640625,-46.631011962890625
0.04720291122794151,0.01818094030022621,9.868066787719727,0.002336162618994662,0.0007325481658889489,-0.01536406553131675,1.610004186630249,2019-08-07 14:20:12:317,-112.4512296695199,-16.485000362091522,0,-44.53186798095703,52.628570556640625,-46.631011962890625
0.07115040719509125,0.0038124416023492813,9.824960708618164,0.0055327364101396825,-0.004328693453362062,-0.005241581642628916,1.6199917793273926,2019-08-07 14:20:12:327,-113.79147918906574,-12.558847781179672,0,-44.53186798095703,52.628570556640625,-46.631011962890625
0.05199240893125534,0.013391440734267235,9.858488082885742,-0.0011267922997395827,-0.0021976444326482656,-0.008171774566259036,1.630000352859497,2019-08-07 14:20:12:337,-115.10837121631462,-8.708594163255409,0,-44.53186798095703,52.628570556640625,-46.631011962890625
0.03762391209602356,0.042128436267375946,9.853697776794434,0.0028689248741731116,-0.0021976444326482656,-0.010569204194413408,1.6404087543487549,2019-08-07 14:20:12:347,-116.40054404743978,-4.940998177006728,0,-44.53186798095703,52.628570556640625,-46.631011962890625
0.025650164112448692,-0.027319304645061493,9.753118515014648,-0.00032764881944403687,-0.0016648821774698163,-0.009237299076615935,1.6500043869018555,2019-08-07 14:20:12:357,-117.66862245096605,-8.438791880944683,0,-44.53186798095703,52.628570556640625,-46.631011962890625
0.049597661942243576,0.010996690951287746,9.868066787719727,0.0007378757884407334,-0.00033297644199582136,-0.010835585842151283,1.6600172519683838,2019-08-07 14:20:12:367,-118.90930338428221,-4.671707867577254,0,-44.53186798095703,52.628570556640625,-46.631011962890625
0.020860664546489716,-0.010556057095527649,9.77467155456543,-0.0016595545549180318,0.0007325481658889489,-0.00257777036673667,1.6700360774993896,2019-08-07 14:20:12:377,-120.12908385791803,-8.1761025989658,0,-44.53186798095703,52.628570556640625,-46.631011962890625
0.03283441439270973,0.00620719138532877,9.81538200378418,0.0028689248741731116,0.0017980727412644285,-0.0033769137495043436,1.6800124645233154,2019-08-07 14:20:12:387,-121.32367610979432,-4.414912310953387,0,-44.53186798095703,52.628570556640625,-46.631011962890625
0.07115040719509125,0.02297043986618519,9.820171356201172,0.002602543746583887,-0.0005993576020943366,-0.008704536821437486,1.6900134086608887,2019-08-07 14:20:12:397,-122.48856362309401,-0.7307559427349415,0,-44.53186798095703,52.628570556640625,-46.631011962890625
0.049597661942243576,0.013391440734267235,9.808197975158691,0.0015370192362269886,0.0007325481658889489,-0.0068398684081642635,1.7000141143798828,2019-08-07 14:20:12:407,-123.6334091385478,2.8814315274320617,0,-44.53186798095703,52.628570556640625,-46.631011962890625
0.06636090576648712,0.025365188717842102,9.839329719543457,0.0020697814914054373,-0.00246402556023749,-0.003909676004682793,1.7100183963775635,2019-08-07 14:20:12:417,-124.75162835864546,6.419686126161768,0,-44.53186798095703,52.628570556640625,-46.631011962890625
0.061571408063173294,0.04931268468499184,9.858488082885742,0.0028689248741731116,0.0004661670057904337,-0.0041760571322720175,1.72021484375,2019-08-07 14:20:12:427,-125.84970593723916,9.883917977300541,0,-44.381927490234375,52.478633880615234,-47.980464935302734
0.08312415331602097,0.020575689151883125,9.908777236938477,-0.005122509213577951,0.0012653104860859794,0.0008851845519975746,1.7302286624908447,2019-08-07 14:20:12:437,-126.92381047694845,13.286740370970332,0,-44.381927490234375,52.478633880615234,-47.980464935302734
0.049597661942243576,0.03254943713545799,9.781855583190918,0.003135306001762336,0.0009989292934781736,-0.0009794834711641602,1.7401189804077148,2019-08-07 14:20:12:447,-127.98007884248494,16.61545134601651,0,-44.381927490234375,52.478633880615234,-47.980464935302734
0.07354515790939331,-0.010556057095527649,9.767487525939941,-0.0024586979376857053,-0.0005993576020943366,0.006479188491445616,1.7500035762786865,2019-08-07 14:20:12:457,-129.0115165016039,12.685745372063288,0,-44.381927490234375,52.478633880615234,-47.980464935302734
0.04720291122794151,0.03015468828380108,9.817776679992676,-0.002192316810096481,-0.003529550070594388,0.005413663981088718,1.7600107192993164,2019-08-07 14:20:12:467,-130.02379351061163,16.02974272967716,0,-44.381927490234375,52.478633880615234,-47.980464935302734
0.05199240893125534,0.034944187849760056,9.75790786743164,0.001803400363816213,0.0031299783792105513,-0.0015122457263426093,1.7712149620056152,2019-08-07 14:20:12:478,-131.0191811143342,19.303909688104937,0,-44.381927490234375,52.478633880615234,-47.980464935302734
0.11425590515136719,0.034944187849760056,9.798619270324707,0.003668068256940785,-0.001132119922291367,0.008343856384570188,1.7799925804138184,2019-08-07 14:20:12:487,-131.98487827451044,22.511937054598782,0,-44.381927490234375,52.478633880615234,-47.980464935302734
0.049597661942243576,0.00620719138532877,9.817776679992676,0.004200830512119234,0.0009989292934781736,0.006479188491445616,1.78999924659729,2019-08-07 14:20:12:497,-132.9399530678198,25.658613486891255,0,-44.381927490234375,52.478633880615234,-47.980464935302734
0.09749265760183334,0.027759937569499016,9.846513748168945,0.00020511348449834825,0.0009989292934781736,0.001950709062354473,1.7999932765960693,2019-08-07 14:20:12:507,-133.87036895895514,28.742095483113985,0,-44.381927490234375,52.478633880615234,-47.980464935302734
0.11186115443706512,0.025365188717842102,9.824960708618164,0.006331879792907356,0.002330834996442878,0.003548996087964146,1.810034990310669,2019-08-07 14:20:12:517,-134.78122965065717,31.760724986982353,0,-44.381927490234375,52.478633880615234,-47.980464935302734
0.09988740086555481,0.0038124416023492813,9.834540367126465,0.003668068256940785,0.004461884017156674,-0.0007131023435749355,1.8199937343597412,2019-08-07 14:20:12:527,-135.67646163499637,34.72301514533247,0,-44.381927490234375,52.478633880615234,-47.980464935302734
0.1334138959646225,-0.06084579974412918,9.810592651367188,0.001803400363816213,-0.001132119922291367,0.004081758343142595,1.8300013542175293,2019-08-07 14:20:12:537,-136.54671392980424,30.434648400234682,0,-44.381927490234375,52.478633880615234,-47.980464935302734
0.10946640372276306,-0.027319304645061493,9.824960708618164,-6.126766340918298e-05,-0.001132119922291367,0.004348139470731819,1.8399982452392578,2019-08-07 14:20:12:547,-137.40237728767977,26.22917615012675,0,-44.381927490234375,52.478633880615234,-47.980464935302734
0.10228215157985687,0.03733893856406212,9.822566032409668,0.0015370192362269886,-0.0021976444326482656,0.004614520598321043,1.8500375747680664,2019-08-07 14:20:12:557,-138.24115895327105,29.29937020188996,0,-44.08205032348633,52.478633880615234,-47.980464935302734
0.07593990862369537,-0.041687801480293274,9.84411907196045,-0.00032764881944403687,0.0009989292934781736,0.004081758343142595,1.8600332736968994,2019-08-07 14:20:12:567,-139.06805673652116,25.118419378812966,0,-44.08205032348633,52.478633880615234,-47.980464935302734
0.13820339739322662,0.00620719138532877,9.753118515014648,0.0028689248741731116,0.0004661670057904337,0.0022170901899436976,1.8700981140136719,2019-08-07 14:20:12:577,-139.870722313232,28.213700352088587,0,-44.08205032348633,52.478633880615234,-47.980464935302734
0.1334138959646225,0.0038124416023492813,9.8034086227417,0.0020697814914054373,-0.0021976444326482656,0.005946426236267168,1.8800127506256104,2019-08-07 14:20:12:587,-140.65649070447,31.247828451920995,0,-44.08205032348633,52.478633880615234,-47.980464935302734
0.1453876495361328,-0.020135056227445602,9.858488082885742,0.0028689248741731116,0.0009989292934781736,0.007811094129391739,1.890012502670288,2019-08-07 14:20:12:597,-141.42702365561433,27.023601449478303,0,-44.08205032348633,52.478633880615234,-47.980464935302734
0.14299289882183075,-0.0464773029088974,9.836935043334961,0.0020697814914054373,-0.004062312325772837,0.004614520598321043,1.900519609451294,2019-08-07 14:20:12:607,-142.17943029950982,22.887322458916632,0,-44.08205032348633,52.478633880615234,-47.980464935302734
0.16933514177799225,0.001417691819369793,9.817776679992676,0.0010042569160299579,-0.004595074841025611,-0.0007131023435749355,1.9100840091705322,2019-08-07 14:20:12:617,-142.9136113814654,26.028871213084347,0,-44.08205032348633,52.478633880615234,-47.980464935302734
0.18130889534950256,0.01578618958592415,9.829751014709473,0.006598260920496581,-6.659528596096748e-05,0.004348139470731819,1.9200234413146973,2019-08-07 14:20:12:627,-143.63416807106884,29.1027710208397,0,-44.08205032348633,52.478633880615234,-47.980464935302734
0.16215088963508606,-0.04408255219459534,9.808197975158691,0.004467211899782784,-0.003529550070594388,0.0038153772155533703,1.9300215244293213,2019-08-07 14:20:12:637,-144.34056049537625,24.923357984795057,0,-44.08205032348633,52.478633880615234,-47.980464935302734
0.15736140310764313,-0.0009770578471943736,9.796224594116211,-0.0008604111071317767,0.0004661670057904337,0.004348139470731819,1.9404029846191406,2019-08-07 14:20:12:647,-145.03561521965318,20.82550666541948,0,-44.08205032348633,52.478633880615234,-47.980464935302734
0.14778240025043488,0.03254943713545799,9.848908424377441,-0.0013931734273288073,-0.003263168943005164,0.0038153772155533703,1.9500398635864258,2019-08-07 14:20:12:657,-145.71594406531895,24.005963294395098,0,-44.08205032348633,52.478633880615234,-47.980464935302734
0.11425590515136719,-0.03450355306267738,9.784250259399414,0.002602543746583887,-0.003529550070594388,0.0016843279347652483,1.96004056930542,2019-08-07 14:20:12:667,-146.3862623476877,19.928423584272196,0,-44.08205032348633,52.478633880615234,-47.980464935302734
0.15736140310764313,-0.012950805947184563,9.820171356201172,0.001803400363816213,0.004461884017156674,0.005413663981088718,1.9700429439544678,2019-08-07 14:20:12:677,-147.04268211008474,15.930353493677007,0,-43.93211364746094,53.52820587158203,-46.93089294433594
0.12383490055799484,0.034944187849760056,9.760302543640137,0.0015370192362269886,0.00019978586194656375,0.004348139470731819,1.9800240993499756,2019-08-07 14:20:12:687,-147.6874022872957,19.206782385073666,0,-43.93211364746094,53.52820587158203,-46.93089294433594
0.16694039106369019,0.013391440734267235,9.820171356201172,0.004999974154961233,-0.0005993576020943366,0.0048809017259102685,1.9901926517486572,2019-08-07 14:20:12:697,-148.31383363610914,22.418229291990656,0,-43.93211364746094,53.52820587158203,-46.93089294433594
0.10946640372276306,-0.022529805079102516,9.779460906982422,-0.002192316810096481,0.002597216124032102,0.005147282853499493,2.0002529621124268,2019-08-07 14:20:12:707,-148.9361978205326,18.37374305512087,0,-43.93211364746094,53.52820587158203,-46.93089294433594
0.15736140310764313,-0.029714053496718407,9.777066230773926,-6.126766340918298e-05,0.002064453868853653,0.00061880342440835,2.010082483291626,2019-08-07 14:20:12:717,-149.54017142737231,14.409784617583899,0,-43.93211364746094,53.52820587158203,-46.93089294433594
0.14299289882183075,0.01578618958592415,9.834540367126465,-6.126766340918298e-05,0.0012653104860859794,0.004348139470731819,2.020004987716675,2019-08-07 14:20:12:727,-150.13341267798717,17.719783663224543,0,-43.93211364746094,53.52820587158203,-46.93089294433594
0.1597561538219452,-0.0464773029088974,9.793828964233398,0.002336162618994662,0.001531691613675204,0.0027498524451221467,2.029991626739502,2019-08-07 14:20:12:737,-150.71291289232477,13.769515972516476,0,-43.93211364746094,53.52820587158203,-46.93089294433594
0.15736140310764313,-0.027319304645061493,9.798619270324707,0.0020697814914054373,-0.0005993576020943366,0.006212807363856391,2.0400776863098145,2019-08-07 14:20:12:747,-151.2799138944127,9.89614836448749,0,-43.93211364746094,53.52820587158203,-46.93089294433594
0.1789141446352005,0.03015468828380108,9.824960708618164,0.001803400363816213,0.001531691613675204,0.007811094129391739,2.0499939918518066,2019-08-07 14:20:12:757,-151.83430345665136,13.293704241680988,0,-43.93211364746094,53.52820587158203,-46.93089294433594
0.09988740086555481,-0.00816130731254816,9.817776679992676,0.002336162618994662,0.002330834996442878,-0.0017786268539318336,2.0599775314331055,2019-08-07 14:20:12:767,-152.3872656944474,9.427473138763077,0,-43.93211364746094,53.52820587158203,-46.93089294433594
0.13820339739322662,0.04691793769598007,9.8944091796875,0.002602543746583887,0.002597216124032102,0.003016233572711371,2.069984197616577,2019-08-07 14:20:12:777,-152.9249747759104,12.832027642489688,0,-43.93211364746094,53.52820587158203,-46.93089294433594
0.1405981481075287,0.042128436267375946,9.846513748168945,0.0028689248741731116,-0.0005993576020943366,0.005680045108677942,2.0799882411956787,2019-08-07 14:20:12:787,-153.44977721482996,16.168872756108296,0,-43.93211364746094,53.52820587158203,-46.93089294433594
0.13101914525032043,0.008601941168308258,9.817776679992676,0.0034016871293515603,-0.0013985010498805918,0.003016233572711371,2.0900044441223145,2019-08-07 14:20:12:797,-153.96470369906467,19.4425781585561,0,-43.93211364746094,53.52820587158203,-46.93089294433594
0.11904539912939072,0.01818094030022621,9.839329719543457,-0.00032764881944403687,0.0017980727412644285,-0.0020450079815210586,2.100023031234741,2019-08-07 14:20:12:807,-154.47255743662035,22.651793511454766,0,-44.83174514770508,52.92844772338867,-47.230770111083984
0.11186115443706512,0.06128643453121185,9.801013946533203,0.0015370192362269886,-0.0016648821774698163,0.0011515656795867992,2.110020399093628,2019-08-07 14:20:12:817,-154.9690936829283,25.79072943620416,0,-44.83174514770508,52.92844772338867,-47.230770111083984
0.13101914525032043,-0.015345555730164051,9.829751014709473,0.004733593027372009,-0.0016648821774698163,0.012605954425997783,2.1199934482574463,2019-08-07 14:20:12:827,-155.45350668235952,21.674053030726082,0,-44.83174514770508,52.92844772338867,-47.230770111083984
0.12144014984369278,-0.015345555730164051,9.781855583190918,0.0010042569160299579,-0.003529550070594388,0.0032826149603749208,2.130056858062744,2019-08-07 14:20:12:837,-155.92821651906908,17.641802190823178,0,-44.83174514770508,52.92844772338867,-47.230770111083984
0.09270315617322922,0.042128436267375946,9.858488082885742,-0.0013931734273288073,0.00019978586194656375,0.005946426236267168,2.1399941444396973,2019-08-07 14:20:12:847,-156.39898849709616,20.88484667634042,0,-44.83174514770508,52.92844772338867,-47.230770111083984
0.09270315617322922,0.00620719138532877,9.889619827270508,-0.0011267922997395827,-0.004595074841025611,0.006479188491445616,2.1500210762023926,2019-08-07 14:20:12:857,-156.85768039996964,24.067064908585056,0,-44.83174514770508,52.92844772338867,-47.230770111083984
0.09030840545892715,-0.010556057095527649,9.817776679992676,0.003668068256940785,-0.002996787815415939,0.006212807363856391,2.1601197719573975,2019-08-07 14:20:12:867,-157.30828713319005,19.98487575360419,0,-44.83174514770508,52.92844772338867,-47.230770111083984
0.08312415331602097,0.010996690951287746,9.875250816345215,0.002336162618994662,-0.005394218223793286,0.004614520598321043,2.169990062713623,2019-08-07 14:20:12:877,-157.74948640398605,23.182607455029057,0,-44.83174514770508,52.92844772338867,-47.230770111083984
0.05917666107416153,0.01578618958592415,9.789039611816406,-0.0056552714687564,0.001531691613675204,0.01074128705302186,2.179999351501465,2019-08-07 14:20:12:887,-158.18843031781637,26.320285735883207,0,-44.83174514770508,52.92844772338867,-47.230770111083984
0.0807294100522995,-0.00816130731254816,9.846513748168945,0.00047149462834221814,-0.0008657387296835611,0.013937860584092555,2.1901254653930664,2019-08-07 14:20:12:897,-158.6147745693152,22.194561733547072,0,-44.83174514770508,52.92844772338867,-47.230770111083984
0.04001866281032562,-0.05126680061221123,9.872856140136719,0.004467211899782784,0.0007325481658889489,0.011806811563378757,2.2000112533569336,2019-08-07 14:20:12:907,-159.03824087286878,18.154141158446954,0,-44.83174514770508,52.92844772338867,-47.230770111083984
0.054387159645557404,-0.005766557063907385,9.801013946533203,0.003135306001762336,-0.0048614559686148365,0.007811094129391739,2.2100398540496826,2019-08-07 14:20:12:917,-159.44837977114244,14.18996704477668,0,-44.83174514770508,52.92844772338867,-47.230770111083984
0.08551890403032303,-0.012950805947184563,9.781855583190918,-0.0008604111071317767,-0.003529550070594388,0.007278331874213289,2.2200124263763428,2019-08-07 14:20:12:927,-159.84741774121247,10.308166646373788,0,-44.83174514770508,52.92844772338867,-47.230770111083984
0.025650164112448692,0.001417691819369793,9.793828964233398,0.00020511348449834825,0.0009989292934781736,0.01313871668117623,2.230018377304077,2019-08-07 14:20:12:937,-160.24802945679525,13.701722198581834,0,-44.83174514770508,52.92844772338867,-47.230770111083984
0.06636090576648712,-0.022529805079102516,9.801013946533203,0.0015370192362269886,-0.0019312633050590406,0.01420424223183043,2.239988327026367,2019-08-07 14:20:12:947,-160.63422905443528,9.829461450427898,0,-44.83174514770508,52.92844772338867,-47.230770111083984
0.07593990862369537,-0.027319304645061493,9.822566032409668,-0.0008604111071317767,0.003662740634389001,0.008876618639748637,2.2499914169311523,2019-08-07 14:20:12:957,-161.01474264321544,6.036542594048372,0,-44.83174514770508,52.92844772338867,-47.230770111083984
0.09270315617322922,-0.022529805079102516,9.834540367126465,0.0007378757884407334,0.0012653104860859794,0.008610237512159412,2.25998854637146,2019-08-07 14:20:12:967,-161.38435665231054,2.31802270156707,0,-44.83174514770508,52.92844772338867,-47.230770111083984
0.05678191035985947,0.013391440734267235,9.824960708618164,0.0020697814914054373,0.0007325481658889489,0.013405098328914105,2.269989490509033,2019-08-07 14:20:12:977,-161.75045830660062,5.86893807408709,0,-44.83174514770508,52.92844772338867,-47.230770111083984
0.07115040719509125,-0.00816130731254816,9.755513191223145,0.0012706381086377639,0.001531691613675204,0.015802528997365776,2.279999256134033,2019-08-07 14:20:12:987,-162.1079526037055,2.1518038088461946,0,-44.83174514770508,52.92844772338867,-47.230770111083984
0.10467690229415894,-0.015345555730164051,9.791434288024902,0.00047149462834221814,-0.002996787815415939,0.011540429915640882,2.289987325668335,2019-08-07 14:20:12:997,-162.45186273872577,-1.4897007684853087,0,-44.83174514770508,52.92844772338867,-47.230770111083984
0.061571408063173294,-0.022529805079102516,9.85609245300293,0.0015370192362269886,-0.00246402556023749,0.015536147349627901,2.300727605819702,2019-08-07 14:20:13:007,-162.7941810278093,-5.058214259664424,0,-44.83174514770508,52.92844772338867,-47.230770111083984
0.04001866281032562,0.020575689151883125,9.86567211151123,0.0028689248741731116,0.0004661670057904337,0.005680045108677942,2.309997797012329,2019-08-07 14:20:13:017,-163.13389184219952,-1.360933207072203,0,-44.83174514770508,52.92844772338867,-47.230770111083984
0.107071653008461,0.020575689151883125,9.779460906982422,0.002602543746583887,0.002330834996442878,0.009143000287486512,2.320012092590332,2019-08-07 14:20:13:027,-163.45997893784994,2.2624110751583024,0,-44.83174514770508,52.92844772338867,-47.230770111083984
0.10467690229415894,0.020575689151883125,9.860882759094238,0.0020697814914054373,0.0031299783792105513,0.008610237512159412,2.3300037384033203,2019-08-07 14:20:13:037,-163.78037151031216,5.813610584418524,0,-44.83174514770508,52.92844772338867,-47.230770111083984
0.10228215157985687,-0.0009770578471943736,9.839329719543457,-0.00032764881944403687,-0.003529550070594388,0.008077475256980963,2.3400042057037354,2019-08-07 14:20:13:047,-164.09087051632636,2.0976361465561237,0,-44.83174514770508,52.92844772338867,-47.230770111083984
0.04001866281032562,-0.04887205362319946,9.834540367126465,-0.0019259356825072562,-0.0013985010498805918,0.011007667660462434,2.3499927520751953,2019-08-07 14:20:13:057,-164.4036058206759,-1.5375419050164494,0,-44.53186798095703,53.228328704833984,-46.03125762939453
0.07115040719509125,-0.0464773029088974,9.796224594116211,-6.126766340918298e-05,0.0009989292934781736,0.009143000287486512,2.3599963188171387,2019-08-07 14:20:13:067,-164.7077721131088,-5.101320000695412,0,-44.53186798095703,53.228328704833984,-46.03125762939453
0.07833465933799744,-0.041687801480293274,9.762697219848633,0.003668068256940785,0.0033963595067997765,0.008077475256980963,2.3700149059295654,2019-08-07 14:20:13:077,-165.00633278093758,-8.596463887138482,0,-44.53186798095703,53.228328704833984,-46.03125762939453
0.09509790688753128,0.02297043986618519,9.777066230773926,-0.0024586979376857053,-0.0021976444326482656,0.005680045108677942,2.3799962997436523,2019-08-07 14:20:13:087,-165.29382890129514,-4.825848855166226,0,-44.53186798095703,53.228328704833984,-46.03125762939453
0.07354515790939331,-0.00816130731254816,9.834540367126465,0.00020511348449834825,-0.00246402556023749,-0.0009794834711641602,2.390000820159912,2019-08-07 14:20:13:097,-165.57799886658083,-8.32849614995119,0,-44.53186798095703,53.228328704833984,-46.03125762939453
0.049597661942243576,0.01578618958592415,9.801013946533203,0.0015370192362269886,0.00019978586194656375,0.0011515656795867992,2.399998188018799,2019-08-07 14:20:13:107,-165.86075222602443,-4.564634723150437,0,-44.53186798095703,53.228328704833984,-46.03125762939453
-0.000692082685418427,0.010996690951287746,9.834540367126465,0.0028689248741731116,-0.0037959311981836125,-0.0041760571322720175,2.409999132156372,2019-08-07 14:20:13:117,-158.9414862111859,-0.8762344064363581,0,-44.53186798095703,53.228328704833984,-46.03125762939453
0.006492166314274073,-0.005766557063907385,9.808197975158691,-0.0005940299795425521,-0.0016648821774698163,-0.0031105326219151193,2.420013904571533,2019-08-07 14:20:13:127,-159.3609617814697,-4.457701957763765,0,-44.53186798095703,53.228328704833984,-46.03125762939453
-0.01745533011853695,0.008601941168308258,9.875250816345215,-0.0013931734273288073,-0.003529550070594388,-0.003643294877093568,2.4299991130828857,2019-08-07 14:20:13:137,-152.57378913905885,-0.7687649722952985,0,-44.53186798095703,53.228328704833984,-46.03125762939453
-0.03182382881641388,0.01578618958592415,9.851303100585938,-0.004589746958399502,-0.005926980478971734,-0.005507962770218141,2.440002918243408,2019-08-07 14:20:13:147,-145.92268587214997,2.8473521772119774,0,-44.53186798095703,53.228328704833984,-46.03125762939453
-0.03182382881641388,0.00620719138532877,9.858488082885742,-0.0032578413204533796,-0.0008657387296835611,-0.003909676004682793,2.449998617172241,2019-08-07 14:20:13:157,-139.4074453284908,6.391512118598798,0,-44.53186798095703,53.228328704833984,-46.03125762939453
-0.07732407003641129,-0.0009770578471943736,9.822566032409668,-0.003524222448042604,0.0007325481658889489,-0.003909676004682793,2.4599955081939697,2019-08-07 14:20:13:167,-133.02872817689095,2.6657740921805875,0,-44.53186798095703,53.228328704833984,-46.03125762939453
-0.10845582187175751,0.010996690951287746,9.846513748168945,0.0010042569160299579,-0.0019312633050590406,-0.009237299076615935,2.470017194747925,2019-08-07 14:20:13:177,-126.7796881992962,6.21061372841584,0,-44.53186798095703,53.228328704833984,-46.03125762939453
-0.09887681901454926,0.01578618958592415,9.8034086227417,0.0007378757884407334,-0.00965631626522088,-0.003909676004682793,2.4800055027008057,2019-08-07 14:20:13:187,-120.65023603694341,9.684142383710716,0,-44.53186798095703,53.228328704833984,-46.03125762939453
-0.07492932677268982,-0.0009770578471943736,9.822566032409668,0.0020697814914054373,-0.0008657387296835611,-0.0031105326219151193,2.490002393722534,2019-08-07 14:20:13:197,-114.64548655663437,5.889411702928463,0,-44.53186798095703,53.228328704833984,-46.03125762939453
-0.07732407003641129,0.01818094030022621,9.841724395751953,-6.126766340918298e-05,-6.659528596096748e-05,-0.00257777036673667,2.500000476837158,2019-08-07 14:20:13:207,-108.76154243843966,9.369540978935454,0,-44.53186798095703,53.228328704833984,-46.03125762939453
-0.0701398253440857,0.0038124416023492813,9.868066787719727,-6.126766340918298e-05,-0.00033297644199582136,-0.0015122457263426093,2.5100018978118896,2019-08-07 14:20:13:217,-102.99426935021532,12.781741851475264,0,-44.53186798095703,53.228328704833984,-46.03125762939453
0.006492166314274073,-0.029714053496718407,9.877645492553711,-0.004056984703221053,-0.005926980478971734,-0.00604072502539659,2.5199992656707764,2019-08-07 14:20:13:227,-104.53030368507504,8.931831553076162,0,-44.53186798095703,53.228328704833984,-46.03125762939453
-0.000692082685418427,0.02297043986618519,9.805803298950195,0.002336162618994662,-0.0008657387296835611,-0.0012458645987533845,2.530003309249878,2019-08-07 14:20:13:237,-98.83929218113911,12.349198296713965,0,-44.53186798095703,53.228328704833984,-46.03125762939453
0.011281665414571762,-0.012950805947184563,9.789039611816406,0.0028689248741731116,0.0052610273999243486,-0.0012458645987533845,2.54000186920166,2019-08-07 14:20:13:247,-100.46413932844314,8.502119699844748,0,-44.53186798095703,53.228328704833984,-46.03125762939453
-0.0030868323519825935,-0.015345555730164051,9.808197975158691,-0.004056984703221053,0.003929121761978225,-0.0041760571322720175,2.549999713897705,2019-08-07 14:20:13:257,-94.85742290500323,4.736147663343968,0,-44.53186798095703,53.228328704833984,-46.03125762939453
-0.019850080832839012,0.013391440734267235,9.805803298950195,-0.0019259356825072562,-6.659528596096748e-05,-0.0015122457263426093,2.560012102127075,2019-08-07 14:20:13:267,-89.36255670375724,8.240942524366464,0,-44.53186798095703,53.228328704833984,-46.03125762939453
0.08312415331602097,-0.012950805947184563,9.832145690917969,0.0020697814914054373,-0.0019312633050590406,-0.003643294877093568,2.5699939727783203,2019-08-07 14:20:13:277,-91.16453542210873,4.476472989256316,0,-44.53186798095703,53.228328704833984,-46.03125762939453
-0.04858707636594772,0.010996690951287746,9.817776679992676,0.0028689248741731116,-0.00033297644199582136,0.00035242226430983473,2.579998731613159,2019-08-07 14:20:13:287,-85.74672862039357,7.9840483493692505,0,-44.53186798095703,53.228328704833984,-46.03125762939453
0.01607116498053074,-0.099161796271801,9.86567211151123,-0.005122509213577951,0.00019978586194656375,0.00035242226430983473,2.589998722076416,2019-08-07 14:20:13:297,-87.63003953425236,4.2387610950387415,0,-44.53186798095703,53.228328704833984,-46.03125762939453
0.061571408063173294,-0.01774030551314354,9.810592651367188,-0.004056984703221053,-0.003263168943005164,0.00061880342440835,2.6000003814697266,2019-08-07 14:20:13:307,-89.4684144877598,0.55833637734312,0,-45.28156280517578,53.07838821411133,-46.481075286865234
0.025650164112448692,-0.022529805079102516,9.798619270324707,0.004200830512119234,0.00019978586194656375,-0.0031105326219151193,2.610018253326416,2019-08-07 14:20:13:317,-91.2761588843495,-3.052558546025428,0,-45.28156280517578,53.07838821411133,-46.481075286865234
0.05199240893125534,0.03015468828380108,9.829751014709473,-0.0037906035756318283,-0.002996787815415939,-0.0007131023435749355,2.6201155185699463,2019-08-07 14:20:13:327,-93.04287562367945,0.6071264360677127,0,-45.28156280517578,53.07838821411133,-46.481075286865234
0.06875565648078918,0.00620719138532877,9.812987327575684,-0.004056984703221053,-0.0005993576020943366,0.00035242226430983473,2.629998207092285,2019-08-07 14:20:13:337,-94.77365668231629,4.19651032807855,0,-45.28156280517578,53.07838821411133,-46.481075286865234
0.054387159645557404,0.020575689151883125,9.8034086227417,0.0028689248741731116,-0.00246402556023749,-0.006573487280575038,2.6400067806243896,2019-08-07 14:20:13:347,-96.470441592483,7.708562764388578,0,-45.28156280517578,53.07838821411133,-46.481075286865234
0.061571408063173294,0.06368118524551392,9.731565475463867,0.00047149462834221814,-0.004328693453362062,-0.0023113892391474454,2.6500020027160645,2019-08-07 14:20:13:357,-98.13135327958751,11.146628384017147,0,-45.28156280517578,53.07838821411133,-46.481075286865234
0.1597561538219452,-0.015345555730164051,9.834540367126465,0.001803400363816213,-0.003529550070594388,-0.0031105326219151193,2.660020589828491,2019-08-07 14:20:13:367,-99.74812762490745,7.3244693821602525,0,-45.28156280517578,53.07838821411133,-46.481075286865234
0.11904539912939072,0.05649693310260773,9.801013946533203,-0.0005940299795425521,-0.002996787815415939,0.001950709062354473,2.670018434524536,2019-08-07 14:20:13:377,-101.33756486944327,10.771708030691212,0,-45.28156280517578,53.07838821411133,-46.481075286865234
0.03043966367840767,0.08523393422365189,9.73396110534668,0.003668068256940785,-0.004595074841025611,0.001950709062354473,2.680191993713379,2019-08-07 14:20:13:387,-102.90460521240907,14.144144730933702,0,-45.28156280517578,53.07838821411133,-46.481075286865234
0.10467690229415894,-0.022529805079102516,9.73396110534668,-0.0032578413204533796,0.00019978586194656375,-0.006307106152985815,2.6900036334991455,2019-08-07 14:20:13:397,-104.43430072240423,10.265708935441682,0,-45.28156280517578,53.07838821411133,-46.481075286865234
0.1262296438217163,0.001417691819369793,9.846513748168945,-0.0013931734273288073,-0.002996787815415939,-0.00257777036673667,2.7001774311065674,2019-08-07 14:20:13:407,-105.92921324755066,13.661025629443388,0,-45.28156280517578,53.07838821411133,-46.481075286865234
0.08551890403032303,0.03973368555307388,9.796224594116211,0.0015370192362269886,-0.0037959311981836125,-0.0041760571322720175,2.7100822925567627,2019-08-07 14:20:13:417,-107.39851451127001,16.982302462049436,0,-45.28156280517578,53.07838821411133,-46.481075286865234
0.11186115443706512,0.034944187849760056,9.74593448638916,-0.004856128085988727,-0.006726123861739408,-0.005507962770218141,2.7199881076812744,2019-08-07 14:20:13:427,-108.83365115621008,20.24124876146944,0,-45.28156280517578,53.07838821411133,-46.481075286865234
0.06875565648078918,0.02297043986618519,9.729170799255371,-0.0032578413204533796,-0.00246402556023749,-0.00604072502539659,2.730112075805664,2019-08-07 14:20:13:437,-110.24747943019968,23.43557025077999,0,-45.28156280517578,53.07838821411133,-46.481075286865234
0.0017026669811457396,0.03015468828380108,9.860882759094238,0.00020511348449834825,0.0031299783792105513,-0.00897091742887806,2.7399983406066895,2019-08-07 14:20:13:447,-111.6440694675888,26.56324077312484,0,-45.28156280517578,53.07838821411133,-46.481075286865234
0.1334138959646225,0.020575689151883125,9.896803855895996,-0.0061880337239348495,-0.0027304066878267143,-0.0068398684081642635,2.7500054836273193,2019-08-07 14:20:13:457,-112.99420728034121,29.633070629905927,0,-45.28156280517578,53.07838821411133,-46.481075286865234
0.09749265760183334,0.01578618958592415,9.920751571655273,0.003668068256940785,-0.006459742734150184,-0.005774343897807364,2.760183334350586,2019-08-07 14:20:13:467,-114.31937077367265,32.63648955875635,0,-45.28156280517578,53.07838821411133,-46.481075286865234
0.008886916562914848,-0.03210880234837532,9.74593448638916,-0.002192316810096481,-0.005926980478971734,-0.007372630663342713,2.770028591156006,2019-08-07 14:20:13:477,-115.62866195215189,28.38874700367061,0,-45.28156280517578,53.07838821411133,-46.481075286865234
0.03283441439270973,-0.00816130731254816,9.801013946533203,0.00020511348449834825,-0.0008657387296835611,-0.008704536821437486,2.7801501750946045,2019-08-07 14:20:13:487,-116.91175776980978,24.221809696403213,0,-45.28156280517578,53.07838821411133,-46.481075286865234
0.061571408063173294,-0.027319304645061493,9.812987327575684,-6.126766340918298e-05,-0.0019312633050590406,-0.0068398684081642635,2.78999924659729,2019-08-07 14:20:13:497,-118.16526464751709,20.140597599645126,0,-45.28156280517578,53.07838821411133,-46.481075286865234
0.06636090576648712,-0.03450355306267738,9.915961265563965,-0.00032764881944403687,-0.003263168943005164,-0.011368348097329731,2.799999475479126,2019-08-07 14:20:13:507,-119.3924583145189,16.14195693504846,0,-45.28156280517578,53.07838821411133,-46.481075286865234
0.061571408063173294,0.02297043986618519,9.832145690917969,0.001803400363816213,-0.006726123861739408,-0.0041760571322720175,2.8100266456604004,2019-08-07 14:20:13:517,-120.59364625508236,19.415425287368485,0,-45.28156280517578,53.07838821411133,-46.481075286865234
0.018465915694832802,-0.005766557063907385,9.798619270324707,0.0012706381086377639,-0.005127837096204061,-0.008704536821437486,2.8200271129608154,2019-08-07 14:20:13:527,-121.77673439766086,15.427077666101297,0,-45.28156280517578,53.07838821411133,-46.481075286865234
0.04480816051363945,0.0038124416023492813,9.829751014709473,0.0007378757884407334,-0.001132119922291367,-0.005774343897807364,2.830021619796753,2019-08-07 14:20:13:537,-122.93534084360341,18.71767758396534,0,-45.28156280517578,53.07838821411133,-46.481075286865234
0.10467690229415894,0.04691793769598007,9.903987884521484,0.0028689248741731116,-0.0021976444326482656,-0.007372630663342713,2.8400394916534424,2019-08-07 14:20:13:547,-124.06328692469268,21.936281776512658,0,-45.28156280517578,53.07838821411133,-46.481075286865234
0.054387159645557404,0.02297043986618519,9.827356338500977,-0.0032578413204533796,-0.007791648372096307,-0.007106249535753488,2.8500237464904785,2019-08-07 14:20:13:557,-125.1713113429819,25.096704078670125,0,-44.381927490234375,52.17875289916992,-44.981685638427734
0.03762391209602356,0.013391440734267235,9.760302543640137,-0.0016595545549180318,-0.0027304066878267143,-0.009237299076615935,2.8600246906280518,2019-08-07 14:20:13:567,-126.26193461018958,28.194129691611643,0,-44.381927490234375,52.17875289916992,-44.981685638427734
0.07593990862369537,-0.015345555730164051,9.750723838806152,0.0012706381086377639,-0.00033297644199582136,-0.0017786268539318336,2.8700337409973145,2019-08-07 14:20:13:577,-127.32758442335904,24.03133641528556,0,-44.381927490234375,52.17875289916992,-44.981685638427734
0.0807294100522995,0.01818094030022621,9.875250816345215,-6.126766340918298e-05,-0.0016648821774698163,-0.005774343897807364,2.8800230026245117,2019-08-07 14:20:13:587,-128.370731347204,27.148634353494472,0,-44.381927490234375,52.17875289916992,-44.981685638427734
0.061571408063173294,0.02297043986618519,9.882434844970703,0.002602543746583887,-0.0016648821774698163,-0.007106249535753488,2.890040159225464,2019-08-07 14:20:13:597,-129.39524088043612,30.201534306937038,0,-44.381927490234375,52.17875289916992,-44.981685638427734
0.011281665414571762,0.0038124416023492813,9.85609245300293,0.003668068256940785,-0.004595074841025611,-0.005241581642628916,2.9000232219696045,2019-08-07 14:20:13:607,-130.4034486457622,33.195004241545796,0,-44.381927490234375,52.17875289916992,-44.981685638427734
0.028044912964105606,-0.00337180751375854,9.822566032409668,-0.0011267922997395827,0.0028635972516213265,-0.01536406553131675,2.910024881362915,2019-08-07 14:20:13:617,-131.39371609203312,28.93213031425727,0,-44.381927490234375,52.17875289916992,-44.981685638427734
0.049597661942243576,0.01578618958592415,9.860882759094238,-0.004323365830810277,-0.0019312633050590406,-0.011368348097329731,2.9200260639190674,2019-08-07 14:20:13:627,-132.35899363304563,31.954081075719415,0,-44.381927490234375,52.17875289916992,-44.981685638427734
0.04480816051363945,-0.0009770578471943736,9.863277435302734,-0.002192316810096481,-0.002996787815415939,-0.011101966449591856,2.930025815963745,2019-08-07 14:20:13:637,-133.30492533347052,27.716343921169855,0,-44.381927490234375,52.17875289916992,-44.981685638427734
0.01367641519755125,0.042128436267375946,9.853697776794434,-0.0005940299795425521,-0.00566059935138251,-0.013499397118043528,2.9400389194488525,2019-08-07 14:20:13:647,-134.23405377347396,30.757451816521197,0,-44.381927490234375,52.17875289916992,-44.981685638427734
0.01367641519755125,0.03254943713545799,9.808197975158691,-0.004056984703221053,-0.0021976444326482656,-0.010036441939234959,2.9500234127044678,2019-08-07 14:20:13:657,-135.14654278937115,33.74077442332597,0,-44.381927490234375,52.17875289916992,-44.981685638427734
-0.005481582134962082,-0.027319304645061493,9.812987327575684,0.00047149462834221814,-0.00246402556023749,-0.016429590041673648,2.9600367546081543,2019-08-07 14:20:13:667,-128.84286665458845,29.46888405272906,0,-44.381927490234375,52.17875289916992,-44.981685638427734
0.049597661942243576,0.01578618958592415,9.872856140136719,-0.0011267922997395827,-0.004328693453362062,-0.013499397118043528,2.9700100421905518,2019-08-07 14:20:13:677,-129.85782864116246,32.47830511536638,0,-44.381927490234375,52.17875289916992,-44.981685638427734
0.04001866281032562,-0.010556057095527649,9.851303100585938,0.0010042569160299579,-0.0008657387296835611,-0.010036441939234959,2.9800479412078857,2019-08-07 14:20:13:687,-130.8555291208521,28.22940088004822,0,-44.381927490234375,52.17875289916992,-44.981685638427734
0.03043966367840767,0.010996690951287746,9.81538200378418,0.00020511348449834825,-0.0075252672445070825,-0.014298541020959853,2.9900126457214355,2019-08-07 14:20:13:697,-131.8306542994658,31.263414268775254,0,-44.381927490234375,52.17875289916992,-44.981685638427734
0.025650164112448692,0.008601941168308258,9.827356338500977,-0.0008604111071317767,-0.0008657387296835611,-0.016163208393935775,3.000028610229492,2019-08-07 14:20:13:707,-132.79056340431265,34.23762684813324,0,-44.381927490234375,52.17875289916992,-44.981685638427734
0.011281665414571762,0.0038124416023492813,9.882434844970703,0.003135306001762336,-0.0005993576020943366,-0.011901110352508182,3.0100107192993164,2019-08-07 14:20:13:717,-133.73310803734768,37.150674919944045,0,-44.381927490234375,52.17875289916992,-44.981685638427734
0.01367641519755125,0.01578618958592415,9.84411907196045,-0.004056984703221053,-0.003263168943005164,-0.0148313032761383,3.020012617111206,2019-08-07 14:20:13:727,-134.6550212467066,40.00810223793679,0,-44.381927490234375,52.17875289916992,-44.981685638427734
0.011281665414571762,-0.0464773029088974,9.846513748168945,-0.0037906035756318283,-0.004062312325772837,-0.013233016510602954,3.030038595199585,2019-08-07 14:20:13:737,-135.55832097856526,35.615483027162995,0,-44.381927490234375,52.17875289916992,-44.981685638427734
0.025650164112448692,-0.02492455393075943,9.784250259399414,0.0015370192362269886,-0.004328693453362062,-0.014564921628400425,3.040029287338257,2019-08-07 14:20:13:747,-136.44172216692004,31.305230252902934,0,-44.381927490234375,52.17875289916992,-44.981685638427734
0.028044912964105606,-0.01774030551314354,9.836935043334961,-6.126766340918298e-05,0.002597216124032102,-0.013233016510602954,3.050023317337036,2019-08-07 14:20:13:757,-137.31107821177815,27.08122661485209,0,-44.381927490234375,52.17875289916992,-44.981685638427734
0.04720291122794151,-0.010556057095527649,9.86567211151123,-0.00032764881944403687,-0.0021976444326482656,-0.010036441939234959,3.060030221939087,2019-08-07 14:20:13:767,-138.15813915982778,22.941012288530374,0,-44.381927490234375,52.17875289916992,-44.981685638427734
0.07833465933799744,-0.015345555730164051,9.817776679992676,-0.0024586979376857053,-0.002996787815415939,-0.0148313032761383,3.070023536682129,2019-08-07 14:20:13:777,-138.98415190395886,18.885362783254944,0,-44.381927490234375,52.17875289916992,-44.981685638427734
0.025650164112448692,-0.015345555730164051,9.824960708618164,-0.0019259356825072562,0.00019978586194656375,-0.009770061331794384,3.080040693283081,2019-08-07 14:20:13:787,-139.80158958656233,14.910528591413884,0,-44.381927490234375,52.17875289916992,-44.981685638427734
0.09749265760183334,0.03733893856406212,9.796224594116211,-0.0005940299795425521,-6.659528596096748e-05,-0.00897091742887806,3.0900168418884277,2019-08-07 14:20:13:797,-140.59411664163903,18.20828306141195,0,-44.381927490234375,52.17875289916992,-44.981685638427734
0.06636090576648712,0.027759937569499016,9.851303100585938,-0.0005940299795425521,-0.00566059935138251,-0.011368348097329731,3.1000328063964844,2019-08-07 14:20:13:807,-141.37133175105342,21.441222418455954,0,-43.33235549926758,52.32869338989258,-47.53064727783203
0.09988740086555481,0.06128643453121185,9.827356338500977,0.00020511348449834825,-0.0048614559686148365,-0.00950367968405651,3.1100265979766846,2019-08-07 14:20:13:817,-142.12953017402918,24.60513667914237,0,-43.33235549926758,52.32869338989258,-47.53064727783203
0.13101914525032043,0.01818094030022621,9.822566032409668,-0.00032764881944403687,-0.0037959311981836125,-0.011101966449591856,3.1200413703918457,2019-08-07 14:20:13:827,-142.869521024071,27.711097177794727,0,-43.33235549926758,52.32869338989258,-47.53064727783203
0.12862439453601837,0.010996690951287746,9.829751014709473,0.0020697814914054373,-0.006992504989328633,-0.015097683883578876,3.130026340484619,2019-08-07 14:20:13:837,-143.59321652783277,30.754432848946337,0,-43.33235549926758,52.32869338989258,-47.53064727783203
0.13580864667892456,0.034944187849760056,9.822566032409668,-0.0011267922997395827,-0.002996787815415939,-0.011634728704770307,3.1400249004364014,2019-08-07 14:20:13:847,-144.30382711214625,33.73590016794864,0,-43.33235549926758,52.32869338989258,-47.53064727783203
0.12862439453601837,0.001417691819369793,9.836935043334961,0.004200830512119234,-0.0037959311981836125,-0.0023113892391474454,3.1500277519226074,2019-08-07 14:20:13:857,-145.0006358058685,36.65865758286805,0,-43.33235549926758,52.32869338989258,-47.53064727783203
0.11186115443706512,-0.00816130731254816,9.791434288024902,0.002602543746583887,-0.0016648821774698163,-0.005774343897807364,3.160022020339966,2019-08-07 14:20:13:867,-145.68659798048736,32.324979081616384,0,-43.33235549926758,52.32869338989258,-47.53064727783203
0.12383490055799484,-0.022529805079102516,9.899198532104492,-0.002192316810096481,-0.004595074841025611,-0.007639012311080588,3.170041084289551,2019-08-07 14:20:13:877,-146.3559467890094,28.082320839785446,0,-43.33235549926758,52.32869338989258,-47.53064727783203
0.13101914525032043,0.010996690951287746,9.820171356201172,0.001803400363816213,0.0009989292934781736,-0.009770061331794384,3.180027961730957,2019-08-07 14:20:13:887,-147.01410030035876,31.118379941837894,0,-43.33235549926758,52.32869338989258,-47.53064727783203
0.09988740086555481,0.020575689151883125,9.822566032409668,-0.0013931734273288073,-0.0021976444326482656,-0.011901110352508182,3.1900196075439453,2019-08-07 14:20:13:897,-147.66093273544325,34.09439356658205,0,-43.33235549926758,52.32869338989258,-47.53064727783203
0.07593990862369537,-0.00337180751375854,9.827356338500977,0.00020511348449834825,-0.0016648821774698163,-0.012700254255424506,3.2000272274017334,2019-08-07 14:20:13:907,-148.2979237679967,29.81278360501834,0,-43.33235549926758,52.32869338989258,-47.53064727783203
0.08551890403032303,0.008601941168308258,9.827356338500977,-0.0013931734273288073,-0.00566059935138251,-0.014032159373221978,3.210026264190674,2019-08-07 14:20:13:917,-148.91881552852948,32.81630709634388,0,-43.33235549926758,52.32869338989258,-47.53064727783203
0.08312415331602097,-0.04887205362319946,9.769882202148438,-6.126766340918298e-05,-0.0021976444326482656,-0.019093400277268593,3.2200422286987305,2019-08-07 14:20:13:927,-149.52945382496915,28.56574759695255,0,-43.33235549926758,52.32869338989258,-47.53064727783203
0.11425590515136719,-0.00337180751375854,9.827356338500977,0.0007378757884407334,-0.00246402556023749,-0.0158968277864952,3.2300150394439697,2019-08-07 14:20:13:937,-150.12416279196316,24.39441262372636,0,-43.33235549926758,52.32869338989258,-47.53064727783203
0.08551890403032303,0.001417691819369793,9.743539810180664,-0.0032578413204533796,-0.001132119922291367,-0.022023593200898715,3.2400357723236084,2019-08-07 14:20:13:947,-150.71098510853042,27.508190705816524,0,-43.33235549926758,52.32869338989258,-47.53064727783203
0.06875565648078918,-0.022529805079102516,9.868066787719727,-0.0032578413204533796,-0.0019312633050590406,-0.011901110352508182,3.2500131130218506,2019-08-07 14:20:13:957,-151.28769943562136,23.362468258031903,0,-43.33235549926758,52.32869338989258,-47.53064727783203
0.04480816051363945,-0.03450355306267738,9.827356338500977,0.003668068256940785,-0.010721840775577777,-0.017761495159471122,3.2600483894348145,2019-08-07 14:20:13:967,-151.85067910612426,19.297175270655046,0,-43.33235549926758,52.32869338989258,-47.53064727783203
0.09030840545892715,-0.022529805079102516,9.860882759094238,0.0015370192362269886,-0.00033297644199582136,-0.013765778765781403,3.271839141845703,2019-08-07 14:20:13:978,-152.40295079196704,15.312832326864878,0,-43.33235549926758,52.32869338989258,-47.53064727783203
0.03283441439270973,0.013391440734267235,9.836935043334961,-0.00032764881944403687,-0.004595074841025611,-0.01882701966982802,3.2800118923187256,2019-08-07 14:20:13:987,-152.9489581981388,18.60516605500741,0,-43.33235549926758,52.32869338989258,-47.53064727783203
0.05917666107416153,-0.010556057095527649,9.805803298950195,0.003668068256940785,-0.0016648821774698163,-0.018294258454946873,3.290031909942627,2019-08-07 14:20:13:997,-153.4821269763019,14.632232586204761,0,-43.33235549926758,52.32869338989258,-47.53064727783203
0.05917666107416153,0.008601941168308258,9.824960708618164,-0.0019259356825072562,-0.005394218223793286,-0.017495114552030545,3.30000638961792,2019-08-07 14:20:14:007,-154.00256144653724,17.939663314173657,0,-43.33235549926758,52.32869338989258,-47.53064727783203
0.04480816051363945,-0.00816130731254816,9.901593208312988,-0.00032764881944403687,-0.006992504989328633,-0.010569204194413408,3.310040235519409,2019-08-07 14:20:14:017,-154.51338501465287,13.981999156284285,0,-43.33235549926758,52.32869338989258,-47.53064727783203
0.07593990862369537,-0.005766557063907385,9.839329719543457,0.001803400363816213,-0.003263168943005164,-0.012700254255424506,3.3200252056121826,2019-08-07 14:20:14:027,-155.01244380683556,10.102019677376925,0,-43.33235549926758,52.32869338989258,-47.53064727783203
0.11904539912939072,0.001417691819369793,9.832145690917969,-0.0032578413204533796,0.001531691613675204,-0.012700254255424506,3.3299882411956787,2019-08-07 14:20:14:037,-155.49917798516358,13.501636566541144,0,-43.33235549926758,52.32869338989258,-47.53064727783203
0.13580864667892456,-0.012950805947184563,9.8944091796875,0.002602543746583887,-0.002996787815415939,-0.008171774566259036,3.3399972915649414,2019-08-07 14:20:14:047,-155.9717825937389,9.63164107753973,0,-43.33235549926758,52.32869338989258,-47.53064727783203
0.0807294100522995,-0.010556057095527649,9.820171356201172,-6.126766340918298e-05,-0.0027304066878267143,-0.008704536821437486,3.3500020503997803,2019-08-07 14:20:14:057,-156.44139299166991,5.840274459677132,0,-43.03247833251953,52.92844772338867,-47.53064727783203
0.10467690229415894,0.027759937569499016,9.846513748168945,-0.0029914601928641544,-0.0019312633050590406,-0.006307106152985815,3.3600106239318848,2019-08-07 14:20:14:067,-156.8992981918772,9.321919479554005,0,-43.03247833251953,52.92844772338867,-47.53064727783203
0.13580864667892456,0.0038124416023492813,9.839329719543457,-0.0016595545549180318,-0.00566059935138251,-0.0068398684081642635,3.370013952255249,2019-08-07 14:20:14:077,-157.34231710450584,12.735969230247159,0,-43.03247833251953,52.92844772338867,-47.53064727783203
0.09749265760183334,-0.00816130731254816,9.791434288024902,0.00020511348449834825,0.0012653104860859794,0.0011515656795867992,3.380002975463867,2019-08-07 14:20:14:087,-157.78477102465988,8.882089938728093,0,-43.03247833251953,52.92844772338867,-47.53064727783203
0.09030840545892715,0.03254943713545799,9.78664493560791,0.0012706381086377639,0.00019978586194656375,0.001950709062354473,3.390007734298706,2019-08-07 14:20:14:097,-158.21861395055777,12.299923148182799,0,-43.03247833251953,52.92844772338867,-47.53064727783203
0.11425590515136719,-0.015345555730164051,9.827356338500977,0.006065498665318131,-0.005926980478971734,0.0022170901899436976,3.400010347366333,2019-08-07 14:20:14:107,-158.63759063917757,8.452307387947243,0,-43.03247833251953,52.92844772338867,-47.53064727783203
0.12144014984369278,-0.02492455393075943,9.805803298950195,0.0034016871293515603,-0.0008657387296835611,0.0038153772155533703,3.410001516342163,2019-08-07 14:20:14:117,-159.05016225751422,4.684265585292581,0,-43.03247833251953,52.92844772338867,-47.53064727783203
0.1334138959646225,-0.005766557063907385,9.846513748168945,-0.00032764881944403687,0.001531691613675204,-0.0007131023435749355,3.4200046062469482,2019-08-07 14:20:14:127,-159.45449385543424,0.9914354039370625,0,-43.03247833251953,52.92844772338867,-47.53064727783203
0.13101914525032043,0.0038124416023492813,9.841724395751953,-6.126766340918298e-05,-0.00033297644199582136,8.60411123386422e-05,3.429999589920044,2019-08-07 14:20:14:137,-159.84996286763774,4.571197180860504,0,-43.03247833251953,52.92844772338867,-47.53064727783203
0.15496665239334106,-0.00816130731254816,9.868066787719727,0.00393444938453001,-0.0021976444326482656,-0.004975200515039691,3.4400041103363037,2019-08-07 14:20:14:147,-160.23373526926943,0.8785107709165163,0,-43.03247833251953,52.92844772338867,-47.53064727783203
0.12862439453601837,0.01578618958592415,9.8034086227417,0.0028689248741731116,-0.004062312325772837,-0.002844151494325895,3.4500091075897217,2019-08-07 14:20:14:157,-160.61174446188062,4.457483614772839,0,-43.03247833251953,52.92844772338867,-47.53064727783203
0.14299289882183075,0.013391440734267235,9.863277435302734,0.0015370192362269886,-0.00246402556023749,-0.0031105326219151193,3.460002899169922,2019-08-07 14:20:14:167,-160.9815151331052,7.965915627422912,0,-43.03247833251953,52.92844772338867,-47.53064727783203
0.15017715096473694,0.034944187849760056,9.872856140136719,-0.0013931734273288073,-0.0013985010498805918,-0.010302823586972834,3.470005750656128,2019-08-07 14:20:14:177,-161.3436700403409,11.403323942906766,0,-43.03247833251953,52.92844772338867,-47.53064727783203
0.12144014984369278,0.013391440734267235,9.798619270324707,0.001803400363816213,-0.0037959311981836125,-0.005241581642628916,3.480008840560913,2019-08-07 14:20:14:187,-161.7004632804677,14.772678461302615,0,-43.03247833251953,52.92844772338867,-47.53064727783203
0.13580864667892456,0.03254943713545799,9.789039611816406,-0.00032764881944403687,-0.005127837096204061,-0.006573487280575038,3.490008592605591,2019-08-07 14:20:14:197,-162.04767792514167,18.07359860352214,0,-43.03247833251953,52.92844772338867,-47.53064727783203
0.13580864667892456,-0.020135056227445602,9.808197975158691,0.002336162618994662,-0.0021976444326482656,-0.010835585842151283,3.500018358230591,2019-08-07 14:20:14:207,-162.38962334710425,14.113166022527906,0,-43.03247833251953,52.92844772338867,-47.53064727783203
0.16694039106369019,0.00620719138532877,9.772276878356934,0.0007378757884407334,-0.004595074841025611,-0.008438155693848261,3.510066270828247,2019-08-07 14:20:14:217,-162.71966454911862,17.429758533875873,0,-43.03247833251953,52.92844772338867,-47.53064727783203
0.16454564034938812,0.01818094030022621,9.827356338500977,-0.0013931734273288073,0.002330834996442878,-0.0068398684081642635,3.5199978351593018,2019-08-07 14:20:14:227,-163.04738606570987,20.67982029467114,0,-43.03247833251953,52.92844772338867,-47.53064727783203
0.18130889534950256,-0.02492455393075943,9.858488082885742,0.00047149462834221814,-0.0048614559686148365,-0.0068398684081642635,3.529998540878296,2019-08-07 14:20:14:237,-163.3626361253051,16.66885626182696,0,-43.03247833251953,52.92844772338867,-47.53064727783203
0.16694039106369019,-0.005766557063907385,9.777066230773926,0.00020511348449834825,-0.005394218223793286,-0.008704536821437486,3.5400094985961914,2019-08-07 14:20:14:247,-163.67278698346948,12.736039705470468,0,-43.03247833251953,52.92844772338867,-47.53064727783203
0.16933514177799225,-0.027319304645061493,9.8848295211792,-0.0019259356825072562,0.0004661670057904337,-0.004442438259861242,3.550020933151245,2019-08-07 14:20:14:257,-163.97996475231068,8.885568586730134,0,-43.03247833251953,52.92844772338867,-47.53064727783203
0.1789141446352005,-0.020135056227445602,9.765092849731445,-0.0008604111071317767,-0.0013985010498805918,-0.0009794834711641602,3.5600037574768066,2019-08-07 14:20:14:267,-164.27858865431315,5.110702313140752,0,-43.03247833251953,52.92844772338867,-47.53064727783203
0.12144014984369278,-0.020135056227445602,9.887224197387695,-0.0008604111071317767,-0.0005993576020943366,-0.0012458645987533845,3.5699985027313232,2019-08-07 14:20:14:277,-164.57860648213486,1.4113047545795405,0,-43.03247833251953,52.92844772338867,-47.53064727783203
0.14299289882183075,-0.041687801480293274,9.889619827270508,0.0015370192362269886,-0.0005993576020943366,-0.004442438259861242,3.580002784729004,2019-08-07 14:20:14:287,-164.87013015996587,-2.212954384811556,0,-43.03247833251953,52.92844772338867,-47.53064727783203
0.1262296438217163,-0.020135056227445602,9.86567211151123,-0.0016595545549180318,0.002597216124032102,-0.007372630663342713,3.590013265609741,2019-08-07 14:20:14:297,-165.159526418001,-5.765423763033128,0,-43.03247833251953,52.92844772338867,-47.53064727783203
0.15496665239334106,-0.02492455393075943,9.832145690917969,0.0012706381086377639,-0.0013985010498805918,0.0022170901899436976,3.599999189376831,2019-08-07 14:20:14:307,-165.43749220136974,-9.247922847728024,0,-43.33235549926758,52.628570556640625,-46.631011962890625
0.1405981481075287,-0.03450355306267738,9.755513191223145,0.0034016871293515603,-0.004328693453362062,0.005680045108677942,3.609998941421509,2019-08-07 14:20:14:317,-165.70979787120564,-12.6608214989102,0,-43.33235549926758,52.628570556640625,-46.631011962890625
0.14299289882183075,-0.012950805947184563,9.820171356201172,-0.0032578413204533796,-0.005127837096204061,0.004081758343142595,3.6199965476989746,2019-08-07 14:20:14:327,-165.97603867020558,-16.004265004941942,0,-43.33235549926758,52.628570556640625,-46.631011962890625
0.13580864667892456,-0.03210880234837532,9.8034086227417,-0.0016595545549180318,-0.0013985010498805918,-0.00018034003963255039,3.630000591278076,2019-08-07 14:20:14:337,-166.23985873261884,-19.279494321801167,0,-43.33235549926758,52.628570556640625,-46.631011962890625
0.09749265760183334,0.01578618958592415,9.899198532104492,0.003135306001762336,-0.0013985010498805918,0.003548996087964146,3.6400132179260254,2019-08-07 14:20:14:347,-166.50299007877712,-15.297494511131724,0,-43.33235549926758,52.628570556640625,-46.631011962890625
0.11665065586566925,-0.01774030551314354,9.8034086227417,-0.0029914601928641544,-0.004328693453362062,0.0048809017259102685,3.6499993801116943,2019-08-07 14:20:14:357,-166.75686849101055,-18.58779359113749,0,-43.33235549926758,52.628570556640625,-46.631011962890625
0.10946640372276306,0.010996690951287746,9.834540367126465,0.0012706381086377639,0.0012653104860859794,0.004614520598321043,3.6599979400634766,2019-08-07 14:20:14:367,-167.00968704660062,-14.618032406386943,0,-43.33235549926758,52.628570556640625,-46.631011962890625
0.10228215157985687,-0.00337180751375854,9.86567211151123,0.005266355282550457,-0.0027304066878267143,0.0011515656795867992,3.669994831085205,2019-08-07 14:20:14:377,-167.2560808321104,-17.928236248740923,0,-43.33235549926758,52.628570556640625,-46.631011962890625
0.11186115443706512,0.04452318698167801,9.827356338500977,-0.0029914601928641544,0.001531691613675204,-0.0020450079815210586,3.679996967315674,2019-08-07 14:20:14:387,-167.49877647283066,-13.97318303988277,0,-43.33235549926758,52.628570556640625,-46.631011962890625
0.09509790688753128,0.03015468828380108,9.789039611816406,-0.0005940299795425521,-0.0021976444326482656,-0.003643294877093568,3.690012216567993,2019-08-07 14:20:14:397,-167.73643317339784,-10.096915252764585,0,-43.33235549926758,52.628570556640625,-46.631011962890625
0.10228215157985687,-0.005766557063907385,9.824960708618164,0.00047149462834221814,0.0004661670057904337,0.0016843279347652483,3.7000114917755127,2019-08-07 14:20:14:407,-167.97003718997755,-13.494569100783924,0,-43.33235549926758,52.628570556640625,-46.631011962890625
0.11425590515136719,0.025365188717842102,9.817776679992676,-6.126766340918298e-05,-0.004062312325772837,-0.0009794834711641602,3.7099947929382324,2019-08-07 14:20:14:417,-168.1950241031571,-9.627603953206417,0,-43.33235549926758,52.628570556640625,-46.631011962890625
0.11904539912939072,0.05649693310260773,9.913566589355469,0.00020511348449834825,-0.0008657387296835611,0.004081758343142595,3.720001459121704,2019-08-07 14:20:14:427,-168.41687731241342,-5.841697568292998,0,-43.33235549926758,52.628570556640625,-46.631011962890625
0.10946640372276306,0.0517074353992939,9.808197975158691,-0.0011267922997395827,-0.00246402556023749,-0.003643294877093568,3.7300150394439697,2019-08-07 14:20:14:437,-168.63436564543517,-2.1302711146604034,0,-43.33235549926758,52.628570556640625,-46.631011962890625
0.09988740086555481,0.00620719138532877,9.872856140136719,-0.00032764881944403687,-0.0048614559686148365,0.003016233572711371,3.7399985790252686,2019-08-07 14:20:14:447,-168.84735986112284,1.51179752742368,0,-43.33235549926758,52.628570556640625,-46.631011962890625
0.07593990862369537,-0.012950805947184563,9.824960708618164,-0.0029914601928641544,-0.0021976444326482656,-0.0031105326219151193,3.749997615814209,2019-08-07 14:20:14:457,-169.06032187808395,-2.1152483923631205,0,-43.33235549926758,52.628570556640625,-46.631011962890625
0.09270315617322922,0.020575689151883125,9.887224197387695,0.003135306001762336,-0.0008657387296835611,0.0032826149603749208,3.759995937347412,2019-08-07 14:20:14:467,-169.26788555841776,1.5229117104875955,0,-43.33235549926758,52.628570556640625,-46.631011962890625
0.1262296438217163,-0.03210880234837532,9.810592651367188,0.001803400363816213,-0.0008657387296835611,0.003016233572711371,3.76999831199646,2019-08-07 14:20:14:477,-169.46729831817657,-2.10480895073238,0,-43.33235549926758,52.628570556640625,-46.631011962890625
0.09749265760183334,-0.005766557063907385,9.85609245300293,-0.0005940299795425521,-0.004328693453362062,-0.006307106152985815,3.780012369155884,2019-08-07 14:20:14:487,-169.66418379514963,-5.661708308894173,0,-43.33235549926758,52.628570556640625,-46.631011962890625
0.09030840545892715,-0.012950805947184563,9.841724395751953,-0.0013931734273288073,-0.00246402556023749,0.0032826149603749208,3.7899982929229736,2019-08-07 14:20:14:497,-169.85900380697055,-9.146185060002576,0,-43.33235549926758,52.628570556640625,-46.631011962890625
0.09988740086555481,0.00620719138532877,9.791434288024902,0.0020697814914054373,0.0012653104860859794,-0.0017786268539318336,3.800008773803711,2019-08-07 14:20:14:507,-170.05084528336667,-5.36515119910753,0,-43.33235549926758,52.628570556640625,-46.631011962890625
0.07833465933799744,-0.010556057095527649,9.839329719543457,0.003135306001762336,-0.002996787815415939,-0.0031105326219151193,3.810006618499756,2019-08-07 14:20:14:517,-170.23902316945083,-8.858378878570274,0,-43.33235549926758,52.628570556640625,-46.631011962890625
0.10228215157985687,-0.022529805079102516,9.817776679992676,0.0028689248741731116,-0.00246402556023749,-0.0007131023435749355,3.820005178451538,2019-08-07 14:20:14:527,-170.420921576884,-12.280192327321085,0,-43.33235549926758,52.628570556640625,-46.631011962890625
0.11665065586566925,-0.00816130731254816,9.796224594116211,0.0015370192362269886,-0.0005993576020943366,0.0014179468071760237,3.8300178050994873,2019-08-07 14:20:14:537,-170.59852158992882,-15.634497934157036,0,-43.33235549926758,52.628570556640625,-46.631011962890625
0.1405981481075287,-0.0464773029088974,9.846513748168945,0.0015370192362269886,-0.00566059935138251,-0.006573487280575038,3.8400118350982666,2019-08-07 14:20:14:547,-170.76701324581143,-18.917261608441642,0,-43.33235549926758,52.628570556640625,-46.631011962890625
0.05678191035985947,-0.015345555730164051,9.784250259399414,-6.126766340918298e-05,-0.00246402556023749,0.003548996087964146,3.850004196166992,2019-08-07 14:20:14:557,-170.9436403597881,-22.137084755609756,0,-43.18241882324219,52.478633880615234,-47.380706787109375
0.0807294100522995,-0.022529805079102516,9.78664493560791,-0.0008604111071317767,-0.004595074841025611,-0.0004467211834764202,3.86000919342041,2019-08-07 14:20:14:567,-171.11273376472036,-25.2912216953237,0,-43.18241882324219,52.478633880615234,-47.380706787109375
0.07833465933799744,0.00620719138532877,9.796224594116211,-0.0016595545549180318,-0.001132119922291367,0.002483471317532922,3.8700153827667236,2019-08-07 14:20:14:577,-171.28067999296755,-21.185190934567085,0,-43.18241882324219,52.478633880615234,-47.380706787109375
0.09509790688753128,0.027759937569499016,9.851303100585938,-0.0008604111071317767,0.0009989292934781736,0.0038153772155533703,3.880007266998291,2019-08-07 14:20:14:587,-171.4445652744241,-17.16423344954299,0,-43.18241882324219,52.478633880615234,-47.380706787109375
0.13101914525032043,-0.020135056227445602,9.860882759094238,0.004733593027372009,0.0012653104860859794,0.003548996087964146,3.890009641647339,2019-08-07 14:20:14:597,-171.60116000254112,-20.421267462050608,0,-43.18241882324219,52.478633880615234,-47.380706787109375
0.061571408063173294,0.0038124416023492813,9.805803298950195,-0.0013931734273288073,-0.003263168943005164,0.005413663981088718,3.9000027179718018,2019-08-07 14:20:14:607,-171.76011060685553,-16.41250591500521,0,-43.18241882324219,52.478633880615234,-47.380706787109375
0.1405981481075287,-0.041687801480293274,9.820171356201172,-6.126766340918298e-05,-0.0013985010498805918,0.003016233572711371,3.910008192062378,2019-08-07 14:20:14:617,-171.90771743434317,-19.679356856701517,0,-43.18241882324219,52.478633880615234,-47.380706787109375
0.10228215157985687,-0.01774030551314354,9.78664493560791,0.001803400363816213,-0.0019312633050590406,0.00674556961903484,3.920013666152954,2019-08-07 14:20:14:627,-172.05650233706828,-22.88470567546186,0,-43.18241882324219,52.478633880615234,-47.380706787109375
-0.03661332651972771,-0.12310929596424103,10.045278549194336,-0.010183751157921868,0.005527408527513573,0.0027498524451221467,3.9300050735473633,2019-08-07 14:20:14:637,-165.02264990419505,-26.007255317638094,0,-43.18241882324219,52.478633880615234,-47.380706787109375
0.061571408063173294,0.2744191586971283,9.688460350036621,0.006065498665318131,-0.01924603685843296,-0.00257777036673667,3.940009355545044,2019-08-07 14:20:14:647,-165.30410331270974,-21.922966055823267,0,-43.18241882324219,52.478633880615234,-47.380706787109375
0.27230939269065857,-0.005766557063907385,9.365169525146484,0.026044084274807276,0.01937922820245055,-0.00018034003963255039,3.950002670288086,2019-08-07 14:20:14:657,-165.57558518084886,-25.098415084457592,0,-43.18241882324219,52.478633880615234,-47.380706787109375
0.16454564034938812,0.11876042932271957,9.918355941772461,0.004467211899782784,0.022575801733521247,0.0008851845519975746,3.960003614425659,2019-08-07 14:20:14:667,-165.85774194685166,-21.012675663598806,0,-43.18241882324219,52.478633880615234,-47.380706787109375
0.34654662013053894,-0.2045307755470276,9.8944091796875,-0.0061880337239348495,-0.0019312633050590406,-0.00018034003963255039,3.9700136184692383,2019-08-07 14:20:14:677,-166.0993829133642,-24.165259854951262,0,-43.18241882324219,54.27790069580078,-47.08082962036133
0.22201964259147644,-0.03929305449128151,9.688460350036621,0.010327597226894376,-0.022176229782063083,0.0022170901899436976,3.9800100326538086,2019-08-07 14:20:14:687,-166.33869272266807,-27.283104097222648,0,-43.18241882324219,54.27790069580078,-47.08082962036133
-0.08211357146501541,0.03733893856406212,9.539985656738281,0.002602543746583887,0.0031299783792105513,-0.004442438259861242,3.9900033473968506,2019-08-07 14:20:14:697,-159.42353817394834,-23.143387385933952,0,-43.18241882324219,54.27790069580078,-47.08082962036133
0.107071653008461,-0.12789879739284515,9.927935600280762,-0.012581181826373541,0.022043040518640096,0.0011515656795867992,4.000006675720215,2019-08-07 14:20:14:707,-159.83509057742947,-26.258691279392824,0,-43.18241882324219,54.27790069580078,-47.08082962036133
0.11186115443706512,0.06128643453121185,10.033304214477539,-0.0011267922997395827,-0.0027304066878267143,-0.00257777036673667,4.010011672973633,2019-08-07 14:20:14:717,-160.22407961410735,-22.13988395471063,0,-43.18241882324219,54.27790069580078,-47.08082962036133
-0.03421857953071594,0.10918142646551132,9.978224754333496,-0.008851844999827095,-0.014451176561826921,-0.008171774566259036,4.020008563995361,2019-08-07 14:20:14:727,-153.41541593060128,-18.104655594510795,0,-43.18241882324219,54.27790069580078,-47.08082962036133
-0.33356228470802307,0.07086542993783951,9.868066787719727,-0.01897432784821763,-0.01924603685843296,-0.010569204194413408,4.030011415481567,2019-08-07 14:20:14:737,-146.77501762297229,-14.140134393821965,0,-43.18241882324219,54.27790069580078,-47.08082962036133
-0.6281164884567261,0.08523393422365189,9.777066230773926,-0.007519939882029623,0.0041955028895674495,-0.01296663486286508,4.040003538131714,2019-08-07 14:20:14:747,-140.3153881958512,-10.263102138720466,0,-43.18241882324219,54.27790069580078,-47.08082962036133
-0.5945900082588196,-0.05605630204081535,10.109936714172363,-0.026166618813275342,0.023108565028996997,-0.017495114552030545,4.050008296966553,2019-08-07 14:20:14:757,-133.98937857978495,-13.636786920028227,0,-43.18241882324219,54.27790069580078,-47.08082962036133
-0.09408731758594513,-0.29074177145957947,10.409279823303223,-0.01844156663333648,-0.01951241954646814,-0.020425307475660667,4.06001353263855,2019-08-07 14:20:14:767,-127.70898648573399,-16.921692577089658,0,-43.18241882324219,54.27790069580078,-47.08082962036133
-0.1419823169708252,-0.14705678820610046,10.121910095214844,0.0028689248741731116,-0.03229871367075092,-0.011368348097329731,4.070007085800171,2019-08-07 14:20:14:777,-121.55275572646028,-20.16822125112816,0,-43.18241882324219,54.27790069580078,-47.08082962036133
-0.16592980921268463,-0.14226728677749634,9.678881645202637,-0.012581181826373541,-0.00912355401004243,-0.010302823586972834,4.079977750778198,2019-08-07 14:20:14:787,-115.5362358447766,-23.340970939602716,0,-43.18241882324219,54.27790069580078,-47.08082962036133
0.09988740086555481,-0.13268828392028809,9.892014503479004,-6.126766340918298e-05,0.01964560880989113,-0.0017786268539318336,4.090008735656738,2019-08-07 14:20:14:797,-116.8250054778965,-26.458746993098682,0,-43.18241882324219,54.27790069580078,-47.08082962036133
0.10946640372276306,0.07086542993783951,10.078804969787598,0.011393121737251273,-0.00033297644199582136,0.005413663981088718,4.099999904632568,2019-08-07 14:20:14:807,-118.07587321056691,-22.344020579671593,0,-44.53186798095703,52.628570556640625,-47.83052444458008
0.028044912964105606,-0.020135056227445602,10.006961822509766,-0.0016595545549180318,-0.021643468567181936,0.0038153772155533703,4.110012769699097,2019-08-07 14:20:14:817,-119.29897586745709,-25.49390143245497,0,-44.53186798095703,52.628570556640625,-47.83052444458008
-0.02463958039879799,0.013391440734267235,9.767487525939941,0.0012706381086377639,-0.006459742734150184,0.003548996087964146,4.120100498199463,2019-08-07 14:20:14:827,-113.3122280872144,-21.386314199019143,0,-44.53186798095703,52.628570556640625,-47.83052444458008
-0.000692082685418427,0.1043919250369072,9.755513191223145,0.01405693301314352,0.009256744313762716,0.01074128705302186,4.129989385604858,2019-08-07 14:20:14:837,-107.45120471674957,-17.378654923946744,0,-44.53186798095703,52.628570556640625,-47.83052444458008
0.03762391209602356,-0.08239854872226715,9.870461463928223,0.001803400363816213,0.014850748513285082,0.013937860584092555,4.139978408813477,2019-08-07 14:20:14:847,-108.90614220074207,-20.622527447042266,0,-44.53186798095703,52.628570556640625,-47.83052444458008
0.11665065586566925,-0.12310929596424103,9.956672668457031,0.0015370192362269886,-0.008857173402601856,0.01846634027325802,4.15044093132019,2019-08-07 14:20:14:857,-110.30939130525584,-23.79681189631522,0,-44.53186798095703,52.628570556640625,-47.83052444458008
0.07593990862369537,-0.029714053496718407,9.812987327575684,0.010860359482072824,-0.010988222423315652,0.022728438314685614,4.160306930541992,2019-08-07 14:20:14:867,-111.68824854725023,-26.923422160663012,0,-44.53186798095703,52.628570556640625,-47.83052444458008
-0.005481582134962082,-0.08718805015087128,9.659723281860352,0.004733593027372009,0.002597216124032102,0.021396533196888144,4.170002222061157,2019-08-07 14:20:14:877,-105.85654774312638,-29.977187954205572,0,-44.53186798095703,52.628570556640625,-47.83052444458008
0.028044912964105606,-0.1374777853488922,9.820171356201172,0.0012706381086377639,0.020711133320248026,0.021396533196888144,4.179996967315674,2019-08-07 14:20:14:887,-107.3477673991423,-32.96231604978823,0,-44.53186798095703,52.628570556640625,-47.83052444458008
0.07833465933799744,0.008601941168308258,9.983015060424805,0.009528453323978052,-0.0005993576020943366,0.020863769901412393,4.189998388290405,2019-08-07 14:20:14:897,-108.79148388620605,-28.709408089295135,0,-44.53186798095703,52.628570556640625,-47.83052444458008
-0.04619232565164566,-0.00337180751375854,9.932724952697754,0.006864642048085805,-0.016315844975100142,0.011806811563378757,4.200009346008301,2019-08-07 14:20:14:907,-103.01181190876329,-31.73868964066791,0,-44.53186798095703,52.628570556640625,-47.83052444458008
-0.17550881206989288,-0.02492455393075943,9.75790786743164,0.00047149462834221814,-0.0037959311981836125,0.011540429915640882,4.209999322891235,2019-08-07 14:20:14:917,-97.37005497421306,-34.701253328500876,0,-44.53186798095703,52.628570556640625,-47.83052444458008
-0.134798064827919,0.03254943713545799,9.784250259399414,0.003668068256940785,0.007924839195965244,0.008876618639748637,4.21999454498291,2019-08-07 14:20:14:927,-91.84288786802504,-30.413099016652225,0,-44.53186798095703,52.628570556640625,-47.83052444458008
-0.13958756625652313,0.04452318698167801,9.858488082885742,0.002336162618994662,0.001531691613675204,-0.0020450079815210586,4.2300238609313965,2019-08-07 14:20:14:937,-86.42311675278981,-26.21132781568733,0,-44.53186798095703,52.628570556640625,-47.83052444458008
-0.134798064827919,0.001417691819369793,9.887224197387695,0.004467211899782784,-0.00965631626522088,-0.008171774566259036,4.240002870559692,2019-08-07 14:20:14:947,-81.10486573144497,-22.08976863620858,0,-44.53186798095703,52.628570556640625,-47.83052444458008
-0.05337657779455185,0.06607593595981598,9.70522403717041,0.005799117537728906,-0.01604946436765957,-0.0148313032761383,4.250012397766113,2019-08-07 14:20:14:957,-75.8800502965599,-18.05903416227834,0,-44.53186798095703,52.628570556640625,-47.83052444458008
-0.12282431870698929,0.1043919250369072,9.5280122756958,0.006065498665318131,0.012719699492571287,-0.030814171971789078,4.2601282596588135,2019-08-07 14:20:14:967,-70.78444515910931,-14.113853220553636,0,-44.53186798095703,52.628570556640625,-47.83052444458008
0.11904539912939072,-0.07521429657936096,9.927935600280762,-0.005122509213577951,0.01937922820245055,-0.0326788403850623,4.270015239715576,2019-08-07 14:20:14:977,-72.96577472422784,-17.420051061886333,0,-44.53186798095703,52.628570556640625,-47.83052444458008
0.011281665414571762,0.19778716564178467,9.94709300994873,-0.00272507906527493,-0.022975373684979407,-0.02708483514524263,4.280006170272827,2019-08-07 14:20:14:987,-75.09227062966649,-13.492903587816684,0,-44.53186798095703,52.628570556640625,-47.83052444458008
-0.0629555732011795,0.18581341207027435,9.647749900817871,0.004200830512119234,-0.020311561368789862,-0.029482266853991603,4.290004253387451,2019-08-07 14:20:14:997,-69.9864999579974,-9.647471163158992,0,-44.53186798095703,52.628570556640625,-47.83052444458008
-0.1683245599269867,-0.012950805947184563,9.765092849731445,-0.008052702137208073,0.0017980727412644285,-0.04306770488119071,4.300012111663818,2019-08-07 14:20:15:007,-65.00753098750096,-13.048476853179286,0,-44.53186798095703,52.628570556640625,-47.83052444458008
-0.06774507462978363,0.11636567860841751,9.880040168762207,-0.008851844999827095,0.013785224002928184,-0.03694093634589529,4.31002140045166,2019-08-07 14:20:15:017,-60.12298508840467,-9.19602820381989,0,-44.53186798095703,52.628570556640625,-47.83052444458008
0.008886916562914848,0.1235499233007431,9.903987884521484,-0.002192316810096481,-0.008857173402601856,-0.047862564137499446,4.320026874542236,2019-08-07 14:20:15:027,-62.51452113572114,-5.425170269441962,0,-44.53186798095703,52.628570556640625,-47.83052444458008
-0.012665831483900547,0.010996690951287746,9.84411907196045,-0.0056552714687564,-0.024040898195336308,-0.045198753901904504,4.329999208450317,2019-08-07 14:20:15:037,-57.652243506989656,-1.7147803034498672,0,-44.53186798095703,52.628570556640625,-47.83052444458008
-0.09169257432222366,-0.07760904729366302,9.640565872192383,-0.00965098890274342,-0.0021976444326482656,-0.04759618561065348,4.340015411376953,2019-08-07 14:20:15:047,-52.908861274612505,-5.265832182408798,0,-44.53186798095703,52.628570556640625,-47.83052444458008
0.02325541339814663,-0.10395129770040512,9.860882759094238,-0.00911822664756497,0.013785224002928184,-0.044133227310953003,4.350006103515625,2019-08-07 14:20:15:057,-55.45571476391156,-8.743320885040589,0,-43.18241882324219,52.77851104736328,-47.08082962036133
0.152571901679039,-0.12071454524993896,9.96385669708252,-0.007519939882029623,-0.00859079175486398,-0.04040389464559577,4.360005140304565,2019-08-07 14:20:15:067,-57.92423171434386,-12.150350071375406,0,-43.18241882324219,52.77851104736328,-47.08082962036133
0.042413413524627686,-0.06803005188703537,9.86567211151123,0.00047149462834221814,-0.021110705271706186,-0.03560903122809782,4.370007514953613,2019-08-07 14:20:15:077,-60.34896426890684,-15.49970618855377,0,-43.18241882324219,52.77851104736328,-47.08082962036133
0.03283441439270973,-0.07760904729366302,9.760302543640137,0.0028689248741731116,-0.00805802949968553,-0.02708483514524263,4.380001068115234,2019-08-07 14:20:15:087,-62.73360839351163,-18.78221036769707,0,-43.18241882324219,52.77851104736328,-47.08082962036133
0.008886916562914848,0.03733893856406212,9.690855026245117,-0.0019259356825072562,0.006326551910281247,-0.0169623522968521,4.39001202583313,2019-08-07 14:20:15:097,-65.08144161659865,-14.809898764787572,0,-43.18241882324219,52.77851104736328,-47.08082962036133
0.13820339739322662,0.1043919250369072,9.90638256072998,-0.0037906035756318283,0.0017980727412644285,-0.019626163572744344,4.399998426437378,2019-08-07 14:20:15:107,-67.36483545840386,-10.923650299314883,0,-43.18241882324219,52.77851104736328,-47.08082962036133
0.14778240025043488,0.1043919250369072,9.868066787719727,-0.002192316810096481,-0.015250320464743247,-0.015097683883578876,4.410001277923584,2019-08-07 14:20:15:117,-69.59181352949042,-7.116067874965971,0,-43.18241882324219,52.77851104736328,-47.08082962036133
0.07354515790939331,0.11876042932271957,9.748329162597656,0.0020697814914054373,-0.00965631626522088,-0.00950367968405651,4.419995307922363,2019-08-07 14:20:15:127,-71.78591342189529,-3.3888675948922566,0,-43.18241882324219,52.77851104736328,-47.08082962036133
0.04720291122794151,0.08762867748737335,9.724381446838379,0.0020697814914054373,0.0052610273999243486,-0.007372630663342713,4.429994821548462,2019-08-07 14:20:15:137,-73.94758674892462,0.26742179990975457,0,-43.18241882324219,52.77851104736328,-47.08082962036133
0.13580864667892456,0.07326018065214157,9.84411907196045,-0.003524222448042604,0.0007325481658889489,-0.011101966449591856,4.4400177001953125,2019-08-07 14:20:15:147,-76.0532393266183,3.8555289622646316,0,-43.18241882324219,52.77851104736328,-47.08082962036133
0.1262296438217163,0.06368118524551392,9.85609245300293,-0.0029914601928641544,-0.005127837096204061,-0.010036441939234959,4.450012683868408,2019-08-07 14:20:15:157,-78.11462146207923,7.372693470651267,0,-43.18241882324219,52.77851104736328,-47.08082962036133
0.107071653008461,0.01578618958592415,9.801013946533203,-0.004056984703221053,-0.010721840775577777,-0.010036441939234959,4.459997177124023,2019-08-07 14:20:15:167,-80.13379995679834,10.825668371054004,0,-43.18241882324219,52.77851104736328,-47.08082962036133
0.11425590515136719,0.03973368555307388,9.836935043334961,-0.004856128085988727,-0.0005993576020943366,-0.0020450079815210586,4.470016241073608,2019-08-07 14:20:15:177,-82.11747757762312,14.207258314731423,0,-43.632232666015625,53.52820587158203,-46.03125762939453
0.11186115443706512,0.03733893856406212,9.762697219848633,-0.0019259356825072562,0.0007325481658889489,-0.00257777036673667,4.480014801025391,2019-08-07 14:20:15:187,-84.06240994543212,17.519811693745453,0,-43.632232666015625,53.52820587158203,-46.03125762939453
0.11904539912939072,0.008601941168308258,9.86567211151123,-0.00272507906527493,-0.0016648821774698163,-0.009237299076615935,4.490001201629639,2019-08-07 14:20:15:197,-85.96640152221451,20.769944376464395,0,-43.632232666015625,53.52820587158203,-46.03125762939453
0.09509790688753128,0.001417691819369793,9.858488082885742,-0.0029914601928641544,-0.014184795954386346,-0.0041760571322720175,4.5,2019-08-07 14:20:15:207,-87.8280562055953,23.956060200471352,0,-43.632232666015625,53.52820587158203,-46.03125762939453
-1.2651199102401733,-0.2548205256462097,10.517044067382812,-0.06372636144439657,-0.02563918600116895,0.01953186478361492,4.509995222091675,2019-08-07 14:20:15:217,-82.59429129765861,19.940463456783593,0,-43.632232666015625,53.52820587158203,-46.03125762939453
