ACCELEROMETER X (m/s²),ACCELEROMETER Y (m/s²),ACCELEROMETER Z (m/s²),GYROSCOPE X (rad/s),GYROSCOPE Y (rad/s),GYROSCOPE Z (rad/s),Pitch (Deg),Roll (Deg),Heading (Deg),Time since start in ms ,YYYY-MO-DD HH-MI-SS_SSS
0.027774307876825333,-0.01811867579817772,9.791808128356934,0.0013958372386046994,-0.004954156340941561,0.0010769789638618162,-3.596749637387527,-3.597879610271838,0,0.0,2019-08-06 15:26:17:832
0.01819530874490738,0.05851331353187561,9.846887588500977,0.0011294561110154748,-0.004954156340941561,0.0026752657293971638,-7.1217932930678,0.06706259651213253,0,0.0032494068145751953,2019-08-06 15:26:17:835
0.015800558030605316,-0.013329177163541317,9.820545196533203,0.002727743006587985,-0.003622250702995438,0.0013433600914510408,-10.576833927213535,-3.533235262656414,0,0.006591796875,2019-08-06 15:26:17:838
0.030169056728482246,0.024986818432807922,9.923519134521484,0.00033031263071992917,-0.003622250702995438,0.0026752657293971638,-13.96118305558818,0.13448661304757792,0,0.009691476821899414,2019-08-06 15:26:17:841
0.04453755542635918,-0.02530292607843876,9.827729225158691,-0.0004688308170663259,-0.002023963937460091,0.0008105978362725917,-17.27643022501073,-3.4651749407413535,0,0.012649059295654297,2019-08-06 15:26:17:844
0.11638004332780838,-0.013329177163541317,9.791808128356934,0.0021949807514095357,-0.008683492647339357,0.002941646856986388,-20.515391078203475,-6.994789672660158,0,0.01652836799621582,2019-08-06 15:26:17:848
0.05411655455827713,0.04893431439995766,9.854071617126465,0.002727743006587985,-0.005753299723709235,0.0037407904998283874,-23.697596291534676,-3.2611503786728773,0,0.02022409439086914,2019-08-06 15:26:17:852
0.07087980210781097,0.02259206771850586,9.916335105895996,0.0024613618789987605,-0.0030894884478169893,0.003474409372239163,-26.81501831738384,0.40111502606692495,0,0.02273416519165039,2019-08-06 15:26:17:854
0.030169056728482246,0.03217106685042381,9.803781509399414,-0.001534355424951096,-0.0022903450650493154,0.0013433600914510408,-29.874697697575638,3.9896633322869155,0,0.026575088500976562,2019-08-06 15:26:17:858
0.03256380558013916,0.027381567284464836,9.815755844116211,0.00033031263071992917,-0.004954156340941561,-0.00025492675535753324,-32.872515849409126,7.5066143871516875,0,0.029761314392089844,2019-08-06 15:26:17:861
0.030169056728482246,0.003434071084484458,9.858860969543457,0.00033031263071992917,-0.0028231073202277645,0.004007171627417612,-35.81109649186607,10.956028843313836,0,0.03267860412597656,2019-08-06 15:26:17:864
-0.0033574390690773726,-0.00853967759758234,9.87322998046875,6.393147468507523e-05,-0.002023963937460091,0.004806315010185286,-31.494846672719955,7.137886216166501,0,0.03635287284851074,2019-08-06 15:26:17:868
0.003826810047030449,-0.001355428365059197,9.801386833190918,0.0024613618789987605,-0.006286061978887684,0.0010769789638618162,-34.46324812295271,3.3947958630628112,0,0.03990626335144043,2019-08-06 15:26:17:871
0.037353307008743286,-0.04925042390823364,9.870835304260254,-0.00020244967322245603,-0.0014912016822816417,0.0021425034742187147,-37.36940021410501,-0.2673490917011918,0,0.04285120964050293,2019-08-06 15:26:17:874
-0.027304936200380325,0.03217106685042381,9.887598037719727,0.0016622183661939237,-0.006286061978887684,0.002941646856986388,-33.023876697279135,3.33392570708135,0,0.04653429985046387,2019-08-06 15:26:17:878
0.01819530874490738,-0.022908175364136696,9.784624099731445,0.0005966937908184444,-0.0006920582344953867,0.004539933882596061,-35.96112992003407,-0.3301892074270998,0,0.050093889236450195,2019-08-06 15:26:17:882
0.0014320602640509605,0.017802570015192032,9.880414009094238,0.0011294561110154748,-0.003622250702995438,0.0005442166761740764,-38.841129462288876,3.2741591068811937,0,0.05310177803039551,2019-08-06 15:26:17:885
0.06848505139350891,-0.01811867579817772,9.830123901367188,0.00033031263071992917,-0.005220537468530785,0.0042735527550068365,-41.65530425424585,-0.3892764445105179,0,0.0565791130065918,2019-08-06 15:26:17:888
0.07087980210781097,0.04653956741094589,9.928308486938477,0.0011294561110154748,-0.0028231073202277645,0.0016097412190402653,-44.41351258666972,3.2129355967510795,0,0.05976390838623047,2019-08-06 15:26:17:891
0.03256380558013916,0.010618319734930992,9.839703559875488,-0.00020244967322245603,-0.0009584393620846114,0.0026752657293971638,-47.12129339641092,6.747473377112252,0,0.06267428398132324,2019-08-06 15:26:17:894
0.05411655455827713,-0.00853967759758234,9.87322998046875,0.0019285994937831485,-0.00015929593055300162,0.0021425034742187147,-49.7725539228708,3.0131186060457225,0,0.06633520126342773,2019-08-06 15:26:17:898
0.09003780037164688,0.02259206771850586,9.911545753479004,0.0037932675169448835,-0.0030894884478169893,0.005339077265363735,-52.366077389798434,6.549487838690259,0,0.06988668441772461,2019-08-06 15:26:17:901
-0.024910185486078262,-0.027697674930095673,9.94267749786377,-0.0004688308170663259,-0.00255672619263854,0.004007171627417612,-47.72120630726179,2.821767396574105,0,0.0728156566619873,2019-08-06 15:26:17:904
0.013405809178948402,0.02259206771850586,9.880414009094238,-0.002599880065345157,-0.003622250702995438,0.0021425034742187147,-50.36446074283972,6.363262126754087,0,0.07658505439758301,2019-08-06 15:26:17:908
0.1020115464925766,0.034565817564725876,9.92591381072998,0.0024613618789987605,-0.006019680851298459,0.003208027984575613,-52.94431944182688,9.83156659260355,0,0.07976722717285156,2019-08-06 15:26:17:911
0.008616309612989426,-0.00853967759758234,10.031283378601074,-0.0018007365525403206,-0.003622250702995438,0.0018761223466294901,-55.48385577117077,6.036205585381905,0,0.08268284797668457,2019-08-06 15:26:17:914
0.056511301547288895,0.03696056827902794,9.806177139282227,0.0013958372386046994,-0.0017575828098708665,0.0037407904998283874,-57.967212691630216,9.510874660775347,0,0.08635425567626953,2019-08-06 15:26:17:918
-0.005752188619226217,0.008223570883274078,9.78222942352295,-0.001534355424951096,-0.004155012958173888,0.005605458392952959,-53.20769305434063,12.920007432011413,0,0.08999419212341309,2019-08-06 15:26:17:922
0.05411655455827713,-0.006144927814602852,9.832518577575684,-0.0012679742973618717,-0.0006920582344953867,0.003474409372239163,-55.73711720404016,9.062534360572254,0,0.0929567813873291,2019-08-06 15:26:17:925
-0.005752188619226217,0.01301306951791048,9.868440628051758,0.0019285994937831485,-0.0054869185961200105,0.0037407904998283874,-51.0219215928338,12.479378513361436,0,0.09659600257873535,2019-08-06 15:26:17:928
0.027774307876825333,0.04653956741094589,9.837308883666992,0.002994124134177209,-0.0012248205546924172,0.004806315010185286,-53.598028835514455,15.823834396629325,0,0.09978032112121582,2019-08-06 15:26:17:931
0.013405809178948402,0.020197318866848946,9.87322998046875,6.393147468507523e-05,-0.003622250702995438,0.0042735527550068365,-56.12392118064699,19.105003118990798,0,0.10268688201904297,2019-08-06 15:26:17:934
0.0756693035364151,-0.01811867579817772,9.820545196533203,6.393147468507523e-05,-0.0014912016822816417,0.005605458392952959,-58.59234110354867,15.125005566820386,0,0.10593914985656738,2019-08-06 15:26:17:937
0.03974805399775505,0.015407819300889969,9.882808685302734,6.393147468507523e-05,-0.00255672619263854,-0.0007876890592999184,-61.015383628346044,18.420706364668856,0,0.1094350814819336,2019-08-06 15:26:17:941
0.020590057596564293,0.03696056827902794,9.84449291229248,-0.0020671176801295454,-0.004954156340941561,0.00507269613777451,-63.39179185162564,21.648360247893184,0,0.1126251220703125,2019-08-06 15:26:17:944
0.05172180384397507,0.02259206771850586,9.861255645751953,0.0013958372386046994,-0.00042567707439687154,0.0010769789638618162,-65.71785743007538,24.812477994292994,0,0.11632227897644043,2019-08-06 15:26:17:948
-0.000962689402513206,0.0297763179987669,9.851676940917969,0.002994124134177209,-0.0030894884478169893,0.003474409372239163,-60.802999889532515,27.91217149207213,0,0.11985230445861816,2019-08-06 15:26:17:951
0.04453755542635918,0.0393553152680397,9.940282821655273,-0.0004688308170663259,-0.006019680851298459,0.0013433600914510408,-63.18081861426747,30.949468078382083,0,0.1227724552154541,2019-08-06 15:26:17:954
0.04693230614066124,0.03696056827902794,9.820545196533203,-0.0012679742973618717,0.0011726098536849292,0.0042735527550068365,-65.51197841640982,33.926438958749884,0,0.12660670280456543,2019-08-06 15:26:17:958
0.042142804712057114,-0.0037501780316233635,9.818150520324707,0.0005966937908184444,-0.002023963937460091,0.004539933882596061,-67.79645695841869,29.648240782146324,0,0.12980318069458008,2019-08-06 15:26:17:961
0.05172180384397507,0.03217106685042381,9.849282264709473,0.002727743006587985,-0.006552443626625559,0.0016097412190402653,-70.03343670791065,32.65108610563764,0,0.1327211856842041,2019-08-06 15:26:17:964
-0.012936437502503395,-0.04446092247962952,9.830123901367188,0.002727743006587985,-0.006286061978887684,0.003474409372239163,-65.03290574060664,28.402652637115715,0,0.13660335540771484,2019-08-06 15:26:17:968
0.03974805399775505,0.020197318866848946,9.818150520324707,-0.0012679742973618717,-0.004954156340941561,0.0018761223466294901,-67.32672488705364,31.432468430327223,0,0.13977980613708496,2019-08-06 15:26:17:971
-0.015331187285482883,0.05372381582856178,9.751097679138184,-0.0036654045757020556,-0.004421394085763112,0.002408884601807939,-62.381266861068916,34.39810688508376,0,0.1427009105682373,2019-08-06 15:26:17:974
0.027774307876825333,0.02259206771850586,9.933098793029785,0.003260505261766434,-0.005220537468530785,0.0010769789638618162,-64.72930024355679,37.30682824326033,0,0.14658021926879883,2019-08-06 15:26:17:978
0.05890605226159096,-0.0037501780316233635,9.90196704864502,6.393147468507523e-05,0.0009062286610771233,0.0021425034742187147,-67.02805926552323,32.96111424935766,0,0.14976215362548828,2019-08-06 15:26:17:981
-0.005752188619226217,0.06809231638908386,9.839703559875488,0.0019285994937831485,-0.005753299723709235,0.002941646856986388,-62.08722708922362,35.89364677380506,0,0.15267467498779297,2019-08-06 15:26:17:984
0.015800558030605316,0.05372381582856178,9.973809242248535,0.004059648644534107,-0.004421394085763112,0.0026752657293971638,-64.44275648711181,38.768765249897996,0,0.1563429832458496,2019-08-06 15:26:17:988
0.037353307008743286,-0.03488192334771156,9.777440071105957,0.0005966937908184444,-0.005220537468530785,0.0021425034742187147,-66.74847790491442,34.39735857051528,0,0.1599102020263672,2019-08-06 15:26:17:991
-0.041673433035612106,-0.013329177163541317,9.909151077270508,0.002994124134177209,-0.0033558695754062136,0.0021425034742187147,-61.817773276913954,30.11045831082018,0,0.16285157203674316,2019-08-06 15:26:17:994
0.08285354822874069,0.07048705965280533,9.988177299499512,0.0013958372386046994,-0.003888631830584663,0.0008105978362725917,-64.17109912326612,33.099870541097054,0,0.16657662391662598,2019-08-06 15:26:17:998
0.05890605226159096,0.034565817564725876,9.851676940917969,0.000863074918407669,-0.0017575828098708665,0.0016097412190402653,-66.48051096919959,36.03369812877663,0,0.16976332664489746,2019-08-06 15:26:18:001
0.08285354822874069,0.020197318866848946,9.868440628051758,0.00033031263071992917,-0.0022903450650493154,0.0005442166761740764,-68.74090580502585,38.91062489387766,0,0.17267370223999023,2019-08-06 15:26:18:004
0.037353307008743286,0.01301306951791048,9.875624656677246,6.393147468507523e-05,-0.004421394085763112,0.002941646856986388,-70.96084190278674,41.7308892484007,0,0.1763453483581543,2019-08-06 15:26:18:008
0.08764304965734482,0.05851331353187561,9.880414009094238,0.00033031263071992917,-0.004954156340941561,0.003474409372239163,-73.13047069771847,44.489419254418884,0,0.17990398406982422,2019-08-06 15:26:18:011
0.056511301547288895,-0.0037501780316233635,9.818150520324707,-0.0028662611929343817,-0.0014912016822816417,0.0021425034742187147,-75.26101715772427,40.000546288121186,0,0.18287229537963867,2019-08-06 15:26:18:014
-0.015331187285482883,0.05372381582856178,9.8229398727417,0.0024613618789987605,-0.0028231073202277645,0.0008105978362725917,-70.15699727700851,42.79375548127452,0,0.18658185005187988,2019-08-06 15:26:18:018
0.037353307008743286,-0.001355428365059197,9.784624099731445,0.0024613618789987605,-0.002023963937460091,-0.00025492675535753324,-72.34907779674386,38.337546630423276,0,0.19014525413513184,2019-08-06 15:26:18:022
0.04453755542635918,0.017802570015192032,9.894782066345215,0.002994124134177209,-0.003888631830584663,-0.0015868324420675922,-74.49639093779295,41.16831247156205,0,0.19265246391296387,2019-08-06 15:26:18:024
0.006221559830009937,-0.02530292607843876,9.86365032196045,6.393147468507523e-05,-0.0012248205546924172,0.0002778355485848519,-76.60551708207875,36.747874145992455,0,0.19589853286743164,2019-08-06 15:26:18:027
0.049327053129673004,-0.04446092247962952,9.866044998168945,0.0013958372386046994,-0.0028231073202277645,0.004007171627417612,-78.66703505269575,32.417762963202044,0,0.1999518871307373,2019-08-06 15:26:18:032
0.07806405425071716,0.020197318866848946,9.837308883666992,0.0005966937908184444,-0.00255672619263854,-0.00025492675535753324,-80.68414812019365,35.36694926660867,0,0.20310735702514648,2019-08-06 15:26:18:035
0.030169056728482246,0.020197318866848946,9.904361724853516,-0.0007352119771648412,-0.0030894884478169893,0.0016097412190402653,-82.66637255504443,38.257416779373166,0,0.20657825469970703,2019-08-06 15:26:18:038
0.08045879751443863,-0.0324871726334095,9.827729225158691,0.0019285994937831485,-0.004155012958173888,-0.0010540701868891429,-84.6029346807408,33.895718013350006,0,0.2097034454345703,2019-08-06 15:26:18:041
0.06848505139350891,0.01301306951791048,9.8229398727417,0.000863074918407669,-0.002023963937460091,0.003474409372239163,-86.50253873120148,36.81613713965738,0,0.2127666473388672,2019-08-06 15:26:18:044
0.04693230614066124,0.015407819300889969,9.772649765014648,-0.0028662611929343817,-0.0028231073202277645,0.003474409372239163,-88.36637575951478,39.67862610649203,0,0.21660900115966797,2019-08-06 15:26:18:048
0.056511301547288895,0.07527656108140945,9.734333992004395,-0.001534355424951096,-0.0022903450650493154,0.002941646856986388,-90.19199497217605,42.47646085252658,0,0.2197263240814209,2019-08-06 15:26:18:051
0.04693230614066124,0.05132906511425972,9.849282264709473,-0.00020244967322245603,-0.004155012958173888,0.0010769789638618162,-91.98197994854556,45.22099463419831,0,0.22279024124145508,2019-08-06 15:26:18:054
0.07806405425071716,-0.06122417002916336,9.806177139282227,0.0005966937908184444,-0.00255672619263854,0.00507269613777451,-93.73266698432481,40.72360043570208,0,0.22663021087646484,2019-08-06 15:26:18:058
0.07087980210781097,-0.020513426512479782,9.748703002929688,0.0005966937908184444,-0.008150730392160906,-0.0026523570824616527,-95.44820597406537,36.311431612972065,0,0.22985577583312988,2019-08-06 15:26:18:061
0.02537955716252327,-0.03488192334771156,9.856466293334961,-0.002333498937755932,0.0017053721088633783,0.0026752657293971638,-97.13658073512588,31.989654487276553,0,0.2328791618347168,2019-08-06 15:26:18:064
0.05411655455827713,0.010618319734930992,9.930704116821289,-0.0004688308170663259,-0.006818824754214785,0.002408884601807939,-98.78603624590332,34.948743971058605,0,0.23697543144226074,2019-08-06 15:26:18:069
0.02537955716252327,0.01301306951791048,9.837308883666992,0.0013958372386046994,-0.0028231073202277645,0.0018761223466294901,-100.40683638825125,37.8479947740135,0,0.24027323722839355,2019-08-06 15:26:18:072
0.08045879751443863,0.005828820634633303,9.856466293334961,0.000863074918407669,-0.006818824754214785,0.003474409372239163,-101.98809501278612,40.69019891510492,0,0.24353981018066406,2019-08-06 15:26:18:075
-0.020120687782764435,0.03217106685042381,9.801386833190918,-0.0018007365525403206,-0.003622250702995438,0.0021425034742187147,-96.35004617719494,43.47295153813462,0,0.24668312072753906,2019-08-06 15:26:18:078
0.042142804712057114,0.005828820634633303,9.861255645751953,-0.0012679742973618717,-0.002023963937460091,0.005339077265363735,-98.01779350717523,46.20303733963226,0,0.2498035430908203,2019-08-06 15:26:18:081
0.06369554996490479,0.020197318866848946,9.846887588500977,0.0037932675169448835,-0.003622250702995438,0.002408884601807939,-99.6494122905431,48.875984241735786,0,0.25281739234924316,2019-08-06 15:26:18:084
0.0014320602640509605,0.05132906511425972,9.90196704864502,0.0016622183661939237,-0.0022903450650493154,0.002941646856986388,-101.25577984938926,51.49217725113743,0,0.25653791427612305,2019-08-06 15:26:18:088
0.022984808310866356,0.0010393214179202914,9.870835304260254,-0.00020244967322245603,-0.00255672619263854,0.0016097412190402653,-102.8275600075202,54.06224756767337,0,0.25957441329956055,2019-08-06 15:26:18:091
-0.027304936200380325,-0.0037501780316233635,9.952256202697754,0.005125173414965331,-0.005753299723709235,0.004806315010185286,-97.17307220570939,49.38047186488539,0,0.26291918754577637,2019-08-06 15:26:18:094
0.05172180384397507,0.03217106685042381,9.9139404296875,0.0011294561110154748,-0.0022903450650493154,1.1454389502251989e-05,-98.82313089719867,51.98889655467897,0,0.26681947708129883,2019-08-06 15:26:18:098
0.015800558030605316,-0.013329177163541317,9.84449291229248,0.0011294561110154748,-0.003888631830584663,0.0013433600914510408,-100.44414617527457,47.35047181428565,0,0.2699470520019531,2019-08-06 15:26:18:102
0.013405809178948402,0.03217106685042381,9.94267749786377,-0.00020244967322245603,-0.002023963937460091,0.0021425034742187147,-102.03333488842365,49.99979294587297,0,0.27331995964050293,2019-08-06 15:26:18:105
0.09003780037164688,-0.0037501780316233635,9.832518577575684,-0.0018007365525403206,-0.005220537468530785,-0.0013204513144783674,-103.58112286145624,45.40059712120428,0,0.27690982818603516,2019-08-06 15:26:18:108
0.05890605226159096,-0.00853967759758234,9.815755844116211,0.0013958372386046994,-0.004954156340941561,0.0042735527550068365,-105.1017440181894,40.893334285042236,0,0.2800719738006592,2019-08-06 15:26:18:112
0.06130080297589302,0.027381567284464836,9.923519134521484,0.000863074918407669,-0.0033558695754062136,0.0026752657293971638,-106.59201765980049,43.672148107099716,0,0.2833244800567627,2019-08-06 15:26:18:115
0.008616309612989426,0.0010393214179202914,10.002546310424805,0.0011294561110154748,-0.003888631830584663,0.004806315010185286,-108.05852688163235,46.39839341594806,0,0.2863624095916748,2019-08-06 15:26:18:118
0.013405809178948402,0.024986818432807922,9.837308883666992,0.0035268863893556587,-0.0030894884478169893,-0.0010540701868891429,-109.49518324622673,49.066816847789966,0,0.2898874282836914,2019-08-06 15:26:18:121
0.03495855629444122,0.041750065982341766,9.904361724853516,0.0024613618789987605,-0.004421394085763112,0.005339077265363735,-110.90029579335554,51.68012730885,0,0.2936704158782959,2019-08-06 15:26:18:125
0.030169056728482246,-0.0324871726334095,9.887598037719727,0.0011294561110154748,-0.005220537468530785,0.006670982903309857,-112.27790490973723,47.05009758657694,0,0.29670166969299316,2019-08-06 15:26:18:128
-0.000962689402513206,0.07527656108140945,9.827729225158691,0.0021949807514095357,-0.00015929593055300162,0.0026752657293971638,-106.43243122128546,49.699934925653366,0,0.29981422424316406,2019-08-06 15:26:18:131
0.04693230614066124,-0.037276674062013626,9.911545753479004,0.002727743006587985,-0.0009584393620846114,0.0013433600914510408,-107.89819456840517,45.10978478659865,0,0.3028249740600586,2019-08-06 15:26:18:134
-0.000962689402513206,0.010618319734930992,9.904361724853516,0.0021949807514095357,-0.004155012958173888,0.0010769789638618162,-102.13947410351102,47.805902055159294,0,0.3065452575683594,2019-08-06 15:26:18:138
0.013405809178948402,-0.02530292607843876,9.813361167907715,0.0035268863893556587,-0.004954156340941561,0.002941646856986388,-103.69428103405941,43.25214195088684,0,0.3095583915710449,2019-08-06 15:26:18:141
-0.03927868604660034,0.03696056827902794,9.961835861206055,0.0016622183661939237,-0.004421394085763112,0.0021425034742187147,-98.02408480236679,45.98253593601694,0,0.3128969669342041,2019-08-06 15:26:18:144
0.027774307876825333,-0.010934427380561829,9.933098793029785,0.0021949807514095357,-0.0022903450650493154,0.0013433600914510408,-99.6598959183909,41.463664536161886,0,0.31680870056152344,2019-08-06 15:26:18:148
0.056511301547288895,0.04653956741094589,9.815755844116211,0.0016622183661939237,-0.004155012958173888,0.002408884601807939,-101.25937029568021,44.2286659012758,0,0.31993985176086426,2019-08-06 15:26:18:152
-0.041673433035612106,0.008223570883274078,9.86365032196045,-0.0004688308170663259,-0.0030894884478169893,0.0018761223466294901,-95.63837015545076,46.94323647135901,0,0.32371068000793457,2019-08-06 15:26:18:155
-0.034489184617996216,0.0393553152680397,9.894782066345215,6.393147468507523e-05,-0.006552443626625559,0.002941646856986388,-90.12847650097844,49.599803091487665,0,0.32675600051879883,2019-08-06 15:26:18:158
-0.008146938867866993,0.0656975656747818,9.83491325378418,0.0011294561110154748,-0.0030894884478169893,0.0010769789638618162,-84.7263110108274,52.19995307239275,0,0.3298988342285156,2019-08-06 15:26:18:161
0.020590057596564293,0.0393553152680397,9.813361167907715,0.002727743006587985,-0.0022903450650493154,0.002408884601807939,-86.62894726070944,54.75084253237085,0,0.3332674503326416,2019-08-06 15:26:18:165
0.006221559830009937,0.027381567284464836,9.90196704864502,-0.001534355424951096,-0.0014912016822816417,0.003208027984575613,-88.49536885737142,57.25294447797212,0,0.3366050720214844,2019-08-06 15:26:18:168
-0.017725937068462372,-0.010934427380561829,9.851676940917969,0.0021949807514095357,-0.003622250702995438,0.003208027984575613,-83.12688718839976,52.508771978604116,0,0.33973264694213867,2019-08-06 15:26:18:171
0.06130080297589302,-0.0324871726334095,9.808571815490723,0.002727743006587985,-0.004687775213352337,0.004007171627417612,-85.05630836314461,47.8618801533584,0,0.34307408332824707,2019-08-06 15:26:18:175
0.003826810047030449,0.024986818432807922,9.83491325378418,0.0005966937908184444,-0.0014912016822816417,0.002941646856986388,-86.95441680750982,50.50160336708991,0,0.3468899726867676,2019-08-06 15:26:18:178
0.03256380558013916,0.04893431439995766,9.87322998046875,-0.00020244967322245603,-0.003622250702995438,0.002408884601807939,-88.81091238834651,53.08592747096428,0,0.350020170211792,2019-08-06 15:26:18:182
0.042142804712057114,0.010618319734930992,9.878019332885742,0.0013958372386046994,-0.0033558695754062136,0.0037407904998283874,-90.62927722568263,55.622757469093614,0,0.35282278060913086,2019-08-06 15:26:18:184
0.06369554996490479,0.0656975656747818,9.894782066345215,0.0005966937908184444,-0.004155012958173888,0.002408884601807939,-92.40840763672671,58.10256365770753,0,0.35671281814575195,2019-08-06 15:26:18:188
0.04453755542635918,0.0010393214179202914,9.842098236083984,0.00033031263071992917,-0.0009584393620846114,0.004007171627417612,-94.15481789916606,60.540310003598094,0,0.3611001968383789,2019-08-06 15:26:18:193
0.008616309612989426,0.01301306951791048,9.868440628051758,0.002727743006587985,-0.0022903450650493154,0.0010769789638618162,-95.87039858871344,62.92760872670652,0,0.36360740661621094,2019-08-06 15:26:18:195
0.06609030067920685,0.07048705965280533,9.86365032196045,0.0035268863893556587,-0.0028231073202277645,0.004539933882596061,-97.54469374581811,65.26009462109236,0,0.3675117492675781,2019-08-06 15:26:18:199
0.07087980210781097,0.015407819300889969,9.839703559875488,0.0005966937908184444,-0.003622250702995438,0.002408884601807939,-99.18476460757287,67.55296972956867,0,0.3713510036468506,2019-08-06 15:26:18:203
-0.02251543663442135,0.0656975656747818,9.892387390136719,0.0021949807514095357,-0.004687775213352337,0.002941646856986388,-93.60299843641073,69.79398222296801,0,0.3739306926727295,2019-08-06 15:26:18:205
0.022984808310866356,-0.022908175364136696,9.854071617126465,-0.0010015931047540657,0.00010708522141819095,0.003208027984575613,-95.32828668624195,64.80096373073003,0,0.37743711471557617,2019-08-06 15:26:18:209
0.03495855629444122,-0.0037501780316233635,9.909151077270508,0.0035268863893556587,-0.006019680851298459,0.0016097412190402653,-97.01661873524046,59.90475735154641,0,0.3805718421936035,2019-08-06 15:26:18:212
0.04453755542635918,0.003434071084484458,9.849282264709473,0.0037932675169448835,-0.0033558695754062136,0.0013433600914510408,-98.67065527937761,62.30575470369293,0,0.38295674324035645,2019-08-06 15:26:18:215
0.008616309612989426,-0.02530292607843876,9.796597480773926,0.004326029772123333,-0.003622250702995438,0.004539933882596061,-100.29548953379773,57.461709815522106,0,0.38661861419677734,2019-08-06 15:26:18:218
0.05172180384397507,0.003434071084484458,9.775045394897461,-0.0018007365525403206,-0.0054869185961200105,0.005339077265363735,-101.88255258033537,59.91238940074862,0,0.38974738121032715,2019-08-06 15:26:18:221
0.08045879751443863,0.017802570015192032,9.887598037719727,-0.0036654045757020556,0.0009062286610771233,0.004007171627417612,-103.43575541045867,62.31279991618037,0,0.3932530879974365,2019-08-06 15:26:18:225
0.030169056728482246,0.04893431439995766,9.739123344421387,0.0019285994937831485,-0.00255672619263854,0.0018761223466294901,-104.96301027824198,64.66042399205358,0,0.39659881591796875,2019-08-06 15:26:18:228
0.05411655455827713,0.008223570883274078,9.90196704864502,-0.0004688308170663259,-0.0009584393620846114,0.002941646856986388,-106.45731899699194,66.96634622651466,0,0.39972877502441406,2019-08-06 15:26:18:231
-0.034489184617996216,0.0393553152680397,9.820545196533203,0.002994124134177209,-0.003888631830584663,0.0013433600914510408,-100.7314175284203,69.22182696994025,0,0.40329861640930176,2019-08-06 15:26:18:235
0.06369554996490479,0.010618319734930992,9.837308883666992,-0.0007352119771648412,-0.004954156340941561,0.004806315010185286,-102.3084461280609,71.43629058375254,0,0.4066183567047119,2019-08-06 15:26:18:238
0.022984808310866356,-0.04446092247962952,9.916335105895996,6.393147468507523e-05,-0.004421394085763112,0.002408884601807939,-103.85884283435952,66.41269131596606,0,0.40975332260131836,2019-08-06 15:26:18:241
0.022984808310866356,0.04893431439995766,9.88520336151123,0.0024613618789987605,-0.0033558695754062136,0.0026752657293971638,-105.37834085458178,68.67828038472878,0,0.41325950622558594,2019-08-06 15:26:18:245
-0.010541687719523907,0.015407819300889969,9.866044998168945,0.002727743006587985,-0.003888631830584663,0.002941646856986388,-99.67126774379028,70.90241265089355,0,0.41660594940185547,2019-08-06 15:26:18:248
0.11159054934978485,0.05132906511425972,9.837308883666992,0.0016622183661939237,-0.003888631830584663,0.002408884601807939,-101.26415228436615,73.07808956462124,0,0.41977453231811523,2019-08-06 15:26:18:251
0.015800558030605316,-0.02530292607843876,9.868440628051758,-0.001534355424951096,-0.005220537468530785,0.006404601775720633,-102.83600035574429,68.0197698632463,0,0.42330241203308105,2019-08-06 15:26:18:255
0.05411655455827713,0.027381567284464836,9.86365032196045,0.0011294561110154748,-0.0022903450650493154,-0.0015868324420675922,-104.3725687911301,70.25598401904617,0,0.4266040325164795,2019-08-06 15:26:18:258
0.06609030067920685,-0.030092423781752586,9.854071617126465,0.0005966937908184444,-0.00255672619263854,0.0008105978362725917,-105.87698333419974,65.25425902452943,0,0.4297292232513428,2019-08-06 15:26:18:261
0.003826810047030449,0.01301306951791048,9.937888145446777,0.00033031263071992917,-0.003622250702995438,0.0010769789638618162,-107.35828443871145,67.54760786562477,0,0.4332592487335205,2019-08-06 15:26:18:265
0.022984808310866356,0.06090806424617767,9.770255088806152,0.0011294561110154748,-0.002023963937460091,0.0013433600914510408,-108.80804251225382,69.78929982554264,0,0.43660688400268555,2019-08-06 15:26:18:268
0.03974805399775505,0.02259206771850586,9.851676940917969,0.0011294561110154748,-0.0022903450650493154,0.002408884601807939,-110.22685503313443,71.99068712021449,0,0.4397428035736084,2019-08-06 15:26:18:271
0.05172180384397507,0.02259206771850586,9.851676940917969,0.0021949807514095357,-0.00255672619263854,0.0005442166761740764,-111.61579760149355,74.14781262222174,0,0.4432554244995117,2019-08-06 15:26:18:275
0.027774307876825333,0.03696056827902794,9.909151077270508,0.0005966937908184444,-0.003888631830584663,0.004007171627417612,-112.97953930229653,76.2604701016117,0,0.44660091400146484,2019-08-06 15:26:18:278
0.04693230614066124,0.0010393214179202914,9.880414009094238,0.002994124134177209,-0.0033558695754062136,0.002408884601807939,-114.31391599488765,78.33461427363503,0,0.44972896575927734,2019-08-06 15:26:18:281
0.056511301547288895,0.03217106685042381,9.818150520324707,0.0013958372386046994,-0.004421394085763112,-0.0010540701868891429,-115.62015417939102,80.36388687444229,0,0.4533054828643799,2019-08-06 15:26:18:285
0.042142804712057114,0.020197318866848946,9.86365032196045,0.0011294561110154748,-0.0012248205546924172,0.0010769789638618162,-116.90262666901148,82.35405200410739,0,0.45662784576416016,2019-08-06 15:26:18:288
0.020590057596564293,0.04653956741094589,9.99296760559082,0.004326029772123333,-0.008150730392160906,0.002941646856986388,-118.16077729368779,84.30087218478634,0,0.4597649574279785,2019-08-06 15:26:18:291
0.10680104792118073,0.02259206771850586,9.911545753479004,-0.00020244967322245603,-0.0033558695754062136,-0.00025492675535753324,-119.3845196869529,86.2122846978118,0,0.4634523391723633,2019-08-06 15:26:18:295
0.0014320602640509605,0.04653956741094589,9.808571815490723,0.00033031263071992917,-0.0009584393620846114,0.002941646856986388,-120.59649091557127,88.08254296332316,0,0.4666311740875244,2019-08-06 15:26:18:298
0.08764304965734482,0.010618319734930992,9.784624099731445,0.002727743006587985,0.0009062286610771233,0.0042735527550068365,-121.77445576313424,89.91917113145942,0,0.46974825859069824,2019-08-06 15:26:18:301
0.015800558030605316,0.05611856281757355,9.8229398727417,-0.004198166830880505,-0.004687775213352337,0.003474409372239163,-122.93619097297464,91.71507619478618,0,0.47329068183898926,2019-08-06 15:26:18:305
0.05172180384397507,0.024986818432807922,9.842098236083984,0.005391554542554556,-0.0014912016822816417,0.002941646856986388,-124.07116727442528,93.47686045987817,0,0.4766104221343994,2019-08-06 15:26:18:308
0.03495855629444122,0.0010393214179202914,9.858860969543457,0.000863074918407669,-0.0022903450650493154,0.004806315010185286,-125.18527943908077,95.20705126241694,0,0.47973012924194336,2019-08-06 15:26:18:311
0.05411655455827713,-0.001355428365059197,9.779834747314453,0.0016622183661939237,-0.003622250702995438,0.0002778355485848519,-126.27450665295832,89.70273573570464,0,0.48330140113830566,2019-08-06 15:26:18:315
0.030169056728482246,0.03217106685042381,9.937888145446777,0.0024613618789987605,-0.005220537468530785,0.0013433600914510408,-127.34456733641193,91.50451390736471,0,0.48661208152770996,2019-08-06 15:26:18:318
0.05411655455827713,0.08246081322431564,9.837308883666992,-0.0007352119771648412,-0.0033558695754062136,0.002408884601807939,-128.3907822317716,93.26494751717273,0,0.4897429943084717,2019-08-06 15:26:18:321
0.06369554996490479,0.005828820634633303,9.820545196533203,0.0024613618789987605,-0.003622250702995438,-0.0007876890592999184,-129.4148159375304,94.99848026364025,0,0.49327516555786133,2019-08-06 15:26:18:325
0.08285354822874069,0.027381567284464836,9.791808128356934,0.0016622183661939237,-0.003622250702995438,0.0016097412190402653,-130.41614652830455,96.69499552450178,0,0.49660444259643555,2019-08-06 15:26:18:328
0.02537955716252327,0.027381567284464836,9.9139404296875,0.000863074918407669,-0.005753299723709235,0.0008105978362725917,-131.40387979863658,98.35777913275105,0,0.49973177909851074,2019-08-06 15:26:18:331
0.003826810047030449,0.02259206771850586,9.83491325378418,0.0013958372386046994,-0.004155012958173888,1.1454389502251989e-05,-132.37452263111794,99.98771116797452,0,0.503305196762085,2019-08-06 15:26:18:335
0.020590057596564293,-0.00853967759758234,9.818150520324707,-0.0020671176801295454,-0.004155012958173888,-0.0018532135696568165,-133.32385330363465,94.38933956993827,0,0.5066301822662354,2019-08-06 15:26:18:338
0.015800558030605316,0.03217106685042381,9.92591381072998,-0.001534355424951096,-0.0028231073202277645,0.0018761223466294901,-134.25505547094912,96.09810866791828,0,0.509763240814209,2019-08-06 15:26:18:341
0.037353307008743286,0.06330281496047974,9.770255088806152,0.0021949807514095357,-0.005753299723709235,0.0013433600914510408,-135.1644110424128,97.7682786123574,0,0.5133612155914307,2019-08-06 15:26:18:345
0.06609030067920685,0.01301306951791048,9.933098793029785,0.000863074918407669,-0.00255672619263854,0.0016097412190402653,-136.05303208527678,99.41125434992479,0,0.5166103839874268,2019-08-06 15:26:18:348
0.05890605226159096,0.020197318866848946,9.866044998168945,0.003260505261766434,-0.0054869185961200105,0.0016097412190402653,-136.92416462310277,101.0201098964612,0,0.5197429656982422,2019-08-06 15:26:18:351
0.0756693035364151,0.0010393214179202914,9.861255645751953,-0.0018007365525403206,-0.004155012958173888,0.0008105978362725917,-137.77606203717173,102.59994507966036,0,0.5232851505279541,2019-08-06 15:26:18:355
0.013405809178948402,0.034565817564725876,9.906756401062012,-0.001534355424951096,-0.0030894884478169893,0.00507269613777451,-138.61841355304787,104.14423432000847,0,0.526608943939209,2019-08-06 15:26:18:358
0.027774307876825333,-0.037276674062013626,9.808571815490723,-0.00020244967322245603,-0.0017575828098708665,0.0013433600914510408,-139.44249127909856,98.4657401861263,0,0.5297420024871826,2019-08-06 15:26:18:361
0.037353307008743286,0.024986818432807922,9.861255645751953,-0.0018007365525403206,-0.004421394085763112,1.1454389502251989e-05,-140.2484296010811,100.09387667645133,0,0.5332515239715576,2019-08-06 15:26:18:365
-0.010541687719523907,0.06809231638908386,9.743913650512695,0.002994124134177209,-0.0030894884478169893,0.0008105978362725917,-133.8441195611361,101.68342815359725,0,0.5366017818450928,2019-08-06 15:26:18:368
0.1020115464925766,-0.013329177163541317,9.86365032196045,0.002727743006587985,-0.0033558695754062136,-0.0010540701868891429,-134.75479673524956,96.05082886888947,0,0.5397307872772217,2019-08-06 15:26:18:371
0.08045879751443863,0.0393553152680397,9.842098236083984,0.003260505261766434,-0.004421394085763112,0.0008105978362725917,-135.64944735376153,97.72457692615902,0,0.5432989597320557,2019-08-06 15:26:18:375
0.02537955716252327,0.003434071084484458,9.801386833190918,-0.0007352119771648412,0.0006398475334878987,0.0008105978362725917,-136.5336107153665,99.36982122910226,0,0.5466256141662598,2019-08-06 15:26:18:378
0.06369554996490479,0.04893431439995766,9.837308883666992,-0.00020244967322245603,-0.0014912016822816417,0.0018761223466294901,-137.39525618803447,100.97676032434019,0,0.5497634410858154,2019-08-06 15:26:18:381
0.07327455282211304,0.01301306951791048,9.849282264709473,0.0005966937908184444,-0.004687775213352337,0.003208027984575613,-138.2378972979136,102.5555928890278,0,0.5532920360565186,2019-08-06 15:26:18:385
-0.000962689402513206,-0.001355428365059197,9.961835861206055,0.0005966937908184444,-0.0014912016822816417,0.0037407904998283874,-131.87297196653915,96.90452565753793,0,0.5566136837005615,2019-08-06 15:26:18:388
0.06848505139350891,0.08964505791664124,9.870835304260254,0.0024613618789987605,-0.004687775213352337,0.002408884601807939,-132.82673797839138,98.55559570082455,0,0.5597448348999023,2019-08-06 15:26:18:391
0.037353307008743286,0.05132906511425972,9.8229398727417,6.393147468507523e-05,-0.002023963937460091,0.002408884601807939,-133.76544708783388,100.17848335045373,0,0.5632524490356445,2019-08-06 15:26:18:395
0.03974805399775505,-0.020513426512479782,9.842098236083984,0.00033031263071992917,-0.0017575828098708665,0.003474409372239163,-134.6851793686901,94.57723986367891,0,0.566605806350708,2019-08-06 15:26:18:398
0.042142804712057114,0.0656975656747818,9.83491325378418,0.000863074918407669,-0.0022903450650493154,0.004007171627417612,-135.5861631414759,96.27788878748497,0,0.5697348117828369,2019-08-06 15:26:18:401
0.03974805399775505,-0.020513426512479782,9.813361167907715,0.0011294561110154748,-0.006019680851298459,0.002408884601807939,-136.46860016447306,90.75450154302479,0,0.5732800960540771,2019-08-06 15:26:18:405
0.04693230614066124,0.003434071084484458,10.007335662841797,0.0013958372386046994,-0.0022903450650493154,-0.0023859759548724283,-137.33342594315218,92.53875734942491,0,0.5766093730926514,2019-08-06 15:26:18:408
0.01819530874490738,0.005828820634633303,9.928308486938477,-0.0010015931047540657,-0.003888631830584663,0.0005442166761740764,-138.183971845194,94.2874860088759,0,0.5797488689422607,2019-08-06 15:26:18:411
0.06369554996490479,0.0393553152680397,9.96423053741455,-0.0012679742973618717,-0.00255672619263854,0.0010769789638618162,-139.0124604271766,95.99746172978213,0,0.5832798480987549,2019-08-06 15:26:18:415
0.04693230614066124,0.03217106685042381,9.897176742553711,0.0005966937908184444,-0.0033558695754062136,0.005339077265363735,-139.82615134660523,97.6736763702839,0,0.586601972579956,2019-08-06 15:26:18:418
0.07327455282211304,-0.01811867579817772,9.897176742553711,0.000863074918407669,-0.004421394085763112,0.0008105978362725917,-140.6203673720878,92.12214894098895,0,0.5897326469421387,2019-08-06 15:26:18:421
0.037353307008743286,0.041750065982341766,9.789413452148438,0.002994124134177209,-0.00255672619263854,0.0008105978362725917,-141.40307456077977,93.87421806859197,0,0.593306303024292,2019-08-06 15:26:18:425
-0.000962689402513206,0.03217106685042381,9.76546573638916,0.000863074918407669,-0.004155012958173888,0.0018761223466294901,-134.97435019336015,95.59279749279618,0,0.5966317653656006,2019-08-06 15:26:18:428
0.01819530874490738,-0.001355428365059197,9.84449291229248,0.0005966937908184444,-0.00042567707439687154,0.0016097412190402653,-135.87267018793847,90.08099413055581,0,0.59977126121521,2019-08-06 15:26:18:431
0.003826810047030449,0.04414481669664383,9.856466293334961,0.0016622183661939237,-0.003622250702995438,0.0026752657293971638,-136.75405294039416,91.87391207914713,0,0.6033060550689697,2019-08-06 15:26:18:435
0.027774307876825333,0.003434071084484458,9.868440628051758,0.0037932675169448835,-0.004954156340941561,0.003474409372239163,-137.61482295819644,93.63532774571678,0,0.6066269874572754,2019-08-06 15:26:18:438
0.013405809178948402,0.0297763179987669,9.83491325378418,0.0011294561110154748,-0.0017575828098708665,0.0037407904998283874,-138.46065636111192,95.35895378212993,0,0.6097495555877686,2019-08-06 15:26:18:441
0.003826810047030449,0.034565817564725876,9.894782066345215,0.003260505261766434,-0.007085205881804008,0.0021425034742187147,-139.28959872407827,97.04712678291695,0,0.613271951675415,2019-08-06 15:26:18:445
-0.0033574390690773726,0.034565817564725876,9.854071617126465,0.0021949807514095357,-0.002023963937460091,0.0016097412190402653,-132.90381887876885,98.70175438778928,0,0.616600751876831,2019-08-06 15:26:18:448
0.09243255108594894,0.005828820634633303,9.83491325378418,0.00033031263071992917,-0.0009584393620846114,0.003208027984575613,-133.83480496272853,100.32698223153425,0,0.6197237968444824,2019-08-06 15:26:18:451
0.006221559830009937,0.04893431439995766,9.84449291229248,-0.0004688308170663259,-0.0054869185961200105,0.0008105978362725917,-134.75629753962485,101.91483948653908,0,0.6232523918151855,2019-08-06 15:26:18:455
-0.027304936200380325,0.03217106685042381,9.818150520324707,0.0016622183661939237,-0.0033558695754062136,0.0042735527550068365,-128.46372630075282,103.47247478291052,0,0.6266071796417236,2019-08-06 15:26:18:458
0.05411655455827713,0.03217106685042381,9.923519134521484,0.0024613618789987605,-0.005220537468530785,0.0002778355485848519,-129.48728413186615,104.99887725171034,0,0.6297409534454346,2019-08-06 15:26:18:461
0.08045879751443863,0.0297763179987669,9.892387390136719,6.393147468507523e-05,-0.004954156340941561,0.0016097412190402653,-130.48724372218368,106.4954379056997,0,0.6332449913024902,2019-08-06 15:26:18:465
0.02537955716252327,-0.013329177163541317,9.861255645751953,0.004059648644534107,-0.003888631830584663,0.0021425034742187147,-131.4738167312608,100.76631289360039,0,0.6366016864776611,2019-08-06 15:26:18:468
-0.000962689402513206,-0.037276674062013626,9.837308883666992,-0.00020244967322245603,-0.003888631830584663,0.0026752657293971638,-125.2437694349731,95.15536441508853,0,0.6397302150726318,2019-08-06 15:26:18:471
-0.008146938867866993,0.03217106685042381,9.878019332885742,0.0019285994937831485,-0.004954156340941561,0.00507269613777451,-119.13895022926191,96.848179038169,0,0.6429257392883301,2019-08-06 15:26:18:474
0.037353307008743286,0.041750065982341766,9.787018775939941,-0.0004688308170663259,-0.0017575828098708665,0.0016097412190402653,-120.35142570644446,98.50642640479748,0,0.6466953754425049,2019-08-06 15:26:18:478
0.049327053129673004,-0.042066171765327454,9.791808128356934,0.0016622183661939237,-0.0014912016822816417,0.0005442166761740764,-121.5383615633208,92.9409275681635,0,0.6498367786407471,2019-08-06 15:26:18:481
0.020590057596564293,0.04414481669664383,9.846887588500977,0.0019285994937831485,-0.003622250702995438,0.002408884601807939,-122.70451374076498,94.67660734169509,0,0.6532020568847656,2019-08-06 15:26:18:485
-0.048857681453228,-0.006144927814602852,9.945072174072266,0.000863074918407669,-0.002023963937460091,0.0021425034742187147,-116.65566455753925,89.18361758919143,0,0.6566202640533447,2019-08-06 15:26:18:488
0.008616309612989426,0.0656975656747818,9.899572372436523,0.0005966937908184444,-0.004155012958173888,0.00507269613777451,-117.92082299628503,90.99223562691157,0,0.6597530841827393,2019-08-06 15:26:18:491
0.006221559830009937,0.034565817564725876,9.945072174072266,0.002994124134177209,-0.003622250702995438,-0.0005213078992014032,-119.16104690323466,92.76787680448923,0,0.6629133224487305,2019-08-06 15:26:18:494
0.05411655455827713,0.06090806424617767,9.899572372436523,0.0013958372386046994,-0.003888631830584663,0.0037407904998283874,-120.37073696173431,94.50517291767167,0,0.6666910648345947,2019-08-06 15:26:18:498
0.07806405425071716,0.05132906511425972,9.84449291229248,-0.0007352119771648412,-0.005220537468530785,0.0013433600914510408,-121.55331743376229,96.20922403320927,0,0.669823408126831,2019-08-06 15:26:18:501
0.013405809178948402,0.015407819300889969,9.849282264709473,0.004059648644534107,-0.003888631830584663,0.006404601775720633,-122.71996590883127,97.88248954723453,0,0.6731460094451904,2019-08-06 15:26:18:505
0.08285354822874069,0.027381567284464836,9.83491325378418,6.393147468507523e-05,-0.004421394085763112,0.003474409372239163,-123.85504481550585,99.5216368438593,0,0.6766436100006104,2019-08-06 15:26:18:508
-0.005752188619226217,0.05132906511425972,9.842098236083984,-0.0004688308170663259,-0.0009584393620846114,0.00507269613777451,-117.77844537066514,101.12531023154263,0,0.6797704696655273,2019-08-06 15:26:18:511
0.006221559830009937,-0.006144927814602852,9.882808685302734,0.0021949807514095357,-0.00015929593055300162,0.004806315010185286,-119.02212481906044,95.50309968395685,0,0.6831526756286621,2019-08-06 15:26:18:515
0.049327053129673004,0.06090806424617767,9.899572372436523,6.393147468507523e-05,-0.0033558695754062136,-0.00025492675535753324,-120.23531260673283,97.18597485154896,0,0.6866550445556641,2019-08-06 15:26:18:518
0.020590057596564293,0.05851331353187561,9.973809242248535,6.393147468507523e-05,-0.004954156340941561,0.0042735527550068365,-121.42736964041414,98.83552145157384,0,0.689786434173584,2019-08-06 15:26:18:521
0.06848505139350891,-0.027697674930095673,9.866044998168945,0.002727743006587985,-0.004155012958173888,1.1454389502251989e-05,-122.59013945247746,93.26154973080267,0,0.6929092407226562,2019-08-06 15:26:18:524
0.0756693035364151,-0.03967142477631569,9.837308883666992,0.0016622183661939237,0.0003734663733893835,0.0069373640308990825,-123.72960150984444,87.8005876709984,0,0.6966831684112549,2019-08-06 15:26:18:528
0.08764304965734482,0.05611856281757355,9.88520336151123,0.000863074918407669,-0.005220537468530785,0.0016097412190402653,-124.84390549174192,89.63791445160079,0,0.6999051570892334,2019-08-06 15:26:18:531
0.030169056728482246,-0.020513426512479782,9.827729225158691,-0.00393178570329128,-0.0017575828098708665,0.004007171627417612,-125.94318123152402,84.24828276831614,0,0.7032332420349121,2019-08-06 15:26:18:535
0.07087980210781097,0.008223570883274078,9.96423053741455,0.0016622183661939237,-0.00042567707439687154,0.005339077265363735,-127.01608538871493,86.16205519414659,0,0.7066209316253662,2019-08-06 15:26:18:538
0.003826810047030449,0.08964505791664124,9.952256202697754,0.0005966937908184444,-0.004687775213352337,0.0026752657293971638,-128.07450095290747,88.02838787869484,0,0.7097442150115967,2019-08-06 15:26:18:541
0.07087980210781097,0.05372381582856178,9.880414009094238,0.0016622183661939237,-0.0033558695754062136,0.004806315010185286,-129.1041939747457,89.8612938853486,0,0.7129101753234863,2019-08-06 15:26:18:544
0.04693230614066124,0.017802570015192032,9.866044998168945,0.000863074918407669,-0.0030894884478169893,0.0018761223466294901,-130.11600509392002,91.6618175935324,0,0.7166800498962402,2019-08-06 15:26:18:548
0.02537955716252327,0.06330281496047974,9.9139404296875,0.0013958372386046994,-0.0054869185961200105,0.0005442166761740764,-131.10978503116496,93.42101854779237,0,0.7198169231414795,2019-08-06 15:26:18:551
-0.008146938867866993,-0.037276674062013626,9.856466293334961,-0.0007352119771648412,-0.0017575828098708665,0.0026752657293971638,-124.88820803007411,87.9570693529819,0,0.7231452465057373,2019-08-06 15:26:18:555
0.04453755542635918,0.03217106685042381,9.743913650512695,-0.0010015931047540657,-0.002023963937460091,0.003208027984575613,-125.98480838934373,89.7943413954676,0,0.7266452312469482,2019-08-06 15:26:18:558
0.05411655455827713,0.06090806424617767,9.923519134521484,-0.0010015931047540657,-0.003622250702995438,0.0037407904998283874,-127.05822620271256,91.59159744826023,0,0.7297770977020264,2019-08-06 15:26:18:561
0.013405809178948402,0.03696056827902794,9.796597480773926,0.0021949807514095357,-0.0012248205546924172,0.0026752657293971638,-128.115261362722,93.35502603968985,0,0.7331538200378418,2019-08-06 15:26:18:565
0.05890605226159096,0.02259206771850586,9.90196704864502,0.0011294561110154748,-0.0054869185961200105,0.007470126286077531,-129.14506204324923,95.08508929449212,0,0.7366502285003662,2019-08-06 15:26:18:568
0.08524829894304276,0.04414481669664383,9.842098236083984,0.000863074918407669,-0.0014912016822816417,0.0018761223466294901,-130.15197277781746,96.77809565150685,0,0.7397890090942383,2019-08-06 15:26:18:571
0.04453755542635918,0.024986818432807922,9.861255645751953,-0.004198166830880505,-0.006286061978887684,0.003474409372239163,-131.14265796487078,98.44036479170686,0,0.7429053783416748,2019-08-06 15:26:18:574
0.04693230614066124,0.04893431439995766,9.830123901367188,0.005924316797733005,-0.0012248205546924172,0.0021425034742187147,-132.1140732336139,100.0645925502053,0,0.7466950416564941,2019-08-06 15:26:18:578
0.03495855629444122,-0.022908175364136696,9.842098236083984,6.393147468507523e-05,-0.0017575828098708665,0.0021425034742187147,-133.06741335384717,94.46595668252718,0,0.7498180866241455,2019-08-06 15:26:18:581
0.05172180384397507,0.03696056827902794,9.854071617126465,0.0016622183661939237,-0.00015929593055300162,0.0010769789638618162,-134.0000206891465,96.17202852349794,0,0.7531497478485107,2019-08-06 15:26:18:585
-0.000962689402513206,0.02259206771850586,9.909151077270508,-0.0004688308170663259,-0.004687775213352337,0.004007171627417612,-127.71921266603982,97.84606726627301,0,0.7566409111022949,2019-08-06 15:26:18:588
0.05411655455827713,0.003434071084484458,9.815755844116211,0.005125173414965331,-0.004421394085763112,0.0008105978362725917,-128.75773325715247,99.48784373741402,0,0.759772777557373,2019-08-06 15:26:18:591
0.02537955716252327,0.020197318866848946,9.930704116821289,-0.0004688308170663259,-0.0054869185961200105,0.004806315010185286,-129.7786830689114,101.09583889502983,0,0.762911319732666,2019-08-06 15:26:18:594
0.056511301547288895,0.008223570883274078,9.808571815490723,-0.002333498937755932,-0.004421394085763112,0.003474409372239163,-130.77557004744472,102.67345607420744,0,0.7666869163513184,2019-08-06 15:26:18:598
0.037353307008743286,0.003434071084484458,9.947466850280762,0.0013958372386046994,-0.006286061978887684,0.0018761223466294901,-131.75464613629765,104.21934497998419,0,0.7698304653167725,2019-08-06 15:26:18:601
0.08524829894304276,0.01301306951791048,9.79420280456543,-0.003132642320523606,-0.0022903450650493154,0.005871839520542184,-132.70915125299544,105.73402125548454,0,0.7731602191925049,2019-08-06 15:26:18:605
0.06130080297589302,-0.010934427380561829,9.897176742553711,0.0011294561110154748,-0.002023963937460091,0.003208027984575613,-133.64747476223218,100.02038584331147,0,0.7766449451446533,2019-08-06 15:26:18:608
0.042142804712057114,-0.022908175364136696,9.801386833190918,0.00033031263071992917,-0.006286061978887684,0.004806315010185286,-134.5684933061596,94.42259833899394,0,0.7797753810882568,2019-08-06 15:26:18:611
0.006221559830009937,-0.015723926946520805,9.930704116821289,0.00033031263071992917,-0.006818824754214785,0.0016097412190402653,-135.47510964843212,88.93589799903718,0,0.7831599712371826,2019-08-06 15:26:18:615
0.07087980210781097,0.024986818432807922,9.92591381072998,-0.002333498937755932,-0.004421394085763112,0.0016097412190402653,-136.3565571374976,90.75475329591086,0,0.7866547107696533,2019-08-06 15:26:18:618
0.07327455282211304,-0.001355428365059197,9.875624656677246,-0.001534355424951096,-0.005753299723709235,0.0002778355485848519,-137.21990939795984,85.34008602750714,0,0.7897946834564209,2019-08-06 15:26:18:621
-0.017725937068462372,0.05132906511425972,9.88520336151123,0.00033031263071992917,-0.002023963937460091,0.0021425034742187147,-130.87714254212932,87.22726506162584,0,0.7935211658477783,2019-08-06 15:26:18:625
0.06609030067920685,0.017802570015192032,9.945072174072266,0.002727743006587985,-0.003888631830584663,0.0018761223466294901,-131.85129310058176,89.08018341889074,0,0.7966880798339844,2019-08-06 15:26:18:628
0.06369554996490479,-0.030092423781752586,9.827729225158691,0.0021949807514095357,-0.004421394085763112,0.006138220648131409,-132.80606343954636,83.70170279198429,0,0.7998178005218506,2019-08-06 15:26:18:631
0.08045879751443863,0.003434071084484458,9.870835304260254,0.0021949807514095357,-0.004954156340941561,0.0013433600914510408,-133.73967577569343,85.62685977433749,0,0.8031468391418457,2019-08-06 15:26:18:635
0.04453755542635918,0.008223570883274078,9.928308486938477,-0.00020244967322245603,-0.00015929593055300162,0.0018761223466294901,-134.65971049351634,87.51341322773705,0,0.8066484928131104,2019-08-06 15:26:18:638
-0.000962689402513206,0.0393553152680397,9.854071617126465,6.393147468507523e-05,-0.006552443626625559,0.006404601775720633,-128.36547446956777,89.35855715825856,0,0.8097844123840332,2019-08-06 15:26:18:641
-0.005752188619226217,0.041750065982341766,9.978598594665527,0.003260505261766434,-0.003622250702995438,0.0016097412190402653,-122.19819078986328,91.16602021245393,0,0.8129053115844727,2019-08-06 15:26:18:644
0.056511301547288895,-0.013329177163541317,9.866044998168945,-0.0020671176801295454,-0.003888631830584663,0.0042735527550068365,-123.34683870511353,85.74468635009738,0,0.8166823387145996,2019-08-06 15:26:18:648
0.09961679577827454,0.04653956741094589,9.880414009094238,0.002727743006587985,-0.0033558695754062136,0.002941646856986388,-124.46775733568334,87.62391422110724,0,0.819821834564209,2019-08-06 15:26:18:651
0.027774307876825333,0.08725030720233917,9.887598037719727,0.002994124134177209,-0.0054869185961200105,0.0018761223466294901,-125.57415833379969,89.46076507559907,0,0.8231487274169922,2019-08-06 15:26:18:655
0.022984808310866356,0.0297763179987669,9.830123901367188,-0.0012679742973618717,-0.0054869185961200105,-0.0015868324420675922,-126.65891990533373,91.26832733144497,0,0.8266408443450928,2019-08-06 15:26:18:658
0.020590057596564293,0.03696056827902794,9.830123901367188,-0.00020244967322245603,-0.0014912016822816417,0.0026752657293971638,-127.7230790762903,93.03868784266871,0,0.8297724723815918,2019-08-06 15:26:18:661
0.07327455282211304,-0.0037501780316233635,9.894782066345215,0.0016622183661939237,-0.0033558695754062136,0.003208027984575613,-128.75949354927295,87.57803229888752,0,0.8331592082977295,2019-08-06 15:26:18:665
0.042142804712057114,0.041750065982341766,9.892387390136719,-0.0012679742973618717,-0.005753299723709235,0.003474409372239163,-129.77829438566843,89.42188394030765,0,0.8366496562957764,2019-08-06 15:26:18:668
0.10440629720687866,0.05372381582856178,9.827729225158691,-0.00020244967322245603,-0.0006920582344953867,0.004539933882596061,-130.77043336278643,91.22721774271955,0,0.8397839069366455,2019-08-06 15:26:18:671
0.05172180384397507,0.0010393214179202914,9.897176742553711,0.0035268863893556587,-0.006286061978887684,0.0016097412190402653,-131.7478501619488,93.00188755722918,0,0.843144416809082,2019-08-06 15:26:18:675
0.003826810047030449,0.027381567284464836,9.79420280456543,-0.002333498937755932,-0.004155012958173888,0.0002778355485848519,-132.71162919971576,94.73910458855265,0,0.8466429710388184,2019-08-06 15:26:18:678
0.06369554996490479,0.017802570015192032,9.796597480773926,0.0005966937908184444,0.0011726098536849292,0.0013433600914510408,-133.65015230102446,96.44213524368007,0,0.8497731685638428,2019-08-06 15:26:18:681
0.011011059395968914,0.010618319734930992,9.851676940917969,0.0011294561110154748,-0.004954156340941561,0.002941646856986388,-134.57499601657165,98.11185854373545,0,0.8529095649719238,2019-08-06 15:26:18:684
0.011011059395968914,0.041750065982341766,9.894782066345215,-0.0012679742973618717,-0.00255672619263854,0.002941646856986388,-135.48167881254452,99.74505516623499,0,0.8566856384277344,2019-08-06 15:26:18:688
0.01819530874490738,0.027381567284464836,9.837308883666992,0.0005966937908184444,-0.0033558695754062136,0.0021425034742187147,-136.3693340122819,101.34685927239946,0,0.859825849533081,2019-08-06 15:26:18:691
0.0756693035364151,0.04414481669664383,9.777440071105957,0.004059648644534107,-0.003622250702995438,1.1454389502251989e-05,-137.23240319254342,102.91399085992435,0,0.8631489276885986,2019-08-06 15:26:18:695
0.05411655455827713,0.015407819300889969,9.866044998168945,0.005125173414965331,-0.002023963937460091,0.006404601775720633,-138.08107478216195,104.45292145219075,0,0.8666238784790039,2019-08-06 15:26:18:698
-0.012936437502503395,0.0393553152680397,9.832518577575684,-0.0010015931047540657,-0.0033558695754062136,0.0010769789638618162,-131.7203714289329,105.95945238992073,0,0.8697524070739746,2019-08-06 15:26:18:701
0.020590057596564293,0.05372381582856178,9.813361167907715,0.00033031263071992917,-0.0033558695754062136,0.007203745158488308,-132.68296446385762,107.43393143688546,0,0.8729112148284912,2019-08-06 15:26:18:704
0.011011059395968914,0.08964505791664124,9.952256202697754,0.00033031263071992917,-0.005220537468530785,0.004539933882596061,-133.62692857082962,108.87486108566284,0,0.8766937255859375,2019-08-06 15:26:18:708
0.05172180384397507,0.06090806424617767,9.892387390136719,0.0016622183661939237,-0.005753299723709235,0.0021425034742187147,-134.54738441559007,110.29001543537714,0,0.879833459854126,2019-08-06 15:26:18:711
-0.020120687782764435,0.024986818432807922,9.787018775939941,0.0011294561110154748,-0.004421394085763112,0.0026752657293971638,-128.25796360446418,111.68107778630825,0,0.8831725120544434,2019-08-06 15:26:18:715
0.05890605226159096,0.05132906511425972,9.803781509399414,0.0011294561110154748,-0.0014912016822816417,-0.0039842627204077765,-129.2856249435374,113.04123382759445,0,0.8866865634918213,2019-08-06 15:26:18:718
0.02537955716252327,0.02259206771850586,9.851676940917969,0.00033031263071992917,-0.0014912016822816417,0.0016097412190402653,-130.29670042436805,114.37772373584943,0,0.8897912502288818,2019-08-06 15:26:18:721
0.06609030067920685,-0.015723926946520805,9.789413452148438,0.00033031263071992917,-0.0030894884478169893,0.003208027984575613,-131.28249156035767,108.49195225769672,0,0.8928964138031006,2019-08-06 15:26:18:724
0.042142804712057114,0.003434071084484458,9.787018775939941,0.0024613618789987605,-0.004954156340941561,0.005339077265363735,-132.2508671295649,109.92119426923225,0,0.8966362476348877,2019-08-06 15:26:18:728
-0.010541687719523907,0.05611856281757355,9.842098236083984,0.0011294561110154748,-0.005753299723709235,0.004806315010185286,-126.00606649353828,111.31603816230712,0,0.8997647762298584,2019-08-06 15:26:18:731
0.01819530874490738,0.0010393214179202914,9.78222942352295,-0.0018007365525403206,-0.00255672619263854,-0.0018532135696568165,-127.0833639051471,112.6899124614111,0,0.9028980731964111,2019-08-06 15:26:18:734
-0.008146938867866993,-0.020513426512479782,9.899572372436523,-0.0004688308170663259,-0.004155012958173888,0.003474409372239163,-120.9417681532317,106.83858705832564,0,0.9066336154937744,2019-08-06 15:26:18:738
0.08764304965734482,0.01301306951791048,9.904361724853516,0.0013958372386046994,-0.0028231073202277645,0.0016097412190402653,-122.11229593918083,108.30006400593035,0,0.90976881980896,2019-08-06 15:26:18:741
0.013405809178948402,0.015407819300889969,9.87322998046875,-0.0010015931047540657,-0.0014912016822816417,0.0005442166761740764,-123.2682318508599,109.73245059868746,0,0.9129009246826172,2019-08-06 15:26:18:744
-0.012936437502503395,0.024986818432807922,9.75349235534668,0.0024613618789987605,-0.00255672619263854,0.003474409372239163,-117.20385094861402,111.13434980945577,0,0.9166355133056641,2019-08-06 15:26:18:748
0.08285354822874069,0.0010393214179202914,9.882808685302734,0.0016622183661939237,-0.005220537468530785,0.0002778355485848519,-118.44925038925263,112.51125037428568,0,0.9197633266448975,2019-08-06 15:26:18:751
0.04453755542635918,-0.006144927814602852,9.8229398727417,0.000863074918407669,-0.0022903450650493154,0.0021425034742187147,-119.67466601753907,106.66159005975409,0,0.9229030609130859,2019-08-06 15:26:18:754
0.03256380558013916,0.08246081322431564,9.854071617126465,0.0024613618789987605,-0.0033558695754062136,0.0016097412190402653,-120.87668148020788,108.1182525683664,0,0.9266414642333984,2019-08-06 15:26:18:758
0.022984808310866356,0.09922406077384949,9.851676940917969,0.0011294561110154748,-0.003888631830584663,0.0037407904998283874,-122.05579034882736,109.54414781686395,0,0.9297740459442139,2019-08-06 15:26:18:761
0.08764304965734482,0.06330281496047974,9.909151077270508,-0.004730929346133278,-0.0054869185961200105,0.002941646856986388,-123.20351900067291,110.94682444538263,0,0.933086633682251,2019-08-06 15:26:18:765
0.03974805399775505,-0.013329177163541317,9.90196704864502,-0.0004688308170663259,-0.0009584393620846114,0.0016097412190402653,-124.33465257705404,105.12952645354767,0,0.9367320537567139,2019-08-06 15:26:18:768
0.037353307008743286,0.020197318866848946,9.803781509399414,0.000863074918407669,-0.0030894884478169893,0.0018761223466294901,-125.44304933604181,106.62442314528256,0,0.9398689270019531,2019-08-06 15:26:18:771
0.006221559830009937,0.04893431439995766,9.889992713928223,-0.001534355424951096,-0.0028231073202277645,0.0010769789638618162,-126.53298478354107,108.08652724252902,0,0.9429140090942383,2019-08-06 15:26:18:774
-0.008146938867866993,0.0010393214179202914,9.88520336151123,0.000863074918407669,-0.003622250702995438,0.0016097412190402653,-120.40251545385442,109.52449655039912,0,0.9466214179992676,2019-08-06 15:26:18:778
0.05411655455827713,0.020197318866848946,9.90196704864502,-0.00020244967322245603,-0.006286061978887684,1.1454389502251989e-05,-121.5871006177712,110.93170475431437,0,0.9497432708740234,2019-08-06 15:26:18:781
-0.02251543663442135,0.005828820634633303,9.904361724853516,0.002727743006587985,-0.0028231073202277645,0.003474409372239163,-115.55746237728175,112.31191199068587,0,0.9529051780700684,2019-08-06 15:26:18:784
0.037353307008743286,0.05132906511425972,9.880414009094238,0.0011294561110154748,-0.002023963937460091,0.0013433600914510408,-116.84155698495971,113.65948413524671,0,0.9566359519958496,2019-08-06 15:26:18:788
0.1355380415916443,0.0297763179987669,9.897176742553711,-0.0007352119771648412,-0.004421394085763112,0.0002778355485848519,-118.08825495240087,114.98297643520485,0,0.9597737789154053,2019-08-06 15:26:18:791
0.027774307876825333,0.005828820634633303,9.846887588500977,-0.0004688308170663259,-0.004155012958173888,0.003474409372239163,-119.32252983352895,116.28272071264564,0,0.9628934860229492,2019-08-06 15:26:18:794
0.07327455282211304,0.034565817564725876,9.856466293334961,-0.002333498937755932,-0.00255672619263854,0.0010769789638618162,-120.52702454178717,117.55353682249087,0,0.9666266441345215,2019-08-06 15:26:18:798
-0.012936437502503395,0.0656975656747818,9.916335105895996,0.0005966937908184444,0.0003734663733893835,0.002941646856986388,-114.51804453434107,118.7947695298891,0,0.9697535037994385,2019-08-06 15:26:18:801
0.030169056728482246,0.03217106685042381,9.839703559875488,0.00033031263071992917,-0.0030894884478169893,0.002408884601807939,-115.82364710117633,120.01507163460045,0,0.972769021987915,2019-08-06 15:26:18:804
-0.024910185486078262,0.017802570015192032,9.935493469238281,0.0019285994937831485,0.00010708522141819095,0.0021425034742187147,-109.91007052726627,121.21229650662218,0,0.9766514301300049,2019-08-06 15:26:18:808
0.09003780037164688,0.0393553152680397,9.933098793029785,-0.0018007365525403206,-0.003622250702995438,0.002941646856986388,-111.3008216393093,122.38383889379816,0,0.9798998832702637,2019-08-06 15:26:18:811
0.06609030067920685,0.06090806424617767,9.84449291229248,0.003260505261766434,-0.0012248205546924172,0.00507269613777451,-112.66690276379646,123.52851461509304,0,0.9829466342926025,2019-08-06 15:26:18:815
0.049327053129673004,0.003434071084484458,9.808571815490723,0.0016622183661939237,-0.00255672619263854,0.0016097412190402653,-114.00727699854397,124.65720181990564,0,0.9866034984588623,2019-08-06 15:26:18:818
0.042142804712057114,-0.04685567319393158,9.842098236083984,0.004059648644534107,-0.002023963937460091,0.005871839520542184,-115.3218687440333,118.56879897208165,0,0.9897365570068359,2019-08-06 15:26:18:821
0.1211695447564125,-0.01811867579817772,9.830123901367188,0.0016622183661939237,-0.0014912016822816417,0.0021425034742187147,-116.60105791044013,112.59925731857425,0,0.9927129745483398,2019-08-06 15:26:18:824
0.06369554996490479,0.07288181036710739,9.830123901367188,-0.00020244967322245603,-0.005220537468530785,0.002941646856986388,-117.86046816789458,113.9388207088987,0,0.9966142177581787,2019-08-06 15:26:18:828
0.03256380558013916,0.09443455934524536,9.854071617126465,0.0024613618789987605,-0.005753299723709235,0.003208027984575613,-119.09845797028592,115.24862914541627,0,0.9997532367706299,2019-08-06 15:26:18:831
0.05890605226159096,0.03696056827902794,9.837308883666992,6.393147468507523e-05,-0.003888631830584663,0.0021425034742187147,-120.30897421294696,116.53934043414176,0,1.0027434825897217,2019-08-06 15:26:18:834
0.037353307008743286,-0.027697674930095673,9.86365032196045,0.0019285994937831485,-0.007884349264571683,0.0016097412190402653,-121.49674414926842,110.61135286772031,0,1.006608486175537,2019-08-06 15:26:18:838
0.06369554996490479,0.05611856281757355,9.784624099731445,-0.00020244967322245603,0.0014389909812741537,0.0013433600914510408,-122.65960203756403,111.99258911395076,0,1.0097310543060303,2019-08-06 15:26:18:841
0.006221559830009937,0.0297763179987669,9.870835304260254,0.002994124134177209,-0.004421394085763112,0.0013433600914510408,-123.80494383013504,113.34877681699729,0,1.0127274990081787,2019-08-06 15:26:18:844
0.030169056728482246,0.010618319734930992,9.940282821655273,6.393147468507523e-05,-0.0028231073202277645,0.004539933882596061,-124.92474783081558,114.68056317816004,0,1.0166339874267578,2019-08-06 15:26:18:848
0.03974805399775505,-0.00853967759758234,9.803781509399414,0.0013958372386046994,-0.003622250702995438,0.0013433600914510408,-126.02096932876252,108.78770436876331,0,1.0197689533233643,2019-08-06 15:26:18:851
0.03495855629444122,0.05611856281757355,9.880414009094238,0.0024613618789987605,-0.0006920582344953867,0.0016097412190402653,-127.0963778842871,110.20502342999077,0,1.0227961540222168,2019-08-06 15:26:18:854
-0.034489184617996216,0.01301306951791048,9.779834747314453,0.0013958372386046994,-0.0017575828098708665,0.004007171627417612,-120.95810543339532,111.59909163687236,0,1.026707649230957,2019-08-06 15:26:18:858
0.07087980210781097,-0.010934427380561829,9.878019332885742,0.004858792287376107,-0.003888631830584663,0.002408884601807939,-122.12972856246678,105.76713830750391,0,1.0312526226043701,2019-08-06 15:26:18:863
0.04693230614066124,-0.027697674930095673,9.892387390136719,0.000863074918407669,-0.004687775213352337,0.0037407904998283874,-123.28096185535355,100.05486854212613,0,1.0340473651885986,2019-08-06 15:26:18:866
-0.020120687782764435,0.03217106685042381,9.815755844116211,-0.0007352119771648412,-0.004687775213352337,0.003474409372239163,-117.21643498942737,101.65021252943951,0,1.0388212203979492,2019-08-06 15:26:18:870
0.006221559830009937,0.05132906511425972,9.90196704864502,-0.003132642320523606,-0.004954156340941561,0.003208027984575613,-118.47007570140538,103.212096943166,0,1.0435326099395752,2019-08-06 15:26:18:875
-0.0033574390690773726,0.020197318866848946,9.971414566040039,-0.0007352119771648412,-0.004421394085763112,0.0026752657293971638,-112.50000614727556,104.7457091743997,0,1.0477776527404785,2019-08-06 15:26:18:879
0.013405809178948402,-0.00853967759758234,9.839703559875488,0.002727743006587985,-0.0022903450650493154,0.003208027984575613,-113.84797697774006,99.0512323346342,0,1.0514154434204102,2019-08-06 15:26:18:883
-0.000962689402513206,0.06809231638908386,9.832518577575684,-0.0018007365525403206,-0.005220537468530785,0.004007171627417612,-107.97001889973889,100.66265523051432,0,1.0552046298980713,2019-08-06 15:26:18:887
0.049327053129673004,0.06330281496047974,9.832518577575684,0.0037932675169448835,-0.0030894884478169893,0.0021425034742187147,-109.40387984403789,102.24080920279535,0,1.0609114170074463,2019-08-06 15:26:18:892
0.008616309612989426,0.05851331353187561,9.880414009094238,0.0016622183661939237,-0.002023963937460091,0.004806315010185286,-110.81445972647506,103.78892494061004,0,1.0639314651489258,2019-08-06 15:26:18:895
-0.02251543663442135,-0.001355428365059197,9.94267749786377,0.0005966937908184444,-0.0030894884478169893,0.0013433600914510408,-105.00001782556869,98.11315825808686,0,1.0682413578033447,2019-08-06 15:26:18:900
0.07327455282211304,0.07288181036710739,9.904361724853516,-0.0020671176801295454,-0.0014912016822816417,0.0010769789638618162,-106.49124083370495,99.74287752699914,0,1.0718131065368652,2019-08-06 15:26:18:903
0.12356429547071457,0.020197318866848946,9.947466850280762,0.002994124134177209,-0.0054869185961200105,0.0021425034742187147,-107.94622367441825,101.34517007315716,0,1.074925422668457,2019-08-06 15:26:18:906
0.02537955716252327,0.008223570883274078,9.933098793029785,-0.0012679742973618717,-0.0030894884478169893,0.0018761223466294901,-109.38377203717731,102.91756393498028,0,1.0783801078796387,2019-08-06 15:26:18:910
0.0014320602640509605,0.041750065982341766,9.921124458312988,0.0016622183661939237,-0.0022903450650493154,0.002941646856986388,-110.79558293939279,104.45413770113775,0,1.0810880661010742,2019-08-06 15:26:18:913
0.06130080297589302,-0.013329177163541317,9.83491325378418,0.0013958372386046994,-0.006818824754214785,-0.0007876890592999184,-112.17155215879279,98.76640805261987,0,1.083639144897461,2019-08-06 15:26:18:915
0.020590057596564293,0.0297763179987669,9.820545196533203,-0.0004688308170663259,0.0003734663733893835,0.002941646856986388,-113.52581579555982,100.38772750467086,0,1.0882761478424072,2019-08-06 15:26:18:920
0.04693230614066124,0.07527656108140945,9.933098793029785,-0.0007352119771648412,-0.0028231073202277645,-0.0010540701868891429,-114.84911162039687,101.97149043836956,0,1.0931565761566162,2019-08-06 15:26:18:925
0.037353307008743286,0.03696056827902794,9.870835304260254,-0.0028662611929343817,0.0011726098536849292,0.0013433600914510408,-116.1480200005714,103.5283246667829,0,1.0966038703918457,2019-08-06 15:26:18:928
-0.000962689402513206,-0.006144927814602852,9.739123344421387,0.0013958372386046994,-0.0022903450650493154,0.002941646856986388,-110.2246682795814,97.85817367145235,0,1.1005275249481201,2019-08-06 15:26:18:932
-0.0033574390690773726,0.04653956741094589,9.92591381072998,-0.0004688308170663259,-0.00255672619263854,1.1454389502251989e-05,-104.42019026333308,99.4957056516699,0,1.1031205654144287,2019-08-06 15:26:18:935
0.008616309612989426,-0.027697674930095673,9.798992156982422,-0.0004688308170663259,-0.0012248205546924172,0.0013433600914510408,-105.93046922589959,93.90914907245646,0,1.1076226234436035,2019-08-06 15:26:18:939
-0.005752188619226217,0.015407819300889969,9.892387390136719,0.0005966937908184444,-0.0033558695754062136,0.0008105978362725917,-100.21166934301502,95.62902893164774,0,1.1121697425842285,2019-08-06 15:26:18:944
0.06130080297589302,0.06330281496047974,9.899572372436523,0.0021949807514095357,-0.004687775213352337,0.0013433600914510408,-101.79930287320369,97.30863516856752,0,1.1161108016967773,2019-08-06 15:26:18:948
0.09482730180025101,0.07048705965280533,9.875624656677246,-0.0012679742973618717,-0.0030894884478169893,0.0021425034742187147,-103.35154257860334,98.95460021517701,0,1.1205570697784424,2019-08-06 15:26:18:952
0.037353307008743286,-0.0037501780316233635,9.880414009094238,6.393147468507523e-05,-0.004687775213352337,0.0013433600914510408,-104.8795521322145,93.3759345939692,0,1.1229407787322998,2019-08-06 15:26:18:955
0.05411655455827713,-0.001355428365059197,9.897176742553711,-0.001534355424951096,-0.0054869185961200105,0.0016097412190402653,-106.37457201510185,87.90888698551879,0,1.126587152481079,2019-08-06 15:26:18:958
0.08764304965734482,-0.05403992161154747,9.827729225158691,0.002994124134177209,-0.0030894884478169893,0.0008105978362725917,-107.83631884283471,82.55648420281678,0,1.129716157913208,2019-08-06 15:26:18:961
-0.056041933596134186,0.024986818432807922,9.83491325378418,-0.0010015931047540657,-0.0017575828098708665,0.0016097412190402653,-102.08583024702602,84.50260951658309,0,1.132673740386963,2019-08-06 15:26:18:964
0.06369554996490479,0.09443455934524536,9.930704116821289,-0.0007352119771648412,-0.002023963937460091,0.0010769789638618162,-103.63633486826102,86.4018165651901,0,1.1364483833312988,2019-08-06 15:26:18:968
-0.02969968505203724,-0.015723926946520805,9.787018775939941,0.000863074918407669,-0.004421394085763112,1.1454389502251989e-05,-97.96623771846917,81.07545577092326,0,1.1398634910583496,2019-08-06 15:26:18:971
0.04693230614066124,0.08006606251001358,9.832518577575684,-0.0020671176801295454,-0.0017575828098708665,0.002408884601807939,-99.60114168689401,83.0449704806753,0,1.1429202556610107,2019-08-06 15:26:18:974
-0.05843668058514595,-0.01811867579817772,9.887598037719727,0.00033031263071992917,-0.0033558695754062136,0.004539933882596061,-94.0151384752391,77.7860968245241,0,1.1469151973724365,2019-08-06 15:26:18:978
0.04693230614066124,0.0297763179987669,9.980993270874023,-0.0007352119771648412,-0.003622250702995438,0.0008105978362725917,-95.72877361743792,79.82709305591571,0,1.1502282619476318,2019-08-06 15:26:18:982
-0.04646293446421623,0.010618319734930992,9.825334548950195,-0.00020244967322245603,-0.0028231073202277645,0.006404601775720633,-90.21917887530897,81.82934421456785,0,1.1529922485351562,2019-08-06 15:26:18:985
0.020590057596564293,0.03696056827902794,9.825334548950195,0.00033031263071992917,-0.004421394085763112,0.002408884601807939,-92.01149487424969,83.78837952408152,0,1.1566135883331299,2019-08-06 15:26:18:988
0.08764304965734482,-0.06122417002916336,9.83491325378418,0.0016622183661939237,-0.0006920582344953867,-0.00025492675535753324,-93.76093278281562,78.51945540877172,0,1.1597204208374023,2019-08-06 15:26:18:991
0.06130080297589302,0.003434071084484458,9.899572372436523,-0.00020244967322245603,-0.006286061978887684,0.0021425034742187147,-95.47757087029,80.54870252990048,0,1.1626882553100586,2019-08-06 15:26:18:994
0.05890605226159096,0.05611856281757355,9.798992156982422,0.0013958372386046994,-0.007351587009393233,1.1454389502251989e-05,-97.15958657438863,82.53087269788404,0,1.1664295196533203,2019-08-06 15:26:18:998
0.027774307876825333,0.07048705965280533,9.79420280456543,0.0005966937908184444,-0.004421394085763112,0.002408884601807939,-98.81228127918338,84.4718918430524,0,1.1699097156524658,2019-08-06 15:26:19:001
0.027774307876825333,0.0010393214179202914,9.90196704864502,6.393147468507523e-05,-0.006286061978887684,-0.0021195946972460415,-100.4317457284319,86.38232278914505,0,1.172957420349121,2019-08-06 15:26:19:005
0.07087980210781097,-0.0037501780316233635,9.892387390136719,0.0016622183661939237,-0.0030894884478169893,0.002408884601807939,-102.01420884011084,81.05473868677967,0,1.1769437789916992,2019-08-06 15:26:19:009
0.0756693035364151,0.015407819300889969,9.930704116821289,0.0016622183661939237,-0.0012248205546924172,0.0016097412190402653,-103.56496511642776,83.03155636822896,0,1.1802611351013184,2019-08-06 15:26:19:012
0.06130080297589302,-0.010934427380561829,9.858860969543457,6.393147468507523e-05,-0.0030894884478169893,0.0010769789638618162,-105.08606031469392,77.77218622867517,0,1.1830308437347412,2019-08-06 15:26:19:015
0.10919579863548279,-0.05643467232584953,9.918729782104492,0.000863074918407669,-0.004687775213352337,0.0018761223466294901,-106.57077580585316,72.62308775236914,0,1.186633825302124,2019-08-06 15:26:19:018
0.020590057596564293,0.003434071084484458,9.921124458312988,0.00033031263071992917,-0.005220537468530785,0.0018761223466294901,-108.03606459549013,74.77017130184576,0,1.1897637844085693,2019-08-06 15:26:19:021
0.03495855629444122,0.06090806424617767,9.858860969543457,0.000863074918407669,-0.0028231073202277645,0.0016097412190402653,-109.47081145323772,76.86754524877769,0,1.1927196979522705,2019-08-06 15:26:19:024
0.05411655455827713,0.003434071084484458,9.791808128356934,0.0013958372386046994,-0.0006920582344953867,0.0013433600914510408,-110.87493648008214,78.92953901895115,0,1.195953369140625,2019-08-06 15:26:19:028
0.12595903873443604,-0.006144927814602852,9.851676940917969,0.000863074918407669,-0.004155012958173888,0.0005442166761740764,-112.24162046261122,73.75142060273163,0,1.2009551525115967,2019-08-06 15:26:19:033
0.049327053129673004,0.05132906511425972,9.856466293334961,0.0011294561110154748,-0.002023963937460091,0.0026752657293971638,-113.59079310210127,75.87027949822084,0,1.203244924545288,2019-08-06 15:26:19:035
0.04453755542635918,0.0010393214179202914,9.842098236083984,6.393147468507523e-05,-0.00255672619263854,0.002941646856986388,-114.91328968675064,77.95274034542105,0,1.206742286682129,2019-08-06 15:26:19:038
0.008616309612989426,0.0010393214179202914,9.894782066345215,0.0013958372386046994,-0.005220537468530785,0.0008105978362725917,-116.21310861493518,79.99331987939647,0,1.2098720073699951,2019-08-06 15:26:19:041
-0.005752188619226217,0.05851331353187561,9.909151077270508,0.0005966937908184444,-0.004155012958173888,1.1454389502251989e-05,-110.28876460950511,81.9865796753496,0,1.213073968887329,2019-08-06 15:26:19:045
0.01819530874490738,-0.010934427380561829,9.92591381072998,-0.00020244967322245603,-0.006286061978887684,0.0021425034742187147,-111.67961314350505,76.74815150828928,0,1.2166879177093506,2019-08-06 15:26:19:048
0.030169056728482246,0.027381567284464836,9.911545753479004,0.0016622183661939237,-0.00255672619263854,0.003474409372239163,-113.04208498650003,78.80973157057268,0,1.2198081016540527,2019-08-06 15:26:19:051
0.05172180384397507,-0.04925042390823364,9.8229398727417,6.393147468507523e-05,-0.006552443626625559,0.004539933882596061,-114.3741131438313,73.63927160393077,0,1.2227883338928223,2019-08-06 15:26:19:054
-0.005752188619226217,-0.006144927814602852,9.957045555114746,-0.00020244967322245603,-0.00255672619263854,0.0037407904998283874,-108.48674013955427,68.56723713381338,0,1.2266385555267334,2019-08-06 15:26:19:058
0.013405809178948402,-0.01811867579817772,9.858860969543457,-0.0007352119771648412,-0.0054869185961200105,0.002408884601807939,-109.91448328554473,63.59812751162226,0,1.229767084121704,2019-08-06 15:26:19:061
0.037353307008743286,0.003434071084484458,9.861255645751953,0.0011294561110154748,-0.00042567707439687154,0.0010769789638618162,-111.31178328686978,65.92558082258729,0,1.2326855659484863,2019-08-06 15:26:19:064
0.07327455282211304,-0.01811867579817772,9.787018775939941,0.004592411159786882,-0.004155012958173888,-0.0010540701868891429,-112.67609456075131,61.00822479223475,0,1.2364311218261719,2019-08-06 15:26:19:068
0.08285354822874069,0.010618319734930992,9.916335105895996,0.002994124134177209,-0.003622250702995438,0.003208027984575613,-114.0122924317778,63.386249654752355,0,1.2399024963378906,2019-08-06 15:26:19:071
0.09482730180025101,-0.001355428365059197,9.88520336151123,-0.0028662611929343817,0.0014389909812741537,0.0042735527550068365,-115.3213154058488,58.519201829939675,0,1.243133783340454,2019-08-06 15:26:19:075
0.02537955716252327,0.003434071084484458,9.889992713928223,0.0024613618789987605,-0.007617968136982457,0.0021425034742187147,-116.61047053384686,60.94794237955238,0,1.246588945388794,2019-08-06 15:26:19:078
0.006221559830009937,0.024986818432807922,9.861255645751953,0.00033031263071992917,-0.0009584393620846114,0.006670982903309857,-117.87737060976396,63.32602223254373,0,1.2497022151947021,2019-08-06 15:26:19:081
0.03974805399775505,0.04893431439995766,9.875624656677246,0.00565793567014378,-0.0022903450650493154,0.0016097412190402653,-119.11482786297344,65.65287710826163,0,1.2526819705963135,2019-08-06 15:26:19:084
0.049327053129673004,0.04893431439995766,9.889992713928223,-0.0010015931047540657,-0.004155012958173888,0.0016097412190402653,-120.32594255471562,67.93436033435093,0,1.2564258575439453,2019-08-06 15:26:19:088
-0.005752188619226217,-0.010934427380561829,9.796597480773926,0.0035268863893556587,-0.0028231073202277645,0.0010769789638618162,-114.31954755428308,62.97626629003567,0,1.2598891258239746,2019-08-06 15:26:19:091
0.09003780037164688,0.0010393214179202914,9.911545753479004,0.0019285994937831485,-0.004155012958173888,0.006138220648131409,-115.62197779486874,65.31626365672173,0,1.2631871700286865,2019-08-06 15:26:19:095
0.07806405425071716,-0.01811867579817772,9.8229398727417,0.0005966937908184444,-0.0012248205546924172,0.0026752657293971638,-116.90019685266333,60.41193764047999,0,1.2666020393371582,2019-08-06 15:26:19:098
0.03495855629444122,0.015407819300889969,9.849282264709473,6.393147468507523e-05,-0.004687775213352337,0.0018761223466294901,-118.15730583145536,62.80189508409845,0,1.269716739654541,2019-08-06 15:26:19:101
-0.000962689402513206,-0.001355428365059197,9.839703559875488,0.0016622183661939237,-0.007351587009393233,0.006138220648131409,-112.19305116260016,57.94573903682819,0,1.2726738452911377,2019-08-06 15:26:19:104
0.05411655455827713,0.041750065982341766,9.825334548950195,0.0005966937908184444,-0.002023963937460091,0.0013433600914510408,-113.54245364745927,60.38182973077741,0,1.2764136791229248,2019-08-06 15:26:19:108
0.003826810047030449,0.05132906511425972,9.887598037719727,0.0016622183661939237,-0.005753299723709235,-0.0007876890592999184,-114.87004003730917,62.76792056327114,0,1.279883861541748,2019-08-06 15:26:19:111
-0.005752188619226217,0.034565817564725876,9.76546573638916,-0.0018007365525403206,-0.004954156340941561,0.0037407904998283874,-108.97241833998267,65.10883172326862,0,1.283104419708252,2019-08-06 15:26:19:115
0.06369554996490479,0.05851331353187561,9.861255645751953,-0.0012679742973618717,-0.0009584393620846114,0.0013433600914510408,-110.38538069532194,67.40010403619222,0,1.2865924835205078,2019-08-06 15:26:19:118
0.003826810047030449,0.0010393214179202914,9.909151077270508,6.393147468507523e-05,-0.004687775213352337,0.0010769789638618162,-111.77640981728783,69.65197057314214,0,1.289710521697998,2019-08-06 15:26:19:121
-0.010541687719523907,0.08006606251001358,9.909151077270508,0.00033031263071992917,-0.00015929593055300162,0.003474409372239163,-105.94207241099885,71.84961372487842,0,1.2928714752197266,2019-08-06 15:26:19:124
0.0756693035364151,-0.022908175364136696,9.889992713928223,0.0024613618789987605,-0.0030894884478169893,0.007203745158488308,-107.41381651048121,66.81476018199443,0,1.2966017723083496,2019-08-06 15:26:19:128
0.04453755542635918,0.0393553152680397,9.8229398727417,-0.00020244967322245603,-0.005220537468530785,0.003474409372239163,-108.85943066587996,69.07390936798234,0,1.2997195720672607,2019-08-06 15:26:19:131
0.030169056728482246,-0.013329177163541317,9.918729782104492,0.0005966937908184444,-0.0014912016822816417,0.007203745158488308,-110.27850915677844,64.0938720861366,0,1.3026750087738037,2019-08-06 15:26:19:134
0.05172180384397507,0.0010393214179202914,9.878019332885742,-0.001534355424951096,-0.005220537468530785,0.002941646856986388,-111.66583912604331,66.41219732490552,0,1.306427001953125,2019-08-06 15:26:19:138
0.01819530874490738,0.027381567284464836,9.887598037719727,0.0019285994937831485,-0.00255672619263854,0.004539933882596061,-113.02991310830362,68.68040247699157,0,1.3099133968353271,2019-08-06 15:26:19:141
0.008616309612989426,0.008223570883274078,9.815755844116211,0.000863074918407669,-0.0054869185961200105,0.0016097412190402653,-114.36731739730703,70.90567841847373,0,1.3131318092346191,2019-08-06 15:26:19:145
-0.008146938867866993,0.020197318866848946,9.86365032196045,-0.002333498937755932,-0.004155012958173888,0.0069373640308990825,-108.4801108117779,73.08567147602366,0,1.316589593887329,2019-08-06 15:26:19:148
0.030169056728482246,0.03217106685042381,9.945072174072266,-0.0012679742973618717,-0.004954156340941561,0.0002778355485848519,-109.90616370552661,75.2204734987248,0,1.3197124004364014,2019-08-06 15:26:19:151
-0.02251543663442135,0.0297763179987669,9.820545196533203,-0.002333498937755932,-0.004954156340941561,0.004539933882596061,-104.10979193513155,77.31300205282048,0,1.3228604793548584,2019-08-06 15:26:19:154
0.05172180384397507,-0.020513426512479782,9.842098236083984,-0.0004688308170663259,-0.0022903450650493154,0.0010769789638618162,-105.62109402672883,72.16922867389071,0,1.3265941143035889,2019-08-06 15:26:19:158
0.037353307008743286,0.0010393214179202914,9.894782066345215,0.0019285994937831485,0.0009062286610771233,0.004806315010185286,-107.10450530107043,74.3253853077305,0,1.3297193050384521,2019-08-06 15:26:19:161
0.07327455282211304,0.01301306951791048,9.911545753479004,0.0011294561110154748,-0.003888631830584663,0.0018761223466294901,-108.55329877353842,76.4371857670635,0,1.3326733112335205,2019-08-06 15:26:19:164
-0.008146938867866993,-0.027697674930095673,9.875624656677246,0.002994124134177209,-0.004687775213352337,0.006670982903309857,-102.78219404825035,71.3110273967591,0,1.336411952972412,2019-08-06 15:26:19:168
-0.010541687719523907,0.034565817564725876,9.810966491699219,0.002994124134177209,-0.0030894884478169893,0.0018761223466294901,-97.12718242047131,73.48018907676303,0,1.33986496925354,2019-08-06 15:26:19:171
0.01819530874490738,-0.020513426512479782,9.90196704864502,0.0037932675169448835,-0.0028231073202277645,0.002408884601807939,-98.7820231187116,68.41227398933714,0,1.3430821895599365,2019-08-06 15:26:19:175
0.04453755542635918,0.03696056827902794,9.906756401062012,0.0037932675169448835,-0.004421394085763112,0.003208027984575613,-100.40035448308096,70.63900127882728,0,1.3466129302978516,2019-08-06 15:26:19:178
-0.012936437502503395,0.015407819300889969,9.86365032196045,0.0005966937908184444,-0.005220537468530785,0.0042735527550068365,-94.79293475530343,72.8243265985589,0,1.349736213684082,2019-08-06 15:26:19:181
0.013405809178948402,0.01301306951791048,9.878019332885742,0.00033031263071992917,-0.0033558695754062136,0.0018761223466294901,-96.49496418057775,74.96627566848532,0,1.3526906967163086,2019-08-06 15:26:19:184
0.11159054934978485,0.04893431439995766,9.837308883666992,0.00033031263071992917,-0.004421394085763112,0.0037407904998283874,-98.1512515945754,77.06118911534682,0,1.355973720550537,2019-08-06 15:26:19:188
0.049327053129673004,-0.030092423781752586,9.818150520324707,-0.0010015931047540657,0.0003734663733893835,0.0021425034742187147,-99.78257217656773,71.92375302009921,0,1.3608722686767578,2019-08-06 15:26:19:192
0.04453755542635918,-0.01811867579817772,9.839703559875488,-0.001534355424951096,-0.003888631830584663,0.0042735527550068365,-101.38123351498778,66.88758550638569,0,1.3631644248962402,2019-08-06 15:26:19:195
0.02537955716252327,0.0010393214179202914,9.882808685302734,-0.0012679742973618717,-0.0033558695754062136,0.0010769789638618162,-102.95000890976549,69.14996159080737,0,1.366652011871338,2019-08-06 15:26:19:198
0.006221559830009937,0.05611856281757355,9.882808685302734,0.0011294561110154748,-0.00255672619263854,0.00507269613777451,-104.48983968008223,71.36025770190967,0,1.3697702884674072,2019-08-06 15:26:19:201
0.05890605226159096,-0.03967142477631569,9.90196704864502,0.0019285994937831485,-0.004421394085763112,0.0010769789638618162,-105.99248896845721,66.33732204897404,0,1.3727390766143799,2019-08-06 15:26:19:204
-0.005752188619226217,0.03217106685042381,9.921124458312988,0.000863074918407669,-0.003888631830584663,0.0013433600914510408,-100.27245056295197,68.60667045341476,0,1.376645803451538,2019-08-06 15:26:19:208
0.01819530874490738,0.0297763179987669,9.976203918457031,0.0016622183661939237,-0.004421394085763112,0.002408884601807939,-101.86413480201347,70.83082478267818,0,1.379774570465088,2019-08-06 15:26:19:211
0.04453755542635918,-0.001355428365059197,9.866044998168945,0.0037932675169448835,-0.0022903450650493154,0.002941646856986388,-103.42129714960679,65.81373293298317,0,1.3827455043792725,2019-08-06 15:26:19:214
0.02537955716252327,0.020197318866848946,9.861255645751953,0.0035268863893556587,-0.00255672619263854,0.0010769789638618162,-104.94936266856791,68.09433968394342,0,1.3866417407989502,2019-08-06 15:26:19:218
0.008616309612989426,0.008223570883274078,9.918729782104492,0.0024613618789987605,-0.0054869185961200105,0.005605458392952959,-106.44841852553544,70.3310715260661,0,1.3897624015808105,2019-08-06 15:26:19:221
0.01819530874490738,-0.00853967759758234,9.92591381072998,6.393147468507523e-05,-0.002023963937460091,0.003474409372239163,-107.91701019933663,65.32542525460646,0,1.3927485942840576,2019-08-06 15:26:19:224
0.09482730180025101,0.027381567284464836,9.796597480773926,0.0019285994937831485,0.0011726098536849292,0.002408884601807939,-109.34779179498898,67.61536280907887,0,1.3959908485412598,2019-08-06 15:26:19:228
0.06130080297589302,-0.00853967759758234,9.880414009094238,0.0005966937908184444,-0.0012248205546924172,0.004007171627417612,-110.75337959913146,62.66387698462215,0,1.4010345935821533,2019-08-06 15:26:19:233
-0.015331187285482883,0.03696056827902794,9.858860969543457,0.0016622183661939237,-0.0054869185961200105,0.0008105978362725917,-104.93922560406462,65.00604039466539,0,1.403853178024292,2019-08-06 15:26:19:235
0.03256380558013916,0.008223570883274078,9.825334548950195,0.00033031263071992917,-0.004954156340941561,0.0008105978362725917,-106.43566823118458,67.30489547584334,0,1.407358169555664,2019-08-06 15:26:19:239
0.06369554996490479,-0.02530292607843876,9.92591381072998,0.0021949807514095357,0.0006398475334878987,0.002408884601807939,-107.89971721376367,62.36132180583313,0,1.4105784893035889,2019-08-06 15:26:19:242
0.03974805399775505,0.034565817564725876,9.79420280456543,0.0011294561110154748,-0.003888631830584663,-0.0010540701868891429,-109.3365489566494,64.70989917368307,0,1.412975788116455,2019-08-06 15:26:19:245
0.013405809178948402,0.003434071084484458,9.79420280456543,0.0005966937908184444,0.0003734663733893835,1.1454389502251989e-05,-110.74832619697905,67.01517687748978,0,1.416632890701294,2019-08-06 15:26:19:248
-0.0033574390690773726,0.05851331353187561,9.856466293334961,0.0005966937908184444,-0.0033558695754062136,0.0002778355485848519,-104.93315851941304,69.26796547473089,0,1.4197719097137451,2019-08-06 15:26:19:251
0.06609030067920685,0.005828820634633303,9.94267749786377,6.393147468507523e-05,-0.0014912016822816417,0.005871839520542184,-106.42662655490972,71.48192358328313,0,1.4227797985076904,2019-08-06 15:26:19:254
0.042142804712057114,-0.0324871726334095,9.875624656677246,0.0024613618789987605,-0.0014912016822816417,0.0013433600914510408,-107.89288214093571,66.4555234421846,0,1.426624059677124,2019-08-06 15:26:19:258
0.020590057596564293,-0.010934427380561829,9.945072174072266,-0.0007352119771648412,-0.004421394085763112,-0.0007876890592999184,-109.33187349768546,61.5278023435411,0,1.4297599792480469,2019-08-06 15:26:19:261
0.015800558030605316,0.0010393214179202914,9.84449291229248,-0.003132642320523606,-0.004687775213352337,0.002408884601807939,-110.7426019495931,63.89765649470314,0,1.4327797889709473,2019-08-06 15:26:19:264
0.08285354822874069,0.027381567284464836,9.880414009094238,0.007788984690857577,-0.0022903450650493154,0.002408884601807939,-112.11764581858405,66.21484401230975,0,1.4366295337677002,2019-08-06 15:26:19:268
0.042142804712057114,0.015407819300889969,9.69601821899414,-0.0020671176801295454,-0.00255672619263854,0.0021425034742187147,-113.46986120616377,68.48909090195858,0,1.4397718906402588,2019-08-06 15:26:19:271
0.09722204506397247,0.017802570015192032,9.801386833190918,0.0011294561110154748,-0.003622250702995438,0.0005442166761740764,-114.78848881520017,70.7170378436028,0,1.4427659511566162,2019-08-06 15:26:19:274
0.04453755542635918,0.020197318866848946,9.86365032196045,0.0016622183661939237,-0.0033558695754062136,0.003474409372239163,-116.08681867409295,72.89999094411174,0,1.446619987487793,2019-08-06 15:26:19:278
0.05411655455827713,0.027381567284464836,9.909151077270508,0.0011294561110154748,-0.0009584393620846114,-0.0026523570824616527,-117.35865486702222,75.03862511313777,0,1.4497666358947754,2019-08-06 15:26:19:281
0.09482730180025101,-0.015723926946520805,9.777440071105957,-0.0004688308170663259,0.00010708522141819095,-0.0015868324420675922,-118.6003864092874,69.93977446547355,0,1.452768087387085,2019-08-06 15:26:19:284
-0.0033574390690773726,0.024986818432807922,9.813361167907715,0.0016622183661939237,-0.0028231073202277645,0.002408884601807939,-112.62815670277314,72.13769971296851,0,1.456641674041748,2019-08-06 15:26:19:288
0.06369554996490479,0.07048705965280533,9.839703559875488,0.0024613618789987605,-0.004687775213352337,0.0042735527550068365,-113.96734948513017,74.28630319132459,0,1.4597809314727783,2019-08-06 15:26:19:291
0.06848505139350891,0.07767131179571152,9.798992156982422,0.000863074918407669,-0.0033558695754062136,0.0016097412190402653,-115.27942089785174,76.39134691467629,0,1.4628214836120605,2019-08-06 15:26:19:294
-0.020120687782764435,0.0010393214179202914,9.866044998168945,6.393147468507523e-05,-0.004687775213352337,0.002408884601807939,-109.37516886004383,78.46338561603375,0,1.4666228294372559,2019-08-06 15:26:19:298
0.015800558030605316,0.0393553152680397,9.957045555114746,-0.00020244967322245603,-0.0012248205546924172,-0.0007876890592999184,-110.78563144386506,80.48962432476111,0,1.4697580337524414,2019-08-06 15:26:19:301
0.09243255108594894,0.010618319734930992,9.803781509399414,-0.002333498937755932,-0.0014912016822816417,0.0018761223466294901,-112.15886555378373,82.47898129638813,0,1.4727389812469482,2019-08-06 15:26:19:304
0.056511301547288895,-0.0037501780316233635,9.947466850280762,-0.002333498937755932,-0.0030894884478169893,-0.0015868324420675922,-113.50850514585412,77.23034218627063,0,1.4766199588775635,2019-08-06 15:26:19:308
0.11159054934978485,-0.05643467232584953,9.861255645751953,0.0005966937908184444,-0.0028231073202277645,0.004007171627417612,-114.82486958836112,72.09218777735339,0,1.4797663688659668,2019-08-06 15:26:19:311
0.03974805399775505,-0.027697674930095673,9.849282264709473,-0.0020671176801295454,-0.0030894884478169893,0.0018761223466294901,-116.1232258566555,67.05391567779273,0,1.4827747344970703,2019-08-06 15:26:19:314
0.04453755542635918,0.003434071084484458,9.851676940917969,0.0016622183661939237,-0.0009584393620846114,0.003474409372239163,-117.39537328077705,69.31207783571966,0,1.4866328239440918,2019-08-06 15:26:19:318
0.0756693035364151,0.04893431439995766,9.830123901367188,0.002727743006587985,-0.0028231073202277645,0.0018761223466294901,-118.6381479828967,71.51965165829216,0,1.4897687435150146,2019-08-06 15:26:19:321
0.06130080297589302,-0.010934427380561829,9.875624656677246,0.0024613618789987605,-0.003622250702995438,0.0026752657293971638,-119.85766570297375,66.49011534995137,0,1.4927501678466797,2019-08-06 15:26:19:324
0.05411655455827713,0.015407819300889969,9.770255088806152,6.393147468507523e-05,-0.004155012958173888,0.003208027984575613,-121.05325777253113,68.75849195642884,0,1.4966402053833008,2019-08-06 15:26:19:328
0.015800558030605316,0.034565817564725876,9.861255645751953,0.003260505261766434,-0.0012248205546924172,0.002941646856986388,-122.23014173427438,70.9787336525344,0,1.4997634887695312,2019-08-06 15:26:19:331
0.0756693035364151,0.05132906511425972,9.875624656677246,0.002994124134177209,-0.005753299723709235,0.0013433600914510408,-123.37579427651704,73.15270112058151,0,1.5027492046356201,2019-08-06 15:26:19:334
0.07087980210781097,-0.042066171765327454,9.798992156982422,-0.002599880065345157,-0.0014912016822816417,-0.0005213078992014032,-124.49966372098564,68.09513470962128,0,1.5066423416137695,2019-08-06 15:26:19:338
0.030169056728482246,0.04893431439995766,9.830123901367188,0.00033031263071992917,-0.006552443626625559,0.0037407904998283874,-125.60499834023813,70.32746946257662,0,1.509782314300537,2019-08-06 15:26:19:341
0.049327053129673004,-0.006144927814602852,9.897176742553711,0.0011294561110154748,-0.0017575828098708665,0.0026752657293971638,-126.68689217807518,65.32144193810167,0,1.5127720832824707,2019-08-06 15:26:19:344
0.04453755542635918,-0.001355428365059197,9.909151077270508,0.000863074918407669,-0.0017575828098708665,-0.0018532135696568165,-127.74762407358905,60.41498330254627,0,1.5166213512420654,2019-08-06 15:26:19:348
0.03495855629444122,0.005828820634633303,9.87322998046875,-0.001534355424951096,-0.007085205881804008,0.003474409372239163,-128.78736654982484,62.80627731889433,0,1.5197575092315674,2019-08-06 15:26:19:351
0.037353307008743286,0.003434071084484458,9.820545196533203,0.0019285994937831485,-0.004421394085763112,0.0026752657293971638,-129.80651882141905,65.14942748295917,0,1.5227456092834473,2019-08-06 15:26:19:354
0.10680104792118073,-0.027697674930095673,9.894782066345215,0.0005966937908184444,-0.0022903450650493154,0.0018761223466294901,-130.79752148937675,60.24951664565458,0,1.5266242027282715,2019-08-06 15:26:19:358
0.05172180384397507,-0.02530292607843876,9.767860412597656,0.0011294561110154748,-0.003622250702995438,-0.0005213078992014032,-131.7748658092077,55.447295915726635,0,1.5297589302062988,2019-08-06 15:26:19:361
0.04453755542635918,-0.00853967759758234,9.904361724853516,0.0005966937908184444,-0.0030894884478169893,1.1454389502251989e-05,-132.73369452984693,50.73923738009329,0,1.5327627658843994,2019-08-06 15:26:19:364
0.08764304965734482,0.041750065982341766,9.894782066345215,0.00033031263071992917,-0.0022903450650493154,0.004806315010185286,-133.66837350734264,53.31954584059103,0,1.5366308689117432,2019-08-06 15:26:19:368
-0.017725937068462372,-0.006144927814602852,9.945072174072266,-0.0018007365525403206,-0.005753299723709235,1.1454389502251989e-05,-127.39603483103188,48.65418023886054,0,1.5397686958312988,2019-08-06 15:26:19:371
0.04453755542635918,-0.010934427380561829,9.892387390136719,0.003260505261766434,-0.0033558695754062136,0.0002778355485848519,-128.4423221555176,44.08174837448635,0,1.5431272983551025,2019-08-06 15:26:19:375
0.08285354822874069,0.034565817564725876,9.798992156982422,0.002994124134177209,-0.0028231073202277645,0.003208027984575613,-129.46323614230752,46.79548713409467,0,1.5466015338897705,2019-08-06 15:26:19:378
0.01819530874490738,-0.010934427380561829,9.897176742553711,6.393147468507523e-05,-0.004155012958173888,0.0026752657293971638,-130.47113349999185,42.26083215035561,0,1.5497357845306396,2019-08-06 15:26:19:381
0.02537955716252327,0.03217106685042381,9.916335105895996,0.0005966937908184444,-0.00255672619263854,0.0026752657293971638,-131.45835072197218,45.01179816140861,0,1.5527122020721436,2019-08-06 15:26:19:384
0.0014320602640509605,0.03217106685042381,9.875624656677246,0.0013958372386046994,-0.0014912016822816417,0.0002778355485848519,-132.42868964697794,47.70752232717581,0,1.5566282272338867,2019-08-06 15:26:19:388
0.03974805399775505,-0.037276674062013626,9.837308883666992,-0.0004688308170663259,-0.0054869185961200105,0.004007171627417612,-133.37448112514633,43.15779993758025,0,1.5598890781402588,2019-08-06 15:26:19:391
0.07087980210781097,0.04653956741094589,9.868440628051758,0.0021949807514095357,-0.0033558695754062136,0.005871839520542184,-134.29813797412453,45.88883224726549,0,1.5631961822509766,2019-08-06 15:26:19:395
0.04693230614066124,0.0393553152680397,9.837308883666992,-0.0010015931047540657,-0.004687775213352337,0.0010769789638618162,-135.20581920201028,48.566661214398685,0,1.5665738582611084,2019-08-06 15:26:19:398
0.030169056728482246,0.003434071084484458,9.892387390136719,-0.002333498937755932,-0.003622250702995438,0.0018761223466294901,-136.09757033920098,51.19534104843132,0,1.5697095394134521,2019-08-06 15:26:19:401
0.003826810047030449,0.05851331353187561,9.784624099731445,0.002994124134177209,-0.0033558695754062136,0.004007171627417612,-136.97460676377975,53.764078386078054,0,1.5727026462554932,2019-08-06 15:26:19:404
0.06369554996490479,0.024986818432807922,9.772649765014648,0.0024613618789987605,-0.003622250702995438,0.0037407904998283874,-137.82685011351373,56.2853261487273,0,1.576615571975708,2019-08-06 15:26:19:408
0.06609030067920685,0.034565817564725876,9.813361167907715,-0.0007352119771648412,-0.005753299723709235,0.002941646856986388,-138.66154362439195,58.755717815934304,0,1.5798726081848145,2019-08-06 15:26:19:411
0.011011059395968914,0.0393553152680397,9.894782066345215,-0.0012679742973618717,-0.0028231073202277645,0.0013433600914510408,-139.48651446193995,61.176280686370085,0,1.5831725597381592,2019-08-06 15:26:19:415
-0.06083143129944801,0.015407819300889969,9.875624656677246,6.393147468507523e-05,-0.004421394085763112,0.002941646856986388,-133.1029970553225,63.55095500486901,0,1.586578607559204,2019-08-06 15:26:19:418
0.042142804712057114,0.0010393214179202914,9.86365032196045,0.0016622183661939237,-0.004155012958173888,0.0005442166761740764,-134.03531100345833,65.87952305370301,0,1.5897083282470703,2019-08-06 15:26:19:421
0.02537955716252327,-0.0324871726334095,9.909151077270508,0.002727743006587985,-0.0033558695754062136,0.0026752657293971638,-134.95110571236168,60.96523092486616,0,1.5927021503448486,2019-08-06 15:26:19:424
0.04453755542635918,-0.010934427380561829,9.961835861206055,0.002994124134177209,-0.004954156340941561,0.00507269613777451,-135.8458701162295,56.14652513713218,0,1.5966217517852783,2019-08-06 15:26:19:428
0.05890605226159096,0.027381567284464836,9.894782066345215,-0.0004688308170663259,-0.0030894884478169893,0.0008105978362725917,-136.7215661979665,58.620509271316415,0,1.599876880645752,2019-08-06 15:26:19:431
0.0756693035364151,0.015407819300889969,9.861255645751953,0.0013958372386046994,-0.0030894884478169893,0.0005442166761740764,-137.57776998232984,61.04605020817638,0,1.6031742095947266,2019-08-06 15:26:19:435
0.049327053129673004,0.020197318866848946,9.760676383972168,0.0011294561110154748,-0.00042567707439687154,0.006670982903309857,-138.4203420386415,63.42254167681887,0,1.6065855026245117,2019-08-06 15:26:19:438
-0.015331187285482883,0.005828820634633303,9.770255088806152,0.0011294561110154748,-0.0028231073202277645,0.0013433600914510408,-132.05323653779973,65.75320844812438,0,1.6097195148468018,2019-08-06 15:26:19:441
0.06130080297589302,-0.05164517089724541,9.935493469238281,-0.00020244967322245603,-0.004954156340941561,0.002941646856986388,-133.00427224404567,60.8441346464608,0,1.612701416015625,2019-08-06 15:26:19:444
-0.020120687782764435,0.05372381582856178,9.918729782104492,-0.00020244967322245603,-0.007085205881804008,0.0005442166761740764,-126.74495095713212,63.221089862085115,0,1.6166236400604248,2019-08-06 15:26:19:448
0.03974805399775505,0.02259206771850586,9.815755844116211,-0.0004688308170663259,-0.0054869185961200105,0.003474409372239163,-127.80440799754099,65.55411637530617,0,1.6198813915252686,2019-08-06 15:26:19:451
0.05172180384397507,-0.015723926946520805,9.875624656677246,0.002727743006587985,-0.004155012958173888,0.004806315010185286,-128.84154497187322,60.64435083906304,0,1.6231963634490967,2019-08-06 15:26:19:455
-0.024910185486078262,0.02259206771850586,9.846887588500977,0.000863074918407669,-0.00255672619263854,0.0037407904998283874,-122.6671262018688,63.02867040031388,0,1.6265869140625,2019-08-06 15:26:19:458
0.013405809178948402,-0.0324871726334095,9.878019332885742,-0.001534355424951096,-0.002023963937460091,0.003474409372239163,-123.81187161890858,58.17213626747465,0,1.6297273635864258,2019-08-06 15:26:19:461
0.06609030067920685,-0.022908175364136696,9.928308486938477,0.003260505261766434,-0.00255672619263854,0.0037407904998283874,-124.92757882509578,53.41079253215526,0,1.632704496383667,2019-08-06 15:26:19:464
0.022984808310866356,-0.022908175364136696,9.856466293334961,0.002727743006587985,-0.008150730392160906,0.0042735527550068365,-126.02453608233753,48.74463125332285,0,1.63667893409729,2019-08-06 15:26:19:468
0.011011059395968914,-0.010934427380561829,9.810966491699219,0.0021949807514095357,-0.004421394085763112,0.004007171627417612,-127.10195902720925,44.17061848339239,0,1.6399023532867432,2019-08-06 15:26:19:471
0.03256380558013916,-0.01811867579817772,9.837308883666992,0.0011294561110154748,-0.004954156340941561,0.0037407904998283874,-128.15520486540245,39.68910655513921,0,1.6432158946990967,2019-08-06 15:26:19:475
0.01819530874490738,0.04893431439995766,9.858860969543457,0.003260505261766434,-0.0014912016822816417,0.0010769789638618162,-129.18970273772794,42.48901761864352,0,1.6465976238250732,2019-08-06 15:26:19:478
0.027774307876825333,0.034565817564725876,9.854071617126465,0.0021949807514095357,-0.0017575828098708665,0.005871839520542184,-130.2023700859747,45.23483206046577,0,1.649726390838623,2019-08-06 15:26:19:481
0.030169056728482246,-0.020513426512479782,9.808571815490723,0.004326029772123333,-0.003622250702995438,0.0037407904998283874,-131.19419438401695,40.73181093728103,0,1.6526947021484375,2019-08-06 15:26:19:484
0.013405809178948402,0.015407819300889969,9.88520336151123,0.0013958372386046994,-0.00255672619263854,0.002941646856986388,-132.16819397300273,43.51508151916189,0,1.6566128730773926,2019-08-06 15:26:19:488
0.05890605226159096,0.003434071084484458,9.940282821655273,0.0016622183661939237,0.0009062286610771233,0.0069373640308990825,-133.11820515696905,46.24408013036367,0,1.6598687171936035,2019-08-06 15:26:19:491
0.008616309612989426,0.041750065982341766,9.808571815490723,-0.00020244967322245603,0.0011726098536849292,0.003208027984575613,-134.05505314731388,48.914358743128055,0,1.6631906032562256,2019-08-06 15:26:19:495
0.03256380558013916,0.05132906511425972,9.904361724853516,0.0021949807514095357,-0.004687775213352337,0.0042735527550068365,-134.9692892505365,51.5297137469334,0,1.6665918827056885,2019-08-06 15:26:19:498
0.013405809178948402,0.027381567284464836,9.818150520324707,-0.0004688308170663259,-0.006552443626625559,0.005605458392952959,-135.86718523254146,54.09600620797939,0,1.6697273254394531,2019-08-06 15:26:19:501
-0.015331187285482883,0.04414481669664383,9.86365032196045,0.000863074918407669,-0.003622250702995438,0.0042735527550068365,-129.55101445372676,56.60881265515032,0,1.672717571258545,2019-08-06 15:26:19:504
0.05890605226159096,-0.00853967759758234,9.842098236083984,-0.001534355424951096,-0.004155012958173888,-0.0010540701868891429,-130.55237137550603,51.87791296707999,0,1.6759941577911377,2019-08-06 15:26:19:508
0.0014320602640509605,-0.020513426512479782,9.808571815490723,-0.0010015931047540657,-0.00042567707439687154,0.0010769789638618162,-131.54107253748538,47.2429491423607,0,1.6795129776000977,2019-08-06 15:26:19:511
-0.024910185486078262,0.06090806424617767,9.88520336151123,0.0013958372386046994,-0.0022903450650493154,0.0069373640308990825,-125.31266424412458,49.89074047479937,0,1.6832025051116943,2019-08-06 15:26:19:515
0.03495855629444122,0.024986818432807922,9.837308883666992,0.00033031263071992917,-0.003622250702995438,0.002941646856986388,-126.40164165321494,52.48995146971246,0,1.6866300106048584,2019-08-06 15:26:19:518
0.022984808310866356,-0.03488192334771156,9.842098236083984,-0.0020671176801295454,-0.0014912016822816417,0.004806315010185286,-127.47065106596472,47.84460413464939,0,1.6899936199188232,2019-08-06 15:26:19:522
0.030169056728482246,0.041750065982341766,9.892387390136719,0.002994124134177209,-0.005220537468530785,0.0002778355485848519,-128.51680221370705,50.482336075706385,0,1.6932041645050049,2019-08-06 15:26:19:525
0.07806405425071716,0.034565817564725876,9.861255645751953,-0.0004688308170663259,-0.0012248205546924172,0.00800288854125598,-129.53716218177186,53.06876181426878,0,1.696589708328247,2019-08-06 15:26:19:528
-0.034489184617996216,-0.01811867579817772,9.92591381072998,0.0005966937908184444,-0.006552443626625559,0.005605458392952959,-123.34901305610026,48.40935196506008,0,1.7003610134124756,2019-08-06 15:26:19:532
-0.000962689402513206,0.005828820634633303,9.897176742553711,6.393147468507523e-05,-0.004687775213352337,0.0037407904998283874,-117.2814874523564,51.040481095482846,0,1.7028563022613525,2019-08-06 15:26:19:534
0.05890605226159096,0.041750065982341766,9.856466293334961,0.0016622183661939237,-0.0028231073202277645,0.004806315010185286,-118.52841897934898,53.61447002323246,0,1.706580638885498,2019-08-06 15:26:19:538
0.05172180384397507,-0.037276674062013626,9.868440628051758,0.0005966937908184444,-0.0012248205546924172,0.0037407904998283874,-119.75160475827343,48.94639221938717,0,1.7100703716278076,2019-08-06 15:26:19:542
0.08524829894304276,0.04893431439995766,9.878019332885742,0.0037932675169448835,-0.004687775213352337,0.0013433600914510408,-120.94582560405533,51.56109348855009,0,1.713329792022705,2019-08-06 15:26:19:545
-0.048857681453228,0.06330281496047974,9.866044998168945,0.0019285994937831485,-0.0006920582344953867,0.0016097412190402653,-114.93245646962171,54.122164592953126,0,1.7166049480438232,2019-08-06 15:26:19:548
-0.010541687719523907,0.041750065982341766,9.79420280456543,0.000863074918407669,-0.002023963937460091,0.002941646856986388,-109.03460149821427,56.63464930665582,0,1.7204697132110596,2019-08-06 15:26:19:552
0.06369554996490479,0.005828820634633303,9.849282264709473,0.0019285994937831485,-0.002023963937460091,0.0005442166761740764,-110.44621329734626,59.10100601325369,0,1.7229828834533691,2019-08-06 15:26:19:555
-0.010541687719523907,-0.013329177163541317,9.949861526489258,-0.00020244967322245603,-0.0022903450650493154,0.004539933882596061,-104.63803346834447,54.32056251262674,0,1.7266347408294678,2019-08-06 15:26:19:558
0.027774307876825333,0.01301306951791048,9.966625213623047,0.0016622183661939237,-0.004954156340941561,0.00507269613777451,-106.14099103564612,56.83228989767224,0,1.7305474281311035,2019-08-06 15:26:19:562
0.011011059395968914,0.0393553152680397,9.923519134521484,0.0021949807514095357,-0.0014912016822816417,0.0013433600914510408,-107.61670176363177,59.290808202029126,0,1.7329115867614746,2019-08-06 15:26:19:564
0.04693230614066124,0.034565817564725876,9.889992713928223,0.003260505261766434,-0.004155012958173888,0.004539933882596061,-109.05806789947005,61.70031061772088,0,1.7366063594818115,2019-08-06 15:26:19:568
-0.02251543663442135,0.06330281496047974,9.882808685302734,-0.0020671176801295454,-0.0028231073202277645,0.004539933882596061,-103.27897117145024,64.05936433666626,0,1.740051031112671,2019-08-06 15:26:19:572
0.11398529261350632,0.05372381582856178,9.798992156982422,0.00565793567014378,-0.004421394085763112,0.005871839520542184,-104.79943465413955,66.37109089107176,0,1.7425806522369385,2019-08-06 15:26:19:574
-0.017725937068462372,-0.027697674930095673,9.880414009094238,-0.002333498937755932,-0.00255672619263854,0.0021425034742187147,-99.10496082347964,61.44737513119653,0,1.7463488578796387,2019-08-06 15:26:19:578
0.037353307008743286,0.0297763179987669,9.825334548950195,0.0019285994937831485,-0.0054869185961200105,0.0005442166761740764,-100.71735354513125,63.81455008487499,0,1.750086784362793,2019-08-06 15:26:19:582
0.05172180384397507,0.06809231638908386,9.818150520324707,-0.00020244967322245603,-0.002023963937460091,0.004007171627417612,-102.29659124397365,66.1303497569145,0,1.7534184455871582,2019-08-06 15:26:19:585
0.020590057596564293,0.005828820634633303,9.830123901367188,0.0021949807514095357,0.0003734663733893835,0.005871839520542184,-103.84832541726122,68.40667411612719,0,1.7565760612487793,2019-08-06 15:26:19:588
-0.008146938867866993,0.05372381582856178,9.861255645751953,-0.0007352119771648412,-0.003622250702995438,0.0018761223466294901,-98.17160631548674,70.63243972023575,0,1.760014295578003,2019-08-06 15:26:19:592
0.04693230614066124,0.0297763179987669,9.868440628051758,-0.0007352119771648412,-0.005220537468530785,0.0016097412190402653,-99.80174870824237,72.81647075332297,0,1.763343095779419,2019-08-06 15:26:19:595
-0.02969968505203724,0.01301306951791048,9.880414009094238,0.0019285994937831485,-0.0017575828098708665,0.0069373640308990825,-94.20883561812082,74.95827807970834,0,1.7666122913360596,2019-08-06 15:26:19:598
-0.017725937068462372,0.024986818432807922,9.978598594665527,0.0037932675169448835,-0.005220537468530785,0.0018761223466294901,-88.72568433842198,77.05550911436227,0,1.7700583934783936,2019-08-06 15:26:19:602
-0.03209443390369415,-0.013329177163541317,9.899572372436523,0.0021949807514095357,-0.0033558695754062136,0.003208027984575613,-83.35425799885743,71.91553127599362,0,1.7733895778656006,2019-08-06 15:26:19:605
0.030169056728482246,-0.027697674930095673,9.916335105895996,0.0005966937908184444,-0.004687775213352337,0.002408884601807939,-85.28283433528377,66.88031286290484,0,1.7766273021697998,2019-08-06 15:26:19:608
0.11398529261350632,0.04893431439995766,9.880414009094238,0.00033031263071992917,-0.004687775213352337,0.0005442166761740764,-87.16305332410421,69.13696755030973,0,1.7800657749176025,2019-08-06 15:26:19:612
0.01819530874490738,0.02259206771850586,9.751097679138184,-0.0004688308170663259,-0.007085205881804008,0.0018761223466294901,-89.01632410583696,71.35166126191783,0,1.7834086418151855,2019-08-06 15:26:19:615
0.011011059395968914,0.020197318866848946,9.904361724853516,0.0021949807514095357,-0.00255672619263854,0.002941646856986388,-90.83426604645989,73.52189837713269,0,1.7865962982177734,2019-08-06 15:26:19:618
-0.0033574390690773726,0.017802570015192032,9.846887588500977,-0.0004688308170663259,-0.003622250702995438,0.006138220648131409,-85.41727039770367,75.64947940333595,0,1.7900431156158447,2019-08-06 15:26:19:622
0.030169056728482246,0.02259206771850586,9.849282264709473,0.0016622183661939237,-0.00255672619263854,-0.00025492675535753324,-87.30493401678969,77.733548653081,0,1.7933933734893799,2019-08-06 15:26:19:625
0.015800558030605316,-0.00853967759758234,9.86365032196045,-0.0033990234481128304,-0.0033558695754062136,-0.0010540701868891429,-89.1563989085241,72.5804782977526,0,1.796581745147705,2019-08-06 15:26:19:628
0.05890605226159096,-0.0037501780316233635,9.76546573638916,0.0011294561110154748,-0.004421394085763112,-0.0018532135696568165,-90.96550595291123,67.52909093927362,0,1.8000168800354004,2019-08-06 15:26:19:632
0.056511301547288895,-0.013329177163541317,9.851676940917969,0.0011294561110154748,-0.004421394085763112,0.0010769789638618162,-92.73880006984622,62.579849386006146,0,1.803330421447754,2019-08-06 15:26:19:635
0.042142804712057114,0.015407819300889969,9.79420280456543,-0.0007352119771648412,-0.003888631830584663,0.002941646856986388,-94.47838308875122,64.92658399423195,0,1.8065836429595947,2019-08-06 15:26:19:638
0.05172180384397507,-0.04685567319393158,9.801386833190918,0.0011294561110154748,-0.003622250702995438,0.0013433600914510408,-96.1820680859662,60.03331194238204,0,1.8100273609161377,2019-08-06 15:26:19:642
-0.03209443390369415,0.03217106685042381,9.923519134521484,-0.001534355424951096,-0.005753299723709235,0.0008105978362725917,-90.66104720446202,62.42922029248051,0,1.8133878707885742,2019-08-06 15:26:19:645
0.022984808310866356,-0.0324871726334095,9.866044998168945,0.0016622183661939237,-0.0009584393620846114,0.0013433600914510408,-92.44497445480145,57.58409321216458,0,1.8167731761932373,2019-08-06 15:26:19:648
0.04453755542635918,0.08006606251001358,9.818150520324707,0.0013958372386046994,-0.00255672619263854,0.0018761223466294901,-94.1903775711851,60.02279414766006,0,1.8202509880065918,2019-08-06 15:26:19:652
0.013405809178948402,0.024986818432807922,9.933098793029785,0.005391554542554556,-0.0028231073202277645,-0.0010540701868891429,-95.90462392955907,62.41869264537579,0,1.8227715492248535,2019-08-06 15:26:19:654
0.049327053129673004,0.003434071084484458,9.918729782104492,-0.004198166830880505,-0.004421394085763112,0.0008105978362725917,-97.57987999837557,64.77082667318328,0,1.8266091346740723,2019-08-06 15:26:19:658
0.07806405425071716,0.02259206771850586,9.945072174072266,0.0016622183661939237,-0.006019680851298459,0.0042735527550068365,-99.21811338807967,67.07248272336113,0,1.8300833702087402,2019-08-06 15:26:19:662
0.02537955716252327,0.07288181036710739,9.846887588500977,0.00033031263071992917,-0.003622250702995438,0.004539933882596061,-100.83011839892633,69.32248978288526,0,1.8334228992462158,2019-08-06 15:26:19:665
0.03256380558013916,0.0656975656747818,9.820545196533203,-0.0007352119771648412,-0.005220537468530785,0.0005442166761740764,-102.40878589777074,71.52850517783278,0,1.836596965789795,2019-08-06 15:26:19:668
0.011011059395968914,-0.020513426512479782,9.854071617126465,0.000863074918407669,-0.003622250702995438,0.004806315010185286,-103.95863260382232,66.5001544450347,0,1.840024471282959,2019-08-06 15:26:19:672
0.027774307876825333,0.06330281496047974,9.868440628051758,0.004326029772123333,-0.006286061978887684,0.0016097412190402653,-105.47506796965551,68.76199775789219,0,1.8433303833007812,2019-08-06 15:26:19:675
-0.000962689402513206,0.02259206771850586,9.813361167907715,-0.00020244967322245603,-0.0030894884478169893,0.0010769789638618162,-99.76511417760575,70.98415672358021,0,1.8465864658355713,2019-08-06 15:26:19:678
0.04693230614066124,-0.042066171765327454,9.849282264709473,0.0021949807514095357,-0.003888631830584663,0.002941646856986388,-101.36360055462598,65.96894382034694,0,1.8500261306762695,2019-08-06 15:26:19:682
0.013405809178948402,-0.001355428365059197,9.789413452148438,0.0024613618789987605,-0.00042567707439687154,0.0042735527550068365,-102.93468079041416,61.04926961143751,0,1.8533110618591309,2019-08-06 15:26:19:685
-0.012936437502503395,0.010618319734930992,9.94267749786377,-0.0007352119771648412,-0.004421394085763112,0.0010769789638618162,-97.2766675795417,63.42719521675952,0,1.8565759658813477,2019-08-06 15:26:19:688
0.020590057596564293,-0.010934427380561829,9.84449291229248,-0.0007352119771648412,-0.0033558695754062136,0.002941646856986388,-98.92808995640466,58.56006596617598,0,1.8600125312805176,2019-08-06 15:26:19:692
0.05890605226159096,0.015407819300889969,9.897176742553711,-0.0012679742973618717,-0.004687775213352337,0.003474409372239163,-100.54183133403689,60.987317817138305,0,1.8633430004119873,2019-08-06 15:26:19:695
0.006221559830009937,0.034565817564725876,9.842098236083984,0.002994124134177209,-0.0054869185961200105,0.0013433600914510408,-102.12926055469738,63.362995959923545,0,1.8666205406188965,2019-08-06 15:26:19:698
0.049327053129673004,0.05372381582856178,9.88520336151123,0.00033031263071992917,-0.0030894884478169893,0.0008105978362725917,-103.68035968165755,65.68944442052775,0,1.870065450668335,2019-08-06 15:26:19:702
0.027774307876825333,0.04653956741094589,9.887598037719727,0.0013958372386046994,-0.0022903450650493154,0.003474409372239163,-105.20310374379154,67.96999992239434,0,1.8734080791473389,2019-08-06 15:26:19:705
0.02537955716252327,0.01301306951791048,9.858860969543457,0.002994124134177209,-0.00042567707439687154,0.0013433600914510408,-106.69601555571896,70.20855140123385,0,1.876596212387085,2019-08-06 15:26:19:708
-0.05125243216753006,0.01301306951791048,9.911545753479004,-0.0004688308170663259,-0.006019680851298459,0.0016097412190402653,-100.96685799958937,72.40296643296453,0,1.8800361156463623,2019-08-06 15:26:19:712
0.003826810047030449,-0.06601367145776749,9.808571815490723,0.00033031263071992917,-0.0030894884478169893,0.0002778355485848519,-102.54649820221532,67.362557695595,0,1.8833539485931396,2019-08-06 15:26:19:715
0.006221559830009937,0.05372381582856178,9.86365032196045,0.0019285994937831485,-0.006818824754214785,0.0016097412190402653,-104.09360388058357,69.60871404904736,0,1.8865966796875,2019-08-06 15:26:19:718
0.05890605226159096,-0.01811867579817772,9.87322998046875,-0.0012679742973618717,-0.005220537468530785,-0.0018532135696568165,-105.60389099336432,64.61888654546684,0,1.8900220394134521,2019-08-06 15:26:19:722
0.030169056728482246,-0.013329177163541317,9.889992713928223,0.0016622183661939237,0.0011726098536849292,0.0026752657293971638,-107.08853562407272,59.727744173000445,0,1.8933331966400146,2019-08-06 15:26:19:725
0.03256380558013916,0.03217106685042381,9.921124458312988,-0.0020671176801295454,-0.003888631830584663,0.0002778355485848519,-108.54229578742057,62.12984978414416,0,1.8965754508972168,2019-08-06 15:26:19:728
0.05172180384397507,0.03696056827902794,9.889992713928223,0.000863074918407669,-0.0028231073202277645,0.003474409372239163,-109.9649120244258,64.48280368362529,0,1.9000141620635986,2019-08-06 15:26:19:732
0.04453755542635918,0.008223570883274078,9.892387390136719,-0.0018007365525403206,-0.0012248205546924172,-0.00025492675535753324,-111.36022313158838,66.79253541882161,0,1.9033808708190918,2019-08-06 15:26:19:735
0.06369554996490479,0.034565817564725876,9.858860969543457,0.002727743006587985,-0.004954156340941561,0.003208027984575613,-112.7247218159858,69.05217511736993,0,1.906592845916748,2019-08-06 15:26:19:738
0.042142804712057114,-0.001355428365059197,9.83491325378418,6.393147468507523e-05,-0.0017575828098708665,0.004539933882596061,-114.06497768417995,64.07127719533531,0,1.9100325107574463,2019-08-06 15:26:19:742
0.04693230614066124,-0.010934427380561829,9.935493469238281,0.0011294561110154748,-0.0028231073202277645,0.002408884601807939,-115.37773602401457,59.19090106575423,0,1.9133708477020264,2019-08-06 15:26:19:745
0.056511301547288895,0.05611856281757355,9.832518577575684,-0.0012679742973618717,-0.006019680851298459,0.0008105978362725917,-116.66250501898907,61.60077253098384,0,1.9165966510772705,2019-08-06 15:26:19:748
-0.015331187285482883,0.05611856281757355,9.928308486938477,0.000863074918407669,-0.0030894884478169893,0.0013433600914510408,-110.73042537660946,63.96211265003838,0,1.9200499057769775,2019-08-06 15:26:19:752
0.037353307008743286,-0.010934427380561829,9.79420280456543,0.0005966937908184444,-0.005220537468530785,0.0016097412190402653,-112.11045458326619,59.08403633539363,0,1.9234340190887451,2019-08-06 15:26:19:755
0.07327455282211304,-0.06601367145776749,9.846887588500977,-0.0010015931047540657,-0.005220537468530785,0.0013433600914510408,-113.45879347093917,54.31021518913723,0,1.9265894889831543,2019-08-06 15:26:19:758
