ACCELEROMETER X (m/s²),ACCELEROMETER Y (m/s²),ACCELEROMETER Z (m/s²),GYROSCOPE X (rad/s),GYROSCOPE Y (rad/s),GYROSCOPE Z (rad/s),Pitch (Deg),Roll (Deg),Heading (Deg),Time since start in ms ,YYYY-MO-DD HH-MI-SS_SSS
-0.000962689402513206,0.2500932812690735,9.770255088806152,-0.00393178570329128,-0.0028231073202277645,0.0018761223466294901,3.599887089868045,3.5706739262142366,0,0.0,2019-08-06 15:03:51:223
0.03495855629444122,0.27883028984069824,9.775045394897461,-0.0028662611929343817,-0.003622250702995438,0.0021425034742187147,-0.06724693749000243,7.067188207475875,0,0.0037641525268554688,2019-08-06 15:03:51:227
-0.03688393533229828,0.2884092926979065,9.899572372436523,-0.0007352119771648412,-0.0030894884478169893,0.004539933882596061,3.530383352599609,10.492601366216547,0,0.006962299346923828,2019-08-06 15:03:51:230
0.015800558030605316,0.30996203422546387,9.854071617126465,-0.004464548218544054,-0.0033558695754062136,0.00507269613777451,-0.1378135067991142,13.847479002565635,0,0.01000523567199707,2019-08-06 15:03:51:233
0.003826810047030449,0.28361979126930237,9.770255088806152,0.00033031263071992917,-0.006286061978887684,-0.0007876890592999184,-3.7332831699624567,17.137204451707014,0,0.013759851455688477,2019-08-06 15:03:51:237
-0.02251543663442135,0.2812250256538391,9.801386833190918,-0.002599880065345157,-0.004421394085763112,0.002408884601807939,-0.06045807901340172,20.362055932742265,0,0.016949176788330078,2019-08-06 15:03:51:240
-0.08238417655229568,0.2548827826976776,9.825334548950195,-0.002599880065345157,-0.0012248205546924172,0.0010769789638618162,3.53135099535671,23.525536448872074,0,0.019974231719970703,2019-08-06 15:03:51:243
0.01819530874490738,0.262067049741745,9.791808128356934,-0.0010015931047540657,-0.00255672619263854,0.004539933882596061,-0.1366041976979111,26.62457637169878,0,0.023752927780151367,2019-08-06 15:03:51:247
-0.008146938867866993,0.32433053851127625,9.770255088806152,-0.002599880065345157,-0.0054869185961200105,0.004539933882596061,3.4661554759636646,29.654525158529808,0,0.02694392204284668,2019-08-06 15:03:51:250
0.03495855629444122,0.34348851442337036,9.755887031555176,-0.0020671176801295454,-0.005753299723709235,0.0026752657293971638,-0.19806843407452623,32.62146232323777,0,0.030017852783203125,2019-08-06 15:03:51:254
-0.015331187285482883,0.25248804688453674,9.892387390136719,-0.001534355424951096,-0.0009584393620846114,0.0002778355485848519,3.4043182766906033,35.540113905524095,0,0.033757925033569336,2019-08-06 15:03:51:257
-0.07041043043136597,0.2931987941265106,9.878019332885742,-0.00393178570329128,-0.003622250702995438,0.0013433600914510408,6.928713374455999,38.39601350549489,0,0.03695082664489746,2019-08-06 15:03:51:260
-0.06322617828845978,0.3339095413684845,9.796597480773926,-0.002599880065345157,-0.006818824754214785,0.006138220648131409,10.383768905185967,41.189441622414755,0,0.03962874412536621,2019-08-06 15:03:51:263
-0.02251543663442135,0.29080402851104736,9.760676383972168,-0.0028662611929343817,-0.006019680851298459,0.002408884601807939,13.774864162058249,43.93219539015212,0,0.04381203651428223,2019-08-06 15:03:51:267
0.027774307876825333,0.2955935299396515,9.810966491699219,-0.004198166830880505,-0.003888631830584663,0.005339077265363735,9.903308728837718,46.619790140797505,0,0.04700803756713867,2019-08-06 15:03:51:270
0.02537955716252327,0.2500932812690735,9.770255088806152,-0.0012679742973618717,-0.003622250702995438,-0.0010540701868891429,6.108827837264096,49.258281312255484,0,0.05000042915344238,2019-08-06 15:03:51:273
0.022984808310866356,0.29080402851104736,9.813361167907715,-0.001534355424951096,-0.004954156340941561,0.002941646856986388,2.3903777513807096,51.839491034370944,0,0.053748130798339844,2019-08-06 15:03:51:277
-0.10872642695903778,0.2500932812690735,9.820545196533203,-0.0020671176801295454,-0.00255672619263854,0.0008105978362725917,5.930341772148771,54.37389543077477,0,0.056937456130981445,2019-08-06 15:03:51:280
0.011011059395968914,0.262067049741745,9.88520336151123,-0.0028662611929343817,-0.004687775213352337,0.003208027984575613,2.2138123190303496,56.85653494981243,0,0.05998039245605469,2019-08-06 15:03:51:283
0.0014320602640509605,0.30517253279685974,9.854071617126465,-0.0020671176801295454,-0.004687775213352337,-0.0005213078992014032,-1.4293039669265588,59.2843655831021,0,0.06375455856323242,2019-08-06 15:03:51:287
0.03495855629444122,0.24769854545593262,9.92591381072998,-0.0010015931047540657,-0.003622250702995438,0.0005442166761740764,-4.996033278388131,61.670267577963514,0,0.06694436073303223,2019-08-06 15:03:51:290
-0.04646293446421623,0.223751038312912,9.791808128356934,-0.002599880065345157,-0.0033558695754062136,0.0010769789638618162,-1.3009779980290204,64.01112482163911,0,0.06998014450073242,2019-08-06 15:03:51:293
-0.02969968505203724,0.2931987941265106,9.832518577575684,-0.001534355424951096,-0.0030894884478169893,0.004007171627417612,2.3222353621103986,66.29706739400119,0,0.07375645637512207,2019-08-06 15:03:51:297
-0.05843668058514595,0.28601452708244324,9.88520336151123,-0.0007352119771648412,-0.0054869185961200105,0.0010769789638618162,5.870000906719904,68.53811171767036,0,0.07695126533508301,2019-08-06 15:03:51:300
-0.05125243216753006,0.223751038312912,9.851676940917969,-0.0020671176801295454,-0.00015929593055300162,0.0016097412190402653,9.346666936981999,70.7416849861732,0,0.08002734184265137,2019-08-06 15:03:51:304
0.011011059395968914,0.20698779821395874,9.911545753479004,-0.005530072728900952,-0.004954156340941561,0.0018761223466294901,5.562043778294498,72.90408174530629,0,0.0837557315826416,2019-08-06 15:03:51:307
0.020590057596564293,0.30517253279685974,9.79420280456543,-0.0012679742973618717,-0.004155012958173888,-0.0013204513144783674,1.8540006694637747,75.01054736299443,0,0.08713650703430176,2019-08-06 15:03:51:311
0.030169056728482246,0.2548827826976776,9.751097679138184,-0.0018007365525403206,-0.0009584393620846114,0.0013433600914510408,-1.7793738242864368,77.08069120806803,0,0.09011268615722656,2019-08-06 15:03:51:314
0.03256380558013916,0.30996203422546387,9.820545196533203,-0.002599880065345157,-0.004687775213352337,0.002408884601807939,-5.339028037961693,79.10345294746577,0,0.09375452995300293,2019-08-06 15:03:51:317
-0.02969968505203724,0.24769854545593262,9.767860412597656,-0.0028662611929343817,-0.002023963937460091,0.004539933882596061,-1.635368878046298,81.09284517363805,0,0.09694695472717285,2019-08-06 15:03:51:320
0.03974805399775505,0.28361979126930237,9.8229398727417,-0.003132642320523606,-0.0054869185961200105,0.0042735527550068365,-5.197089413087417,83.03844514469033,0,0.09998250007629395,2019-08-06 15:03:51:323
0.0014320602640509605,0.32433053851127625,9.75349235534668,0.0005966937908184444,-0.00255672619263854,0.0026752657293971638,-8.692436837919496,84.93945880292674,0,0.10376167297363281,2019-08-06 15:03:51:327
0.008616309612989426,0.26446178555488586,9.801386833190918,0.000863074918407669,-0.004155012958173888,0.002941646856986388,-12.116834877048568,86.80960301362127,0,0.10695862770080566,2019-08-06 15:03:51:330
-0.03209443390369415,0.26925128698349,9.775045394897461,-0.003132642320523606,-0.0006920582344953867,0.004007171627417612,-8.278136230819738,88.6424177171113,0,0.11015796661376953,2019-08-06 15:03:51:334
-0.04646293446421623,0.3195410370826721,9.815755844116211,-0.00020244967322245603,-0.003888631830584663,0.0021425034742187147,-4.517147091422261,90.43232280433138,0,0.11405348777770996,2019-08-06 15:03:51:338
0.013405809178948402,0.3267252743244171,9.813361167907715,-0.005263691601311728,-0.0009584393620846114,0.003208027984575613,-8.025070106287925,92.1864645462204,0,0.1171870231628418,2019-08-06 15:03:51:341
-0.008146938867866993,0.24051429331302643,9.813361167907715,-0.002599880065345157,-0.0022903450650493154,-0.0005213078992014032,-4.26521427591411,93.9150028679583,0,0.11956453323364258,2019-08-06 15:03:51:343
-0.005752188619226217,0.26446178555488586,9.806177139282227,0.0005966937908184444,-0.005220537468530785,0.006404601775720633,-0.579514488540191,95.60568418638888,0,0.12320685386657715,2019-08-06 15:03:51:347
0.003826810047030449,0.3339095413684845,9.796597480773926,-0.0028662611929343817,-0.004155012958173888,-0.0013204513144783674,-4.166748679921743,97.2550300840812,0,0.1263267993927002,2019-08-06 15:03:51:350
0.03974805399775505,0.2955935299396515,9.767860412597656,6.393147468507523e-05,-0.003622250702995438,0.002941646856986388,-7.678142607212056,98.87525180364585,0,0.1293165683746338,2019-08-06 15:03:51:353
0.013405809178948402,0.30996203422546387,9.777440071105957,-0.0036654045757020556,-0.004687775213352337,0.002941646856986388,-11.121784915579088,100.46238819598263,0,0.13396549224853516,2019-08-06 15:03:51:357
0.05172180384397507,0.276435524225235,9.83491325378418,-0.002599880065345157,-0.0014912016822816417,0.002941646856986388,-14.493061408347598,102.02139591729534,0,0.13708853721618652,2019-08-06 15:03:51:361
0.0014320602640509605,0.3075672686100006,9.8229398727417,-0.0012679742973618717,-0.00255672619263854,0.003208027984575613,-17.80260147933668,103.54531388114955,0,0.14009523391723633,2019-08-06 15:03:51:364
0.006221559830009937,0.35546228289604187,9.84449291229248,-0.002333498937755932,-0.0030894884478169893,0.0008105978362725917,-21.045193028320075,105.03352668012312,0,0.1437397003173828,2019-08-06 15:03:51:367
0.03256380558013916,0.2955935299396515,9.775045394897461,-0.004730929346133278,-0.002023963937460091,0.0016097412190402653,-24.220109914452188,106.49906048845035,0,0.14692378044128418,2019-08-06 15:03:51:370
-0.000962689402513206,0.276435524225235,9.839703559875488,-0.0012679742973618717,-0.0030894884478169893,0.0018761223466294901,-20.135291089408344,107.93711152388408,0,0.14997172355651855,2019-08-06 15:03:51:373
0.03256380558013916,0.21177729964256287,9.743913650512695,-0.001534355424951096,-0.0017575828098708665,0.0021425034742187147,-23.32838189092081,109.35379383146267,0,0.15375924110412598,2019-08-06 15:03:51:377
0.003826810047030449,0.29080402851104736,9.86365032196045,-0.0020671176801295454,-0.005753299723709235,0.003208027984575613,-26.460339831286753,110.73331341676364,0,0.15694713592529297,2019-08-06 15:03:51:380
0.04693230614066124,0.2931987941265106,9.842098236083984,6.393147468507523e-05,-0.004155012958173888,0.006138220648131409,-29.52496154537407,112.08450922172332,0,0.15997838973999023,2019-08-06 15:03:51:383
0.003826810047030449,0.2931987941265106,9.827729225158691,-0.0028662611929343817,-0.006286061978887684,-0.0007876890592999184,-32.53268270980515,113.40925011533095,0,0.1637561321258545,2019-08-06 15:03:51:387
0.008616309612989426,0.262067049741745,9.90196704864502,0.0005966937908184444,-0.004954156340941561,0.004806315010185286,-35.48014579426237,114.7106374769847,0,0.16694164276123047,2019-08-06 15:03:51:390
-0.015331187285482883,0.33630427718162537,9.818150520324707,-0.004198166830880505,-0.0022903450650493154,-0.0015868324420675922,-31.171937079001673,115.97791297726798,0,0.1700143814086914,2019-08-06 15:03:51:394
0.05890605226159096,0.31235677003860474,9.846887588500977,-0.0007352119771648412,-0.006818824754214785,0.0018761223466294901,-34.14021079087641,117.22217134655705,0,0.17375588417053223,2019-08-06 15:03:51:397
0.008616309612989426,0.2740407884120941,9.808571815490723,-0.002599880065345157,-0.003622250702995438,0.0002778355485848519,-37.05575093654508,118.44618644605745,0,0.17694687843322754,2019-08-06 15:03:51:400
0.04453755542635918,0.360251784324646,9.818150520324707,-0.002333498937755932,-0.0022903450650493154,0.003208027984575613,-39.909031811873255,119.63564878067314,0,0.18010377883911133,2019-08-06 15:03:51:404
0.042142804712057114,0.3386990427970886,9.897176742553711,-0.0004688308170663259,-0.004155012958173888,1.1454389502251989e-05,-42.705107985375015,120.80383329867571,0,0.1838064193725586,2019-08-06 15:03:51:407
-0.012936437502503395,0.28601452708244324,9.83491325378418,-0.0007352119771648412,-0.00042567707439687154,0.0005442166761740764,-38.25243694135595,121.95457258395368,0,0.18699336051940918,2019-08-06 15:03:51:410
-0.012936437502503395,0.22135628759860992,9.772649765014648,-0.004730929346133278,-0.003622250702995438,0.002941646856986388,-33.88828944430543,123.0903339904146,0,0.19002032279968262,2019-08-06 15:03:51:414
0.015800558030605316,0.262067049741745,9.878019332885742,0.0021949807514095357,-0.004421394085763112,0.003208027984575613,-36.807763181086216,124.19767247251188,0,0.1937563419342041,2019-08-06 15:03:51:417
-0.008146938867866993,0.2500932812690735,9.854071617126465,-0.002599880065345157,-0.004954156340941561,1.1454389502251989e-05,-32.47166792267312,125.28510797419803,0,0.196946382522583,2019-08-06 15:03:51:420
0.030169056728482246,0.29798829555511475,9.882808685302734,0.0005966937908184444,-0.00042567707439687154,0.0026752657293971638,-35.418663792285535,126.34476255532775,0,0.19998669624328613,2019-08-06 15:03:51:423
0.020590057596564293,0.3003830313682556,9.875624656677246,-0.006329216111668627,-0.004954156340941561,0.003474409372239163,-38.30685293747451,127.38436259519487,0,0.20375561714172363,2019-08-06 15:03:51:427
-0.012936437502503395,0.24530379474163055,9.827729225158691,-0.0004688308170663259,-0.004421394085763112,-0.0015868324420675922,-33.94143224875282,128.4081627830222,0,0.20694589614868164,2019-08-06 15:03:51:430
0.07087980210781097,0.28361979126930237,9.810966491699219,-0.0028662611929343817,-0.0009584393620846114,0.0005442166761740764,-36.85416176619156,129.40737034640668,0,0.20997953414916992,2019-08-06 15:03:51:433
-0.0033574390690773726,0.26925128698349,9.846887588500977,-0.003132642320523606,-0.0028231073202277645,0.0037407904998283874,-32.516871431070385,130.38856042579823,0,0.21375083923339844,2019-08-06 15:03:51:437
-0.020120687782764435,0.276435524225235,9.851676940917969,-0.002599880065345157,-0.004954156340941561,0.003208027984575613,-28.267986717840333,131.34910938567074,0,0.21694183349609375,2019-08-06 15:03:51:440
-0.04646293446421623,0.31235677003860474,9.746308326721191,-0.0033990234481128304,-0.005220537468530785,0.0005442166761740764,-24.107193194043184,132.2859983905069,0,0.2200005054473877,2019-08-06 15:03:51:443
-0.000962689402513206,0.27883028984069824,9.832518577575684,-0.004730929346133278,-0.0028231073202277645,0.0018761223466294901,-20.024565371897573,133.20879031337796,0,0.22376132011413574,2019-08-06 15:03:51:447
-0.02251543663442135,0.30996203422546387,9.775045394897461,-0.0033990234481128304,-0.003888631830584663,0.0002778355485848519,-16.025984445341308,134.10892751463786,0,0.22710037231445312,2019-08-06 15:03:51:451
0.05890605226159096,0.2884092926979065,9.882808685302734,-0.0018007365525403206,-0.0030894884478169893,0.0005442166761740764,-19.298115802128244,134.99361970023608,0,0.23009133338928223,2019-08-06 15:03:51:454
0.011011059395968914,0.2740407884120941,9.796597480773926,-0.002333498937755932,-0.00255672619263854,-0.0005213078992014032,-22.510297922671462,135.8622189355222,0,0.23404502868652344,2019-08-06 15:03:51:458
-0.024910185486078262,0.25248804688453674,9.866044998168945,-0.001534355424951096,-0.004687775213352337,0.0042735527550068365,-18.462126395131584,136.71593622247704,0,0.23730778694152832,2019-08-06 15:03:51:461
0.027774307876825333,0.2931987941265106,9.84449291229248,-0.0036654045757020556,-0.0033558695754062136,0.0008105978362725917,-21.68912082234946,137.54807771907107,0,0.24012088775634766,2019-08-06 15:03:51:464
0.03974805399775505,0.2955935299396515,9.722360610961914,-0.0004688308170663259,-0.004687775213352337,0.003474409372239163,-24.849701561076067,138.36238229156197,0,0.24373769760131836,2019-08-06 15:03:51:467
0.03974805399775505,0.2548827826976776,9.801386833190918,-0.0036654045757020556,-0.0009584393620846114,0.0037407904998283874,-27.94789002231854,139.16599392996773,0,0.24690485000610352,2019-08-06 15:03:51:470
0.006221559830009937,0.25248804688453674,9.789413452148438,-0.0012679742973618717,-0.006286061978887684,0.0018761223466294901,-30.98712275482899,139.95334329611984,0,0.2499680519104004,2019-08-06 15:03:51:473
0.04693230614066124,0.26446178555488586,9.767860412597656,-0.0012679742973618717,-0.004421394085763112,-0.0021195946972460415,-33.96093235663351,140.7235288837657,0,0.25376296043395996,2019-08-06 15:03:51:477
-0.020120687782764435,0.262067049741745,9.801386833190918,-0.0010015931047540657,-0.003622250702995438,0.0005442166761740764,-29.683419694378827,141.4786051328478,0,0.2569410800933838,2019-08-06 15:03:51:480
0.02537955716252327,0.2429090440273285,9.846887588500977,-0.0028662611929343817,0.0011726098536849292,0.0021425034742187147,-32.68700193804417,142.22126959388646,0,0.2600414752960205,2019-08-06 15:03:51:484
-0.02251543663442135,0.3482780158519745,9.84449291229248,-0.0007352119771648412,-0.004687775213352337,0.003208027984575613,-28.43489658101104,142.93647561740823,0,0.26378798484802246,2019-08-06 15:03:51:487
-0.034489184617996216,0.3195410370826721,9.870835304260254,-0.0012679742973618717,-0.003888631830584663,0.0005442166761740764,-24.269507651371487,143.64088977900147,0,0.2669703960418701,2019-08-06 15:03:51:490
0.020590057596564293,0.2740407884120941,9.858860969543457,-0.002599880065345157,-0.004155012958173888,0.0013433600914510408,-27.381013515498296,144.33667260009398,0,0.2700169086456299,2019-08-06 15:03:51:494
-0.0033574390690773726,0.276435524225235,9.830123901367188,0.000863074918407669,-0.006552443626625559,0.0016097412190402653,-23.232398848274038,145.01754050979514,0,0.27378344535827637,2019-08-06 15:03:51:497
-0.027304936200380325,0.2548827826976776,9.801386833190918,-0.0020671176801295454,-0.006552443626625559,0.0002778355485848519,-19.169772137512297,145.68776657861258,0,0.2769663333892822,2019-08-06 15:03:51:500
-0.008146938867866993,0.24769854545593262,9.710386276245117,-0.003132642320523606,-0.004421394085763112,-0.0010540701868891429,-15.186554374610617,146.34534215092327,0,0.280123233795166,2019-08-06 15:03:51:504
-0.03209443390369415,0.30277779698371887,9.849282264709473,-0.0033990234481128304,-0.004687775213352337,0.004539933882596061,-11.285585086883653,146.98392462667718,0,0.2838168144226074,2019-08-06 15:03:51:507
0.037353307008743286,0.25248804688453674,9.86365032196045,-0.006329216111668627,-0.002023963937460091,0.005605458392952959,-14.65517225078996,147.6160503961693,0,0.2869987487792969,2019-08-06 15:03:51:510
-0.024910185486078262,0.29080402851104736,9.813361167907715,-0.00020244967322245603,-0.003888631830584663,0.003474409372239163,-10.764314682013712,148.2298163697352,0,0.29003477096557617,2019-08-06 15:03:51:514
-0.005752188619226217,0.29080402851104736,9.842098236083984,-0.003132642320523606,-0.004421394085763112,0.0005442166761740764,-6.948769306856312,148.83202965325043,0,0.2937760353088379,2019-08-06 15:03:51:517
0.027774307876825333,0.3003830313682556,9.827729225158691,-0.0028662611929343817,-0.006019680851298459,-0.0005213078992014032,-10.405480656274337,149.4208869829574,0,0.29695582389831543,2019-08-06 15:03:51:520
-0.017725937068462372,0.27883028984069824,9.866044998168945,-0.00393178570329128,-0.006286061978887684,0.0016097412190402653,-6.598350605738819,150.0007674950926,0,0.30001354217529297,2019-08-06 15:03:51:524
-0.020120687782764435,0.2548827826976776,9.813361167907715,-0.005796453856490177,-0.0033558695754062136,0.004539933882596061,-2.8680214808412305,150.57222508248276,0,0.3037900924682617,2019-08-06 15:03:51:527
0.08285354822874069,0.2500932812690735,9.79420280456543,-0.003132642320523606,-0.0014912016822816417,0.005339077265363735,-6.400700963561221,151.13208604262923,0,0.3069729804992676,2019-08-06 15:03:51:530
-0.02969968505203724,0.2931987941265106,9.849282264709473,-0.002599880065345157,-0.004421394085763112,0.0010769789638618162,-2.6753865496532914,151.6757865794671,0,0.31001734733581543,2019-08-06 15:03:51:534
0.0756693035364151,0.31235677003860474,9.842098236083984,-0.001534355424951096,-0.004155012958173888,0.003208027984575613,-6.2121926273529375,152.2062389057416,0,0.31377291679382324,2019-08-06 15:03:51:537
0.01819530874490738,0.26446178555488586,9.787018775939941,-0.003132642320523606,-0.004421394085763112,-0.0015868324420675922,-9.685030438177275,152.73171535342317,0,0.31694674491882324,2019-08-06 15:03:51:540
0.006221559830009937,0.30996203422546387,9.839703559875488,-0.0036654045757020556,-0.00255672619263854,0.003208027984575613,-13.090162580661882,153.24162997754254,0,0.32003045082092285,2019-08-06 15:03:51:544
0.008616309612989426,0.3267252743244171,9.75349235534668,6.393147468507523e-05,-0.004954156340941561,0.003474409372239163,-16.42630237875121,153.7384120378994,0,0.32378578186035156,2019-08-06 15:03:51:547
-0.008146938867866993,0.3410937786102295,9.775045394897461,-0.0028662611929343817,-0.006552443626625559,0.002408884601807939,-12.4975599027837,154.22418649019497,0,0.32696986198425293,2019-08-06 15:03:51:550
-0.0033574390690773726,0.30996203422546387,9.870835304260254,-0.0012679742973618717,-0.004155012958173888,0.0010769789638618162,-8.647290103365226,154.7039469357291,0,0.33000612258911133,2019-08-06 15:03:51:553
-0.02251543663442135,0.2884092926979065,9.73672866821289,-0.0018007365525403206,-0.004155012958173888,0.002408884601807939,-4.876113056227087,155.1763168805772,0,0.3337826728820801,2019-08-06 15:03:51:557
0.05172180384397507,0.30996203422546387,9.758281707763672,-0.001534355424951096,-0.003622250702995438,0.0010769789638618162,-8.371877358193764,155.63667493106595,0,0.3369283676147461,2019-08-06 15:03:51:560
0.030169056728482246,0.21177729964256287,9.746308326721191,-0.0036654045757020556,-0.004954156340941561,0.0008105978362725917,-11.800039282720217,156.09967720275023,0,0.339996337890625,2019-08-06 15:03:51:563
-0.010541687719523907,0.33630427718162537,9.818150520324707,0.0016622183661939237,-0.0028231073202277645,0.005339077265363735,-7.964670551472799,156.53809530484057,0,0.34377074241638184,2019-08-06 15:03:51:567
-0.000962689402513206,0.2285405397415161,9.722360610961914,6.393147468507523e-05,-0.003622250702995438,-0.0021195946972460415,-4.204843339733975,156.98039024924597,0,0.3469531536102295,2019-08-06 15:03:51:570
0.02537955716252327,0.26925128698349,9.837308883666992,-0.005796453856490177,-0.005220537468530785,0.002941646856986388,-7.716895669263797,157.41041918121792,0,0.3500044345855713,2019-08-06 15:03:51:573
-0.000962689402513206,0.26446178555488586,9.882808685302734,-0.002333498937755932,-0.0017575828098708665,0.0021425034742187147,-3.9622964680052113,157.83204877098953,0,0.35378313064575195,2019-08-06 15:03:51:577
-0.03927868604660034,0.2548827826976776,9.976203918457031,-0.004198166830880505,-0.0030894884478169893,0.004007171627417612,-0.2870103560864954,158.2468870337419,0,0.3569645881652832,2019-08-06 15:03:51:580
0.0014320602640509605,0.32912003993988037,9.806177139282227,-0.002599880065345157,-0.002023963937460091,-0.0007876890592999184,-3.8807574757103747,158.6439474967873,0,0.3600032329559326,2019-08-06 15:03:51:583
-0.0033574390690773726,0.30996203422546387,9.866044998168945,0.0016622183661939237,-0.004954156340941561,0.0002778355485848519,-0.20248273622132285,159.03472695238958,0,0.36377620697021484,2019-08-06 15:03:51:587
-0.03927868604660034,0.25727754831314087,9.854071617126465,-0.002333498937755932,-0.0009584393620846114,0.0026752657293971638,3.397170149334198,159.4245367876033,0,0.36695122718811035,2019-08-06 15:03:51:590
0.01819530874490738,0.21417205035686493,9.810966491699219,-0.005263691601311728,-0.003622250702995438,-0.0005213078992014032,-0.26801940759658516,159.81194836487114,0,0.370042085647583,2019-08-06 15:03:51:594
-0.03688393533229828,0.2931987941265106,9.789413452148438,-0.003132642320523606,-0.0054869185961200105,1.1454389502251989e-05,3.3341806182541545,160.18205943339535,0,0.3737978935241699,2019-08-06 15:03:51:597
-0.04406818374991417,0.36264652013778687,9.777440071105957,0.00033031263071992917,-0.003888631830584663,0.002941646856986388,6.8630265981142795,160.5358765805824,0,0.37697792053222656,2019-08-06 15:03:51:600
-0.012936437502503395,0.30517253279685974,9.837308883666992,-0.0020671176801295454,-0.003622250702995438,0.007470126286077531,10.32487818908164,160.8899751781421,0,0.3800215721130371,2019-08-06 15:03:51:604
-0.008146938867866993,0.23333004117012024,9.88520336151123,-0.00020244967322245603,-0.003622250702995438,0.0021425034742187147,13.71822958607541,161.24517688128205,0,0.3839223384857178,2019-08-06 15:03:51:607
-0.020120687782764435,0.30517253279685974,9.916335105895996,-0.00659559723925785,-0.0033558695754062136,0.0026752657293971638,17.042123377202277,161.5861660212685,0,0.38701891899108887,2019-08-06 15:03:51:611
-0.034489184617996216,0.26446178555488586,9.78222942352295,0.0013958372386046994,0.00010708522141819095,0.0010769789638618162,20.297221295015348,161.9232165996933,0,0.3902585506439209,2019-08-06 15:03:51:614
0.07327455282211304,0.2884092926979065,9.779834747314453,0.0011294561110154748,-0.0006920582344953867,0.006670982903309857,16.29997938429065,162.25077782455003,0,0.39326953887939453,2019-08-06 15:03:51:617
0.049327053129673004,0.2931987941265106,9.84449291229248,-0.001534355424951096,-0.003622250702995438,-0.0007876890592999184,12.380374441380184,162.57192009951794,0,0.39647984504699707,2019-08-06 15:03:51:620
0.003826810047030449,0.2884092926979065,9.777440071105957,-0.006062834984079402,-0.0033558695754062136,0.0037407904998283874,8.533793197720492,162.88773370995855,0,0.39954590797424316,2019-08-06 15:03:51:623
0.015800558030605316,0.26446178555488586,9.818150520324707,-0.0018007365525403206,-0.003888631830584663,0.0026752657293971638,4.765773215394859,163.19949600232,0,0.40326356887817383,2019-08-06 15:03:51:627
-0.05125243216753006,0.27164602279663086,9.818150520324707,-0.0020671176801295454,-0.0022903450650493154,0.003208027984575613,8.264878511296152,163.50417262016242,0,0.40639400482177734,2019-08-06 15:03:51:630
0.0756693035364151,0.3075672686100006,9.806177139282227,-0.0020671176801295454,-0.006818824754214785,0.003474409372239163,4.509572856347681,163.79850822225995,0,0.4093966484069824,2019-08-06 15:03:51:633
0.05411655455827713,0.29080402851104736,9.813361167907715,-0.005263691601311728,-0.0017575828098708665,0.00507269613777451,0.8261356529853878,164.08989351292254,0,0.4138052463531494,2019-08-06 15:03:51:637
-0.034489184617996216,0.2548827826976776,9.787018775939941,0.0013958372386046994,-0.00255672619263854,-0.0005213078992014032,4.406031887655791,164.37800981545027,0,0.4169893264770508,2019-08-06 15:03:51:640
-0.012936437502503395,0.2884092926979065,9.870835304260254,-0.0028662611929343817,-0.00255672619263854,0.003208027984575613,7.916855941729973,164.65747795721788,0,0.42009949684143066,2019-08-06 15:03:51:644
-0.03927868604660034,0.29798829555511475,9.839703559875488,-0.0012679742973618717,0.0006398475334878987,0.003474409372239163,11.353813477612057,164.92989545502016,0,0.42374682426452637,2019-08-06 15:03:51:647
0.042142804712057114,0.30277779698371887,9.801386833190918,-0.0010015931047540657,-0.0017575828098708665,0.003208027984575613,7.531977252545512,165.19608832527356,0,0.42691850662231445,2019-08-06 15:03:51:650
-0.017725937068462372,0.25967228412628174,9.830123901367188,-0.0010015931047540657,-0.003888631830584663,0.0010769789638618162,10.980013135991506,165.46209417956592,0,0.4303157329559326,2019-08-06 15:03:51:654
0.037353307008743286,0.25967228412628174,9.83491325378418,-0.001534355424951096,-0.004421394085763112,-0.00025492675535753324,7.165653753489779,165.72291198750295,0,0.4338953495025635,2019-08-06 15:03:51:657
-0.05364718288183212,0.33151477575302124,9.87322998046875,-0.0007352119771648412,-0.0030894884478169893,0.006138220648131409,10.616665904468404,165.9701229035276,0,0.437075138092041,2019-08-06 15:03:51:661
-0.05125243216753006,0.2093825489282608,9.882808685302734,-0.0028662611929343817,-0.00015929593055300162,0.002408884601807939,13.998412156929106,166.22684656682588,0,0.439563512802124,2019-08-06 15:03:51:663
0.06609030067920685,0.33630427718162537,9.846887588500977,0.00033031263071992917,-0.004687775213352337,0.002408884601807939,10.127092921034505,166.46312047543339,0,0.4432029724121094,2019-08-06 15:03:51:667
-0.027304936200380325,0.2740407884120941,9.976203918457031,-0.0010015931047540657,-0.00255672619263854,0.002408884601807939,13.521863514865629,166.70256413965663,0,0.44632935523986816,2019-08-06 15:03:51:670
-0.03688393533229828,0.26446178555488586,9.798992156982422,-0.00393178570329128,-0.004687775213352337,0.003208027984575613,16.84801936240305,166.9383538367701,0,0.44977283477783203,2019-08-06 15:03:51:673
-0.07519993185997009,0.26446178555488586,9.83491325378418,-0.0036654045757020556,-0.003622250702995438,0.0021425034742187147,20.103021298597092,167.16951310493954,0,0.45333290100097656,2019-08-06 15:03:51:677
-0.005752188619226217,0.2955935299396515,9.777440071105957,-0.0018007365525403206,-0.004687775213352337,0.0021425034742187147,23.30110875788783,167.3918056161428,0,0.45645594596862793,2019-08-06 15:03:51:680
-0.010541687719523907,0.24051429331302643,9.76546573638916,-0.0004688308170663259,-0.0014912016822816417,0.002408884601807939,26.43412449296555,167.61583880959057,0,0.45973920822143555,2019-08-06 15:03:51:683
0.03974805399775505,0.30996203422546387,9.76546573638916,-0.0010015931047540657,-0.003622250702995438,0.005871839520542184,22.31081229585824,167.82735741242828,0,0.4632110595703125,2019-08-06 15:03:51:687
-0.000962689402513206,0.29080402851104736,9.798992156982422,-0.0028662611929343817,-0.003622250702995438,0.0026752657293971638,25.465116141998685,168.03731361105568,0,0.4663217067718506,2019-08-06 15:03:51:690
-0.034489184617996216,0.31714627146720886,9.827729225158691,-0.001534355424951096,-0.008150730392160906,0.003474409372239163,28.553268935602645,168.23987879239925,0,0.46954798698425293,2019-08-06 15:03:51:693
0.08285354822874069,0.29080402851104736,9.849282264709473,-0.0033990234481128304,-0.0033558695754062136,0.003474409372239163,24.39258469926604,168.4420087283482,0,0.47348451614379883,2019-08-06 15:03:51:697
0.015800558030605316,0.24530379474163055,9.810966491699219,-0.0010015931047540657,-0.004954156340941561,0.005605458392952959,20.307453488287067,168.64470006951925,0,0.47662997245788574,2019-08-06 15:03:51:700
0.03256380558013916,0.33151477575302124,9.866044998168945,-0.003132642320523606,-0.00255672619263854,1.1454389502251989e-05,16.305552132437864,168.83388635468768,0,0.4798727035522461,2019-08-06 15:03:51:703
-0.041673433035612106,0.321935772895813,9.791808128356934,-0.002333498937755932,-0.006552443626625559,1.1454389502251989e-05,19.575788100039585,169.0199825758677,0,0.4831993579864502,2019-08-06 15:03:51:707
-0.015331187285482883,0.314751535654068,9.727149963378906,-0.002333498937755932,-0.0012248205546924172,0.004539933882596061,22.782687478449432,169.20293777885726,0,0.4864163398742676,2019-08-06 15:03:51:710
0.03974805399775505,0.2548827826976776,9.815755844116211,-0.0018007365525403206,-0.0012248205546924172,-0.00025492675535753324,18.731905529921242,169.3894704741948,0,0.48978304862976074,2019-08-06 15:03:51:713
-0.02251543663442135,0.24769854545593262,9.810966491699219,-0.002333498937755932,-0.006818824754214785,0.0042735527550068365,21.955952681512134,169.57320618130043,0,0.49321770668029785,2019-08-06 15:03:51:717
0.020590057596564293,0.2884092926979065,9.84449291229248,0.0013958372386046994,-0.006019680851298459,0.0005442166761740764,17.92028304323413,169.74793622960024,0,0.49633216857910156,2019-08-06 15:03:51:720
-0.027304936200380325,0.30996203422546387,9.825334548950195,-0.0018007365525403206,-0.005753299723709235,0.0026752657293971638,21.159733629226142,169.9171647889292,0,0.499553918838501,2019-08-06 15:03:51:723
-0.0033574390690773726,0.24769854545593262,9.743913650512695,6.393147468507523e-05,-0.003888631830584663,0.003474409372239163,24.336999888841216,170.0896835502721,0,0.5034732818603516,2019-08-06 15:03:51:727
-0.000962689402513206,0.3195410370826721,9.784624099731445,-0.0004688308170663259,-0.007351587009393233,0.004539933882596061,27.451438672388996,170.25056283838938,0,0.5066020488739014,2019-08-06 15:03:51:730
-0.015331187285482883,0.34348851442337036,9.894782066345215,-0.004198166830880505,-0.004421394085763112,0.0005442166761740764,30.501445000670774,170.4065577942812,0,0.5098671913146973,2019-08-06 15:03:51:733
-0.024910185486078262,0.25727754831314087,9.827729225158691,-0.00393178570329128,-0.003622250702995438,0.0026752657293971638,33.48918900215313,170.5691701822931,0,0.5131978988647461,2019-08-06 15:03:51:737
-0.034489184617996216,0.30277779698371887,9.75349235534668,-0.0018007365525403206,-0.005753299723709235,0.005339077265363735,36.41635891575345,170.72254031158744,0,0.5163111686706543,2019-08-06 15:03:51:740
0.013405809178948402,0.3003830313682556,9.775045394897461,0.0005966937908184444,-0.004155012958173888,0.004806315010185286,32.09035592821847,170.87277899315282,0,0.5195372104644775,2019-08-06 15:03:51:743
-0.000962689402513206,0.276435524225235,9.87322998046875,-0.00020244967322245603,-0.004155012958173888,0.002408884601807939,35.04935437034947,171.02329258199075,0,0.5234689712524414,2019-08-06 15:03:51:747
-0.024910185486078262,0.29798829555511475,9.83491325378418,-0.0020671176801295454,-0.005220537468530785,0.0026752657293971638,37.94637754753521,171.16847860243203,0,0.5265824794769287,2019-08-06 15:03:51:750
0.07806405425071716,0.2931987941265106,9.796597480773926,-0.0004688308170663259,-0.0017575828098708665,0.0010769789638618162,33.5969051995801,171.31091004991532,0,0.52986741065979,2019-08-06 15:03:51:753
0.03974805399775505,0.3267252743244171,9.911545753479004,-0.002333498937755932,-0.004155012958173888,0.005871839520542184,29.330339743356635,171.4473679376247,0,0.5331988334655762,2019-08-06 15:03:51:757
0.008616309612989426,0.321935772895813,9.92591381072998,-0.00393178570329128,-0.007085205881804008,0.002408884601807939,25.145971074074556,171.58195712737486,0,0.5363242626190186,2019-08-06 15:03:51:760
0.03256380558013916,0.29080402851104736,9.8229398727417,-0.004464548218544054,-0.006019680851298459,0.004007171627417612,21.047989285862098,171.71724817510446,0,0.5396935939788818,2019-08-06 15:03:51:763
0.01819530874490738,0.2357247918844223,9.810966491699219,-0.0018007365525403206,-0.002023963937460091,0.0008105978362725917,17.0295574422704,171.8557343023141,0,0.5432374477386475,2019-08-06 15:03:51:767
-0.05843668058514595,0.27883028984069824,9.779834747314453,-0.002333498937755932,-0.004954156340941561,0.002941646856986388,20.282986636142954,171.9863661099848,0,0.5463554859161377,2019-08-06 15:03:51:770
0.0014320602640509605,0.2955935299396515,9.878019332885742,-0.001534355424951096,-0.0028231073202277645,-0.0007876890592999184,16.278009592345217,172.11263896275756,0,0.5496141910552979,2019-08-06 15:03:51:773
0.013405809178948402,0.26925128698349,9.825334548950195,-0.0007352119771648412,-0.00015929593055300162,-0.0007876890592999184,12.354047492708693,172.23915127792512,0,0.5534815788269043,2019-08-06 15:03:51:777
0.06130080297589302,0.314751535654068,9.767860412597656,-0.0010015931047540657,-0.004421394085763112,0.0010769789638618162,8.514938306559653,172.35763275655376,0,0.5566248893737793,2019-08-06 15:03:51:780
0.05172180384397507,0.28601452708244324,9.904361724853516,-0.0010015931047540657,-0.0028231073202277645,0.0021425034742187147,4.751137967640437,172.47758045462396,0,0.5598697662353516,2019-08-06 15:03:51:783
-0.020120687782764435,0.28601452708244324,9.842098236083984,-0.0018007365525403206,-0.0028231073202277645,0.0037407904998283874,8.25429902202121,172.5950733481433,0,0.5631909370422363,2019-08-06 15:03:51:787
0.008616309612989426,0.262067049741745,9.86365032196045,-0.004464548218544054,-0.0022903450650493154,0.003208027984575613,4.4906148500850485,172.71351452583087,0,0.566307544708252,2019-08-06 15:03:51:790
-0.020120687782764435,0.3410937786102295,9.83491325378418,0.0019285994937831485,-0.004954156340941561,0.002941646856986388,7.999354868333149,172.81916852749055,0,0.5695309638977051,2019-08-06 15:03:51:793
0.015800558030605316,0.21896153688430786,9.746308326721191,-0.005530072728900952,-0.006019680851298459,0.0018761223466294901,4.2424904754521044,172.9382073134649,0,0.5732734203338623,2019-08-06 15:03:51:797
-0.034489184617996216,0.30996203422546387,9.772649765014648,-0.0012679742973618717,0.0022381343640418276,0.004007171627417612,7.7532171279048265,173.0433249686662,0,0.5762927532196045,2019-08-06 15:03:51:800
-0.02969968505203724,0.2931987941265106,9.832518577575684,-0.0033990234481128304,-0.0009584393620846114,1.1454389502251989e-05,11.194879604488296,173.14896531827654,0,0.5797882080078125,2019-08-06 15:03:51:803
0.003826810047030449,0.3267252743244171,9.904361724853516,-0.0020671176801295454,-0.0033558695754062136,0.004806315010185286,7.3720669783732165,173.24859381299416,0,0.5831964015960693,2019-08-06 15:03:51:807
0.02537955716252327,0.3267252743244171,9.86365032196045,-0.00020244967322245603,-0.00255672619263854,0.003208027984575613,3.6280571339100547,173.34571654885195,0,0.5865609645843506,2019-08-06 15:03:51:810
0.015800558030605316,0.25967228412628174,9.772649765014648,-0.0004688308170663259,-0.005220537468530785,0.0018761223466294901,-0.041691083542006346,173.4484471118645,0,0.589836597442627,2019-08-06 15:03:51:813
-0.024910185486078262,0.2500932812690735,9.878019332885742,-0.002599880065345157,-0.0030894884478169893,0.002941646856986388,3.556839517149288,173.550965461473,0,0.5932176113128662,2019-08-06 15:03:51:817
-0.06562092900276184,0.24530379474163055,9.849282264709473,-0.002333498937755932,-0.003888631830584663,0.0013433600914510408,7.078747573218481,173.65181985958517,0,0.5963292121887207,2019-08-06 15:03:51:820
0.03256380558013916,0.23093529045581818,9.868440628051758,-0.002599880065345157,-0.0028231073202277645,0.0016097412190402653,3.341464178362627,173.75244226855256,0,0.59954833984375,2019-08-06 15:03:51:823
-0.0033574390690773726,0.30277779698371887,9.851676940917969,-0.001534355424951096,-0.002023963937460091,0.0008105978362725917,6.87468986669403,173.84252408912346,0,0.6034684181213379,2019-08-06 15:03:51:827
-0.000962689402513206,0.30277779698371887,9.767860412597656,-0.0012679742973618717,-0.0009584393620846114,0.002408884601807939,10.337251535684626,173.93038742098688,0,0.6065976619720459,2019-08-06 15:03:51:830
-0.020120687782764435,0.3195410370826721,9.787018775939941,-0.00659559723925785,-0.00255672619263854,0.003208027984575613,13.728619860669518,174.01558978122284,0,0.6098659038543701,2019-08-06 15:03:51:833
-0.005752188619226217,0.24769854545593262,9.810966491699219,-0.003132642320523606,-0.003622250702995438,0.0010769789638618162,17.05405202157372,174.10693805614173,0,0.6131916046142578,2019-08-06 15:03:51:837
-0.010541687719523907,0.33151477575302124,9.810966491699219,-0.001534355424951096,-0.005220537468530785,0.0018761223466294901,20.312652458420505,174.1863615361815,0,0.6163053512573242,2019-08-06 15:03:51:840
0.06130080297589302,0.29798829555511475,9.76546573638916,6.393147468507523e-05,-0.006818824754214785,-0.0005213078992014032,16.314821086430705,174.26766659395813,0,0.619513988494873,2019-08-06 15:03:51:843
0.011011059395968914,0.25727754831314087,9.84449291229248,-0.0018007365525403206,-0.0012248205546924172,0.0008105978362725917,12.390076459504648,174.35276962311468,0,0.623441219329834,2019-08-06 15:03:51:847
0.003826810047030449,0.276435524225235,9.882808685302734,-0.002333498937755932,-0.003888631830584663,0.0013433600914510408,8.54339826473335,174.43407760177126,0,0.6265537738800049,2019-08-06 15:03:51:850
-0.041673433035612106,0.31714627146720886,9.767860412597656,-0.002599880065345157,-0.004421394085763112,0.0026752657293971638,11.968458058220948,174.50868333682865,0,0.6298432350158691,2019-08-06 15:03:51:853
0.07087980210781097,0.314751535654068,9.770255088806152,-0.00659559723925785,-0.00042567707439687154,0.0005442166761740764,8.137483329301869,174.582867045047,0,0.6332471370697021,2019-08-06 15:03:51:857
0.027774307876825333,0.35546228289604187,9.787018775939941,0.0011294561110154748,-0.005220537468530785,0.006404601775720633,4.378895071402541,174.64941183855393,0,0.6363496780395508,2019-08-06 15:03:51:860
0.05172180384397507,0.35067278146743774,9.830123901367188,-0.004730929346133278,-0.0033558695754062136,1.1454389502251989e-05,0.6979623050048716,174.7164306015818,0,0.6396181583404541,2019-08-06 15:03:51:863
-0.0033574390690773726,0.24530379474163055,9.830123901367188,0.0005966937908184444,-0.0009584393620846114,0.0002778355485848519,4.283819406596832,174.79338308286867,0,0.6434781551361084,2019-08-06 15:03:51:867
0.06609030067920685,0.2812250256538391,9.842098236083984,-0.002599880065345157,-0.0028231073202277645,0.0026752657293971638,0.6063326641775575,174.8652370327146,0,0.6466000080108643,2019-08-06 15:03:51:870
-0.07280518114566803,0.262067049741745,9.878019332885742,-0.0049973104737225035,-0.0028231073202277645,0.0037407904998283874,4.1862786557180085,174.93845550869338,0,0.6498701572418213,2019-08-06 15:03:51:873
-0.0033574390690773726,0.21177729964256287,9.830123901367188,0.000863074918407669,-0.003622250702995438,0.002408884601807939,7.70283917716613,175.014841525445,0,0.6532011032104492,2019-08-06 15:03:51:877
-0.034489184617996216,0.28361979126930237,9.837308883666992,-0.00020244967322245603,-0.004954156340941561,0.003474409372239163,11.145633765303167,175.0815514192453,0,0.6563246250152588,2019-08-06 15:03:51:880
-0.024910185486078262,0.32433053851127625,9.887598037719727,-0.0012679742973618717,-0.00015929593055300162,0.0016097412190402653,14.51986300015328,175.1425754734015,0,0.6595501899719238,2019-08-06 15:03:51:883
-0.010541687719523907,0.3195410370826721,9.839703559875488,-0.0010015931047540657,-0.0028231073202277645,-0.0010540701868891429,17.82885629787752,175.20274315331758,0,0.6634502410888672,2019-08-06 15:03:51:887
-0.027304936200380325,0.27164602279663086,9.86365032196045,-0.004730929346133278,-0.004155012958173888,0.0013433600914510408,21.069834628229078,175.26796609182895,0,0.6665689945220947,2019-08-06 15:03:51:890
0.0014320602640509605,0.27883028984069824,9.892387390136719,-0.0028662611929343817,-0.0054869185961200105,0.004007171627417612,17.04961800658145,175.33084593216654,0,0.66986083984375,2019-08-06 15:03:51:893
0.027774307876825333,0.2429090440273285,9.789413452148438,0.000863074918407669,-0.0009584393620846114,0.002941646856986388,13.11205726923964,175.39563822803717,0,0.6732141971588135,2019-08-06 15:03:51:897
-0.02251543663442135,0.3075672686100006,9.83491325378418,-0.0033990234481128304,-0.006552443626625559,0.003208027984575613,16.448339574844923,175.4524958281497,0,0.6763312816619873,2019-08-06 15:03:51:900
-0.048857681453228,0.2884092926979065,9.86365032196045,-0.003132642320523606,-0.006286061978887684,0.002941646856986388,19.714863618582477,175.51053083146405,0,0.6796371936798096,2019-08-06 15:03:51:903
0.056511301547288895,0.28361979126930237,9.818150520324707,-0.0012679742973618717,-0.0022903450650493154,-0.0007876890592999184,15.727689797171228,175.5675192529941,0,0.6837418079376221,2019-08-06 15:03:51:907
0.027774307876825333,0.27164602279663086,9.846887588500977,-0.0012679742973618717,-0.004954156340941561,0.0026752657293971638,11.81723149799545,175.6247854761286,0,0.6868453025817871,2019-08-06 15:03:51:910
0.06369554996490479,0.26446178555488586,9.73672866821289,-0.001534355424951096,-0.00255672619263854,0.002408884601807939,7.988838964145344,175.6814464910192,0,0.6900207996368408,2019-08-06 15:03:51:914
-0.017725937068462372,0.321935772895813,9.772649765014648,-0.0007352119771648412,-0.007085205881804008,0.002408884601807939,11.428254406675748,175.73021371179854,0,0.6932148933410645,2019-08-06 15:03:51:917
-0.000962689402513206,0.31235677003860474,9.889992713928223,-0.004730929346133278,-0.004155012958173888,0.002408884601807939,14.800302721279452,175.78025530983192,0,0.6963222026824951,2019-08-06 15:03:51:920
-0.000962689402513206,0.2668565511703491,9.796597480773926,-0.0036654045757020556,-0.004421394085763112,0.0021425034742187147,18.104914878737155,175.83404936308645,0,0.6992659568786621,2019-08-06 15:03:51:923
0.056511301547288895,0.24530379474163055,9.751097679138184,-0.00020244967322245603,-0.0033558695754062136,0.0013433600914510408,14.15007030652642,175.88858416064878,0,0.7025179862976074,2019-08-06 15:03:51:926
-0.04646293446421623,0.3530675172805786,9.861255645751953,-0.003132642320523606,-0.006286061978887684,0.0018761223466294901,17.46307444476085,175.93050221632052,0,0.7064976692199707,2019-08-06 15:03:51:930
-0.03209443390369415,0.25248804688453674,9.79420280456543,-0.002599880065345157,-0.002023963937460091,0.0008105978362725917,20.710403728967723,175.98280195208045,0,0.7095403671264648,2019-08-06 15:03:51:933
-0.027304936200380325,0.3267252743244171,9.796597480773926,-0.0018007365525403206,-0.003888631830584663,0.0037407904998283874,23.89380227559468,176.0253134545978,0,0.7132065296173096,2019-08-06 15:03:51:937
0.06369554996490479,0.3195410370826721,9.868440628051758,-0.0018007365525403206,-0.005220537468530785,1.1454389502251989e-05,19.82423815014225,176.06803116136294,0,0.7163305282592773,2019-08-06 15:03:51:940
0.003826810047030449,0.2740407884120941,9.846887588500977,-0.004198166830880505,-0.007617968136982457,0.0026752657293971638,15.829454953028009,176.11548000596395,0,0.7192673683166504,2019-08-06 15:03:51:943
0.06609030067920685,0.26446178555488586,9.851676940917969,-0.0018007365525403206,-0.003888631830584663,0.0037407904998283874,11.921263792028224,176.16274552314215,0,0.7225220203399658,2019-08-06 15:03:51:946
-0.012936437502503395,0.35067278146743774,9.880414009094238,-0.0033990234481128304,-0.004954156340941561,0.0016097412190402653,15.282503912637408,176.19963698546263,0,0.726712703704834,2019-08-06 15:03:51:950
-0.04646293446421623,0.30517253279685974,9.866044998168945,-0.0020671176801295454,-0.0030894884478169893,0.002941646856986388,18.571898506588745,176.24050572999516,0,0.7292559146881104,2019-08-06 15:03:51:953
-0.04646293446421623,0.32912003993988037,9.803781509399414,0.00033031263071992917,-0.0033558695754062136,0.0016097412190402653,21.795643932097896,176.27718038902336,0,0.7325153350830078,2019-08-06 15:03:51:956
0.04693230614066124,0.29080402851104736,9.861255645751953,-0.002599880065345157,-0.00042567707439687154,0.004007171627417612,17.765278969242686,176.31842963816763,0,0.7364583015441895,2019-08-06 15:03:51:960
-0.041673433035612106,0.27164602279663086,9.808571815490723,-0.002599880065345157,-0.0033558695754062136,0.004806315010185286,21.005686762538776,176.36078416497082,0,0.7395467758178711,2019-08-06 15:03:51:963
0.03974805399775505,0.3075672686100006,9.808571815490723,-0.00393178570329128,-0.003888631830584663,0.002941646856986388,16.991013951433906,176.39845390279828,0,0.7431981563568115,2019-08-06 15:03:51:967
-0.000962689402513206,0.31235677003860474,9.854071617126465,6.393147468507523e-05,-0.0022903450650493154,0.002408884601807939,20.25148347689606,176.43416225636275,0,0.7463221549987793,2019-08-06 15:03:51:970
0.07806405425071716,0.32912003993988037,9.897176742553711,-0.004198166830880505,-0.003888631830584663,0.0010769789638618162,16.256132868816938,176.4680786907442,0,0.7492570877075195,2019-08-06 15:03:51:973
-0.027304936200380325,0.276435524225235,9.813361167907715,-0.00020244967322245603,-0.00255672619263854,0.003208027984575613,19.528288930697233,176.50648299898708,0,0.7525110244750977,2019-08-06 15:03:51:976
-0.048857681453228,0.2740407884120941,9.734333992004395,-0.0036654045757020556,-0.0033558695754062136,0.002408884601807939,22.73272117419349,176.54492063870967,0,0.7564883232116699,2019-08-06 15:03:51:980
0.008616309612989426,0.2357247918844223,9.789413452148438,-0.0028662611929343817,-0.004421394085763112,0.002408884601807939,18.679827769218374,176.5869221849913,0,0.759519100189209,2019-08-06 15:03:51:983
0.03256380558013916,0.30277779698371887,9.846887588500977,-0.0010015931047540657,-0.0030894884478169893,0.004539933882596061,14.710661584376979,176.6201673153585,0,0.7632131576538086,2019-08-06 15:03:51:987
-0.012936437502503395,0.3195410370826721,9.856466293334961,-0.001534355424951096,-0.0012248205546924172,0.0010769789638618162,18.01515920797307,176.65089618809543,0,0.7663371562957764,2019-08-06 15:03:51:990
0.037353307008743286,0.2931987941265106,9.88520336151123,-0.001534355424951096,-0.0033558695754062136,-0.00025492675535753324,14.059738175457605,176.6841523694279,0,0.7692670822143555,2019-08-06 15:03:51:993
-0.05125243216753006,0.26446178555488586,9.851676940917969,-0.0028662611929343817,-0.00255672619263854,0.0013433600914510408,17.37316449570769,176.72036843445008,0,0.7733249664306641,2019-08-06 15:03:51:997
-0.04406818374991417,0.2931987941265106,9.815755844116211,-0.0012679742973618717,-0.004155012958173888,0.0042735527550068365,20.621284616887145,176.75196465203317,0,0.7764453887939453,2019-08-06 15:03:52:000
-0.04646293446421623,0.28601452708244324,9.8229398727417,-0.001534355424951096,-0.005220537468530785,-0.00025492675535753324,23.80433134662987,176.78383150615764,0,0.7794904708862305,2019-08-06 15:03:52:003
-0.015331187285482883,0.314751535654068,9.810966491699219,-0.0020671176801295454,-0.0017575828098708665,0.0010769789638618162,26.92681980601239,176.81183484581175,0,0.7831966876983643,2019-08-06 15:03:52:007
-0.05364718288183212,0.33151477575302124,9.868440628051758,-0.0020671176801295454,-0.0033558695754062136,0.003208027984575613,29.98264248285507,176.8374798708207,0,0.7863197326660156,2019-08-06 15:03:52:010
0.013405809178948402,0.3003830313682556,9.832518577575684,-0.0018007365525403206,-0.00255672619263854,0.0016097412190402653,25.784973877489175,176.8660306248529,0,0.7892584800720215,2019-08-06 15:03:52:013
-0.008146938867866993,0.32433053851127625,9.923519134521484,-0.004198166830880505,-0.003622250702995438,0.002941646856986388,28.869087389478608,176.8921449582465,0,0.7929644584655762,2019-08-06 15:03:52:016
0.013405809178948402,0.31235677003860474,9.825334548950195,-0.002599880065345157,-0.004155012958173888,0.004806315010185286,24.694081083864603,176.9183926224041,0,0.7964446544647217,2019-08-06 15:03:52:020
-0.048857681453228,0.262067049741745,9.825334548950195,-0.005263691601311728,-0.00015929593055300162,0.0021425034742187147,27.794528083504414,176.95035239774273,0,0.7994387149810791,2019-08-06 15:03:52:023
-0.000962689402513206,0.30996203422546387,9.815755844116211,-0.0020671176801295454,-0.004687775213352337,0.003208027984575613,30.839514797961556,176.9756080376048,0,0.8031985759735107,2019-08-06 15:03:52:027
0.008616309612989426,0.2955935299396515,9.810966491699219,0.00033031263071992917,-0.0030894884478169893,1.1454389502251989e-05,26.62427314658372,177.00152317696345,0,0.8063244819641113,2019-08-06 15:03:52:030
0.013405809178948402,0.30996203422546387,9.763071060180664,-0.0020671176801295454,-0.005220537468530785,0.0021425034742187147,22.494226581268958,177.0254665985732,0,0.809276819229126,2019-08-06 15:03:52:033
0.008616309612989426,0.27164602279663086,9.763071060180664,0.0011294561110154748,-0.0033558695754062136,0.0005442166761740764,18.445964354915994,177.05287609573764,0,0.8125193119049072,2019-08-06 15:03:52:036
0.0014320602640509605,0.26925128698349,9.779834747314453,-0.002599880065345157,-0.005220537468530785,0.0008105978362725917,14.478379648069856,177.0808590978808,0,0.8164997100830078,2019-08-06 15:03:52:040
0.06369554996490479,0.25248804688453674,9.851676940917969,-0.00020244967322245603,-0.0014912016822816417,0.0018761223466294901,10.596510537376659,177.10991907408533,0,0.8199598789215088,2019-08-06 15:03:52:043
-0.020120687782764435,0.262067049741745,9.8229398727417,-0.0020671176801295454,-0.005753299723709235,-0.00025492675535753324,13.983286209016953,177.13753433426896,0,0.8232197761535645,2019-08-06 15:03:52:047
0.013405809178948402,0.2931987941265106,9.763071060180664,-0.0020671176801295454,-0.0030894884478169893,0.0018761223466294901,10.105734814848411,177.16074240419707,0,0.8263375759124756,2019-08-06 15:03:52:050
0.003826810047030449,0.3075672686100006,9.854071617126465,-0.00393178570329128,-0.0009584393620846114,-0.0015868324420675922,6.304222694796552,177.18241897944307,0,0.8292653560638428,2019-08-06 15:03:52:053
0.013405809178948402,0.2812250256538391,9.73672866821289,-0.002333498937755932,-0.003888631830584663,0.0042735527550068365,2.5804257253272915,177.20610833752448,0,0.8325159549713135,2019-08-06 15:03:52:056
0.06609030067920685,0.33630427718162537,9.866044998168945,-0.001534355424951096,-0.005753299723709235,-0.0005213078992014032,-1.0622212930789003,177.22328322089245,0,0.8364949226379395,2019-08-06 15:03:52:060
-0.012936437502503395,0.26446178555488586,9.858860969543457,-0.001534355424951096,-0.0022903450650493154,-0.0005213078992014032,2.5579096386598916,177.24834735115502,0,0.8395285606384277,2019-08-06 15:03:52:063
0.01819530874490738,0.27883028984069824,9.882808685302734,-0.004464548218544054,-0.0030894884478169893,0.0008105978362725917,-1.0905015359034436,177.27197939596712,0,0.8432021141052246,2019-08-06 15:03:52:067
-0.005752188619226217,0.22135628759860992,9.88520336151123,-0.0010015931047540657,-0.0022903450650493154,0.002941646856986388,2.531043442142672,177.30105965546466,0,0.8463261127471924,2019-08-06 15:03:52:070
-0.015331187285482883,0.3075672686100006,9.801386833190918,-0.0012679742973618717,-0.0033558695754062136,0.003208027984575613,6.079183543726673,177.3193005493096,0,0.8492629528045654,2019-08-06 15:03:52:073
0.013405809178948402,0.21896153688430786,9.870835304260254,-0.002599880065345157,-0.006286061978887684,0.0013433600914510408,2.360461036284554,177.3480389196773,0,0.8529598712921143,2019-08-06 15:03:52:076
0.027774307876825333,0.321935772895813,9.755887031555176,-0.0033990234481128304,-0.005220537468530785,0.0008105978362725917,-1.2824704480399256,177.36393875953263,0,0.8564238548278809,2019-08-06 15:03:52:080
-0.015331187285482883,0.29798829555511475,9.76546573638916,-0.004730929346133278,-0.005220537468530785,-0.0023859759548724283,2.342259068617654,177.38250046638262,0,0.8594229221343994,2019-08-06 15:03:52:083
0.01819530874490738,0.2931987941265106,9.861255645751953,-0.0012679742973618717,-0.0033558695754062136,0.003474409372239163,-1.3017597249255481,177.40105870137774,0,0.8632016181945801,2019-08-06 15:03:52:087
-0.008146938867866993,0.30277779698371887,9.810966491699219,-0.002333498937755932,-0.003888631830584663,0.0002778355485848519,2.3240052959909896,177.41809335140383,0,0.8663222789764404,2019-08-06 15:03:52:090
0.02537955716252327,0.2931987941265106,9.854071617126465,0.0013958372386046994,-0.003622250702995438,0.0010769789638618162,-1.3189079113381639,177.4354086773158,0,0.8693487644195557,2019-08-06 15:03:52:093
0.01819530874490738,0.25248804688453674,9.801386833190918,-0.003132642320523606,-0.0022903450650493154,0.004539933882596061,-4.889902820614473,177.45787114882805,0,0.8732340335845947,2019-08-06 15:03:52:097
-0.020120687782764435,0.2884092926979065,9.851676940917969,-0.003132642320523606,-0.0033558695754062136,0.0005442166761740764,-1.1938564749498028,177.47572596029556,0,0.8763580322265625,2019-08-06 15:03:52:100
0.03495855629444122,0.30517253279685974,9.878019332885742,0.00033031263071992917,-0.003622250702995438,0.0026752657293971638,-4.765325017736881,177.49076604956235,0,0.8793027400970459,2019-08-06 15:03:52:103
0.008616309612989426,0.25248804688453674,9.820545196533203,-0.0010015931047540657,-0.004954156340941561,0.00507269613777451,-8.267992885492589,177.51170177710483,0,0.8829703330993652,2019-08-06 15:03:52:106
0.003826810047030449,0.2740407884120941,9.935493469238281,0.0021949807514095357,-0.0030894884478169893,-0.0007876890592999184,-11.701586612304473,177.52943924126802,0,0.886458158493042,2019-08-06 15:03:52:110
-0.015331187285482883,0.3075672686100006,9.784624099731445,-0.003132642320523606,-0.0054869185961200105,0.0026752657293971638,-7.868434912739726,177.5433645710922,0,0.8894295692443848,2019-08-06 15:03:52:113
0.0014320602640509605,0.24530379474163055,9.882808685302734,-0.0007352119771648412,-0.004421394085763112,0.0010769789638618162,-11.309959401342597,177.56421648158292,0,0.893218994140625,2019-08-06 15:03:52:117
0.013405809178948402,0.31714627146720886,9.772649765014648,-0.004198166830880505,-0.005753299723709235,-0.0029187382100508774,-14.681183706697912,177.57649048569908,0,0.8963286876678467,2019-08-06 15:03:52:120
0.04693230614066124,0.2812250256538391,9.813361167907715,-0.002599880065345157,-0.0006920582344953867,0.0026752657293971638,-17.98196576034451,177.59255895172024,0,0.8992619514465332,2019-08-06 15:03:52:123
0.042142804712057114,0.25248804688453674,9.789413452148438,-0.001534355424951096,-0.003888631830584663,0.0005442166761740764,-21.216682740861003,177.61143932872156,0,0.9025166034698486,2019-08-06 15:03:52:126
0.022984808310866356,0.25967228412628174,9.743913650512695,-0.002333498937755932,-0.0054869185961200105,0.0016097412190402653,-24.38842019803095,177.62920078819226,0,0.9064953327178955,2019-08-06 15:03:52:130
-0.03927868604660034,0.321935772895813,9.78222942352295,-0.001534355424951096,-0.0054869185961200105,-0.0005213078992014032,-20.304318196326015,177.63917939255776,0,0.909529447555542,2019-08-06 15:03:52:133
0.015800558030605316,0.33151477575302124,9.868440628051758,-0.0049973104737225035,-0.0030894884478169893,-0.00025492675535753324,-23.495760852220325,177.64894416024566,0,0.9131970405578613,2019-08-06 15:03:52:137
-0.03209443390369415,0.2884092926979065,9.820545196533203,-0.00393178570329128,-0.00255672619263854,0.003474409372239163,-19.429140796753764,177.66301343679223,0,0.916330099105835,2019-08-06 15:03:52:140
-0.02251543663442135,0.28601452708244324,9.820545196533203,-0.002333498937755932,-0.0033558695754062136,0.0005442166761740764,-15.44263176357547,177.67677367319382,0,0.9192671775817871,2019-08-06 15:03:52:143
0.013405809178948402,0.2500932812690735,9.73672866821289,0.00033031263071992917,-0.004421394085763112,0.0002778355485848519,-18.73139535078415,177.69375097382184,0,0.9225139617919922,2019-08-06 15:03:52:146
-0.008146938867866993,0.21417205035686493,9.78222942352295,-0.0033990234481128304,-0.004421394085763112,0.002408884601807939,-14.756732259271239,177.71555201972333,0,0.9264998435974121,2019-08-06 15:03:52:150
0.013405809178948402,0.27164602279663086,9.849282264709473,-0.002333498937755932,-0.0028231073202277645,0.0021425034742187147,-18.059555633199526,177.73004294966663,0,0.9295423030853271,2019-08-06 15:03:52:153
-0.005752188619226217,0.29798829555511475,9.810966491699219,-0.0004688308170663259,-0.0033558695754062136,-0.003717881592818551,-14.098348112806047,177.7407440685881,0,0.9331948757171631,2019-08-06 15:03:52:157
-0.06083143129944801,0.262067049741745,9.904361724853516,-0.0010015931047540657,-0.004687775213352337,0.003474409372239163,-10.222595405705231,177.75579160691342,0,0.9363243579864502,2019-08-06 15:03:52:160
0.011011059395968914,0.27164602279663086,9.825334548950195,-0.005263691601311728,-0.0054869185961200105,-0.0010540701868891429,-13.615951397690893,177.76987309111715,0,0.9392712116241455,2019-08-06 15:03:52:163
-0.0033574390690773726,0.2357247918844223,9.789413452148438,-0.0007352119771648412,-0.0012248205546924172,0.003474409372239163,-9.743802267797836,177.78702174022024,0,0.9425153732299805,2019-08-06 15:03:52:166
0.037353307008743286,0.30996203422546387,9.83491325378418,-0.00020244967322245603,-0.00255672619263854,0.0002778355485848519,-13.144002526516708,177.7952232609993,0,0.9464962482452393,2019-08-06 15:03:52:170
0.07087980210781097,0.32912003993988037,9.945072174072266,-0.001534355424951096,-0.0028231073202277645,0.0005442166761740764,-16.472473396550033,177.8016719888874,0,0.9495377540588379,2019-08-06 15:03:52:173
0.04453755542635918,0.25727754831314087,9.88520336151123,-0.0020671176801295454,-0.004421394085763112,0.002408884601807939,-19.736951317678802,177.81624640506502,0,0.9532022476196289,2019-08-06 15:03:52:177
-0.05364718288183212,0.2884092926979065,9.894782066345215,-0.00393178570329128,-0.002023963937460091,0.0026752657293971638,-15.74807019608416,177.8272196974673,0,0.9563252925872803,2019-08-06 15:03:52:180
-0.024910185486078262,0.30517253279685974,9.818150520324707,0.00033031263071992917,-0.004155012958173888,-0.00025492675535753324,-11.8353322577804,177.8350144933069,0,0.959256649017334,2019-08-06 15:03:52:183
0.037353307008743286,0.23811954259872437,9.87322998046875,-0.0033990234481128304,-0.0022903450650493154,0.0013433600914510408,-15.19387091615505,177.851305112334,0,0.9625177383422852,2019-08-06 15:03:52:186
-0.012936437502503395,0.2548827826976776,9.935493469238281,-0.004198166830880505,-0.0033558695754062136,0.0005442166761740764,-11.290738011062158,177.86582354887304,0,0.966484785079956,2019-08-06 15:03:52:190
0.006221559830009937,0.28601452708244324,9.887598037719727,-0.002333498937755932,-0.00042567707439687154,0.0010769789638618162,-14.664129584924485,177.87576699353986,0,0.9695231914520264,2019-08-06 15:03:52:193
-0.015331187285482883,0.28601452708244324,9.846887588500977,0.0013958372386046994,-0.002023963937460091,0.0016097412190402653,-10.772209424938637,177.88468569845452,0,0.9732339382171631,2019-08-06 15:03:52:197
0.011011059395968914,0.24530379474163055,9.810966491699219,-0.001534355424951096,-0.004687775213352337,0.0013433600914510408,-14.154661753669743,177.89861414424237,0,0.9763393402099609,2019-08-06 15:03:52:200
-0.03209443390369415,0.3267252743244171,9.854071617126465,-0.0020671176801295454,-0.002023963937460091,0.0018761223466294901,-10.274967233107052,177.9030019679344,0,0.979273796081543,2019-08-06 15:03:52:203
0.03256380558013916,0.2500932812690735,9.813361167907715,-0.0028662611929343817,-0.007085205881804008,0.0010769789638618162,-13.664203554138304,177.91633599218693,0,0.9829483032226562,2019-08-06 15:03:52:206
-0.09196317940950394,0.30996203422546387,9.825334548950195,-0.0033990234481128304,-0.004155012958173888,0.0021425034742187147,-9.800830879321264,177.9225365604016,0,0.9864366054534912,2019-08-06 15:03:52:210
0.030169056728482246,0.3195410370826721,9.767860412597656,-0.0028662611929343817,-0.003622250702995438,0.003208027984575613,-13.200665597993176,177.92709447753566,0,0.9894328117370605,2019-08-06 15:03:52:213
0.013405809178948402,0.24051429331302643,9.861255645751953,-0.0004688308170663259,-0.0017575828098708665,0.0018761223466294901,-16.534720439250563,177.9407092225273,0,0.9932229518890381,2019-08-06 15:03:52:217
0.006221559830009937,0.2812250256538391,9.830123901367188,-0.001534355424951096,-0.002023963937460091,0.0042735527550068365,-19.80294634024235,177.94938975243824,0,0.9963417053222656,2019-08-06 15:03:52:220
-0.048857681453228,0.2955935299396515,9.770255088806152,-0.0036654045757020556,-0.00255672619263854,0.0013433600914510408,-15.812196767254079,177.95634695822406,0,0.9992737770080566,2019-08-06 15:03:52:223
-0.008146938867866993,0.25248804688453674,9.87322998046875,0.00033031263071992917,-0.004954156340941561,0.0016097412190402653,-11.895995678345404,177.96786172550463,0,1.002518892288208,2019-08-06 15:03:52:226
0.04453755542635918,0.2500932812690735,9.784624099731445,-0.004730929346133278,-0.004421394085763112,0.0018761223466294901,-15.25187142042126,177.9802790751013,0,1.006500244140625,2019-08-06 15:03:52:230
0.015800558030605316,0.3195410370826721,9.796597480773926,-0.0028662611929343817,-0.00255672619263854,0.0016097412190402653,-18.544549323198144,177.98379908650122,0,1.0095405578613281,2019-08-06 15:03:52:233
-0.005752188619226217,0.25248804688453674,9.856466293334961,-0.0007352119771648412,-0.006286061978887684,0.0005442166761740764,-14.573032820991868,177.9949265667547,0,1.0132074356079102,2019-08-06 15:03:52:237
-0.06083143129944801,0.3075672686100006,9.928308486938477,-0.001534355424951096,-0.002023963937460091,0.003208027984575613,-10.68823828833486,177.99980931538556,0,1.0163302421569824,2019-08-06 15:03:52:240
-0.02969968505203724,0.2955935299396515,9.894782066345215,-0.003132642320523606,-0.0014912016822816417,0.0013433600914510408,-6.877667930038658,178.00610549933043,0,1.0192575454711914,2019-08-06 15:03:52:243
-0.034489184617996216,0.314751535654068,9.810966491699219,-0.0020671176801295454,-0.0030894884478169893,0.002408884601807939,-3.1435780261697355,178.00961111276632,0,1.0225136280059814,2019-08-06 15:03:52:246
-0.03688393533229828,0.2740407884120941,9.851676940917969,-0.001534355424951096,-0.0054869185961200105,0.0008105978362725917,0.5162276694113945,178.0178939310569,0,1.0264875888824463,2019-08-06 15:03:52:250
-0.03209443390369415,0.33151477575302124,9.866044998168945,-0.0036654045757020556,0.0009062286610771233,0.0016097412190402653,4.1020209205254865,178.0196709478061,0,1.029524326324463,2019-08-06 15:03:52:253
-0.03688393533229828,0.3386990427970886,9.787018775939941,-0.001534355424951096,-0.004155012958173888,0.002408884601807939,7.616530023666326,178.0199572429687,0,1.0332450866699219,2019-08-06 15:03:52:257
-0.024910185486078262,0.3075672686100006,9.88520336151123,-0.0018007365525403206,-0.003622250702995438,0.0037407904998283874,11.061940477851712,178.0242282332036,0,1.0363361835479736,2019-08-06 15:03:52:260
-0.008146938867866993,0.24769854545593262,9.820545196533203,-0.001534355424951096,0.001971753236452603,0.0018761223466294901,14.439426312556574,178.0350996488982,0,1.039269208908081,2019-08-06 15:03:52:263
-0.02969968505203724,0.24530379474163055,9.75349235534668,0.000863074918407669,-0.004421394085763112,0.0016097412190402653,17.747953964907957,178.04542630624684,0,1.0425138473510742,2019-08-06 15:03:52:266
-0.034489184617996216,0.2884092926979065,9.796597480773926,-0.0004688308170663259,-0.004687775213352337,0.004007171627417612,20.99000669345272,178.0508966766776,0,1.046487808227539,2019-08-06 15:03:52:270
0.011011059395968914,0.2740407884120941,9.820545196533203,-0.003132642320523606,-0.0030894884478169893,0.0016097412190402653,16.97201814513662,178.05844455495637,0,1.0495243072509766,2019-08-06 15:03:52:273
-0.015331187285482883,0.34348851442337036,9.851676940917969,-0.0012679742973618717,-0.004687775213352337,1.1454389502251989e-05,20.2317638388514,178.05760054449317,0,1.0532069206237793,2019-08-06 15:03:52:277
0.020590057596564293,0.29080402851104736,9.832518577575684,-0.0028662611929343817,-0.0017575828098708665,0.0016097412190402653,16.229836307873175,178.06306957682557,0,1.0563290119171143,2019-08-06 15:03:52:280
0.006221559830009937,0.3482780158519745,9.839703559875488,-0.0010015931047540657,-0.0012248205546924172,0.002408884601807939,12.306165668255082,178.06143003320153,0,1.0592594146728516,2019-08-06 15:03:52:283
0.01819530874490738,0.276435524225235,9.858860969543457,-0.004464548218544054,-0.0014912016822816417,0.003474409372239163,8.462429645177716,178.068894771777,0,1.0625128746032715,2019-08-06 15:03:52:286
0.03256380558013916,0.30277779698371887,9.856466293334961,-0.0020671176801295454,-0.006019680851298459,0.003474409372239163,4.698310292730922,178.07278821568408,0,1.0664873123168945,2019-08-06 15:03:52:290
0.006221559830009937,0.3195410370826721,9.789413452148438,-0.00393178570329128,0.0003734663733893835,0.0021425034742187147,1.0050081508955815,178.07461733303302,0,1.069549322128296,2019-08-06 15:03:52:293
0.02537955716252327,0.29080402851104736,9.810966491699219,-0.002333498937755932,-0.0022903450650493154,-0.0007876890592999184,-2.6116550264740797,178.07965075433023,0,1.0732247829437256,2019-08-06 15:03:52:297
-0.012936437502503395,0.321935772895813,9.729544639587402,-0.004464548218544054,-0.0017575828098708665,0.0013433600914510408,1.0393627627573783,178.0809381067497,0,1.0763487815856934,2019-08-06 15:03:52:300
-0.04646293446421623,0.28361979126930237,9.741518020629883,-0.0010015931047540657,-0.004421394085763112,0.0002778355485848519,4.613839590055122,178.08613123732695,0,1.0792875289916992,2019-08-06 15:03:52:303
0.020590057596564293,0.2955935299396515,9.784624099731445,-0.0049973104737225035,-0.0022903450650493154,-0.0007876890592999184,0.9244454094609549,178.09082920774947,0,1.0829517841339111,2019-08-06 15:03:52:306
0.006221559830009937,0.27883028984069824,9.837308883666992,-0.0018007365525403206,-0.0028231073202277645,0.002941646856986388,-2.6927640380725006,178.096895137933,0,1.0864512920379639,2019-08-06 15:03:52:310
0.011011059395968914,0.321935772895813,9.837308883666992,-0.00020244967322245603,-0.005753299723709235,0.006138220648131409,-6.236661820457625,178.09750331258317,0,1.0894362926483154,2019-08-06 15:03:52:313
0.05172180384397507,0.2931987941265106,9.748703002929688,-0.0020671176801295454,-0.006286061978887684,0.0026752657293971638,-9.704511036915484,178.10153942148065,0,1.0932269096374512,2019-08-06 15:03:52:317
0.008616309612989426,0.29080402851104736,9.9139404296875,-0.0036654045757020556,-0.005220537468530785,0.0037407904998283874,-13.108509353400423,178.1065481188721,0,1.0963501930236816,2019-08-06 15:03:52:320
0.056511301547288895,0.276435524225235,9.803781509399414,0.0019285994937831485,-0.00255672619263854,0.004539933882596061,-16.439312916453257,178.11179696525218,0,1.0992827415466309,2019-08-06 15:03:52:323
0.06369554996490479,0.2931987941265106,9.870835304260254,-0.0010015931047540657,-0.004954156340941561,0.0016097412190402653,-19.702111248470228,178.1157397004422,0,1.1029531955718994,2019-08-06 15:03:52:326
0.011011059395968914,0.29798829555511475,9.83491325378418,-0.0004688308170663259,-0.00015929593055300162,0.0002778355485848519,-22.90675490075943,178.11880713333673,0,1.1064379215240479,2019-08-06 15:03:52:330
-0.008146938867866993,0.2500932812690735,9.784624099731445,-0.0028662611929343817,-0.004687775213352337,0.0018761223466294901,-18.848790475897644,178.1276269894968,0,1.1094143390655518,2019-08-06 15:03:52:333
0.03974805399775505,0.31714627146720886,9.777440071105957,-0.0004688308170663259,-0.0022903450650493154,-0.0010540701868891429,-22.066669075893856,178.1280176648453,0,1.1132023334503174,2019-08-06 15:03:52:337
0.05411655455827713,0.29798829555511475,9.755887031555176,-0.005530072728900952,-0.005753299723709235,0.003208027984575613,-25.217969012873716,178.13143789633034,0,1.1163296699523926,2019-08-06 15:03:52:340
0.013405809178948402,0.31235677003860474,9.760676383972168,0.000863074918407669,-0.003888631830584663,0.0010769789638618162,-28.311393642179365,178.13200805410955,0,1.1192705631256104,2019-08-06 15:03:52:343
0.030169056728482246,0.34348851442337036,9.868440628051758,-0.001534355424951096,-0.0014912016822816417,0.0018761223466294901,-31.341390457764792,178.12977836155235,0,1.1225204467773438,2019-08-06 15:03:52:346
0.011011059395968914,0.24051429331302643,9.84449291229248,-0.0007352119771648412,-0.0033558695754062136,0.0021425034742187147,-34.312532392913944,178.13935608710014,0,1.126492977142334,2019-08-06 15:03:52:350
-0.010541687719523907,0.25967228412628174,9.758281707763672,-0.0020671176801295454,-0.0054869185961200105,0.0008105978362725917,-30.026586565398524,178.14643435674103,0,1.1295216083526611,2019-08-06 15:03:52:353
0.04693230614066124,0.30517253279685974,9.746308326721191,-0.003132642320523606,-0.00255672619263854,0.005339077265363735,-33.020007756612365,178.14828520061906,0,1.133207082748413,2019-08-06 15:03:52:357
-0.07041043043136597,0.29080402851104736,9.923519134521484,-0.00393178570329128,-0.004155012958173888,0.007203745158488308,-28.767010362693966,178.15243722053668,0,1.1363263130187988,2019-08-06 15:03:52:360
0.0014320602640509605,0.2884092926979065,9.825334548950195,-0.001534355424951096,-0.003622250702995438,0.003208027984575613,-31.790893498662523,178.15601958044857,0,1.1393237113952637,2019-08-06 15:03:52:363
0.008616309612989426,0.31235677003860474,9.851676940917969,-0.003132642320523606,-0.0028231073202277645,1.1454389502251989e-05,-34.75345714783235,178.15726284268757,0,1.1432113647460938,2019-08-06 15:03:52:367
-0.000962689402513206,0.29798829555511475,9.820545196533203,-0.001534355424951096,0.0009062286610771233,0.002941646856986388,-30.458658924189585,178.15962583480834,0,1.1463279724121094,2019-08-06 15:03:52:370
0.015800558030605316,0.2740407884120941,9.868440628051758,-0.0012679742973618717,-0.0030894884478169893,-0.00025492675535753324,-33.44714248369181,178.16482879494117,0,1.149259328842163,2019-08-06 15:03:52:373
0.06130080297589302,0.276435524225235,9.870835304260254,-0.0007352119771648412,-0.0006920582344953867,0.004539933882596061,-36.37095672316621,178.16958333364303,0,1.1525154113769531,2019-08-06 15:03:52:376
-0.04646293446421623,0.2931987941265106,9.856466293334961,-0.0012679742973618717,-0.004954156340941561,0.002941646856986388,-32.047833288462805,178.17239742554005,0,1.1564915180206299,2019-08-06 15:03:52:380
0.008616309612989426,0.30517253279685974,9.83491325378418,-0.0033990234481128304,-0.0030894884478169893,0.0026752657293971638,-35.005345896974774,178.17398325939212,0,1.1595282554626465,2019-08-06 15:03:52:383
-0.0033574390690773726,0.29798829555511475,9.803781509399414,0.0021949807514095357,-0.003888631830584663,0.004007171627417612,-30.704829307237638,178.17523117706085,0,1.1632018089294434,2019-08-06 15:03:52:387
0.037353307008743286,0.26925128698349,9.87322998046875,-0.0020671176801295454,0.0017053721088633783,0.0013433600914510408,-33.686696734612354,178.18084703368356,0,1.166327714920044,2019-08-06 15:03:52:390
-0.027304936200380325,0.26925128698349,9.772649765014648,-0.001534355424951096,-0.004954156340941561,0.002408884601807939,-29.415346546744523,178.1859196978276,0,1.1692681312561035,2019-08-06 15:03:52:393
-0.005752188619226217,0.3339095413684845,9.803781509399414,-0.001534355424951096,-0.003888631830584663,0.0021425034742187147,-25.22700272547176,178.1834671944453,0,1.1725163459777832,2019-08-06 15:03:52:396
-0.012936437502503395,0.28601452708244324,9.791808128356934,-0.002333498937755932,-0.003622250702995438,0.0016097412190402653,-21.123166444672115,178.18685756990854,0,1.176499605178833,2019-08-06 15:03:52:400
-0.000962689402513206,0.2884092926979065,9.791808128356934,-0.0007352119771648412,-0.0033558695754062136,0.0013433600914510408,-17.100211797626507,178.18951053639736,0,1.1797049045562744,2019-08-06 15:03:52:403
0.020590057596564293,0.25727754831314087,9.79420280456543,-0.001534355424951096,-0.0033558695754062136,0.005871839520542184,-20.355137955378414,178.1959279645791,0,1.1832106113433838,2019-08-06 15:03:52:407
-0.0033574390690773726,0.29798829555511475,9.68404483795166,-0.0018007365525403206,-0.003622250702995438,0.004539933882596061,-16.347797629720063,178.1970750999079,0,1.1863319873809814,2019-08-06 15:03:52:410
-0.07998942583799362,0.2955935299396515,9.851676940917969,-0.0010015931047540657,-0.0030894884478169893,0.0018761223466294901,-12.429636906556187,178.19892632610257,0,1.1892642974853516,2019-08-06 15:03:52:413
0.003826810047030449,0.2955935299396515,9.820545196533203,-0.004730929346133278,-0.00255672619263854,-0.0013204513144783674,-15.780067590627311,178.20144750693004,0,1.1929564476013184,2019-08-06 15:03:52:416
-0.020120687782764435,0.2357247918844223,9.719965934753418,0.0021949807514095357,-0.004421394085763112,0.0026752657293971638,-11.865973380087627,178.20920431185687,0,1.1964404582977295,2019-08-06 15:03:52:420
0.07087980210781097,0.2357247918844223,9.878019332885742,-0.0028662611929343817,-0.0006920582344953867,0.0002778355485848519,-15.220312995060251,178.2181706996115,0,1.1994907855987549,2019-08-06 15:03:52:423
-0.06322617828845978,0.25727754831314087,9.849282264709473,-0.002599880065345157,-0.0014912016822816417,0.0026752657293971638,-11.322952105344676,178.22442260924421,0,1.203200101852417,2019-08-06 15:03:52:427
0.0014320602640509605,0.223751038312912,9.856466293334961,-0.004730929346133278,-0.0033558695754062136,0.0016097412190402653,-14.695738180931688,178.23475474672355,0,1.2063226699829102,2019-08-06 15:03:52:430
-0.03927868604660034,0.2548827826976776,9.779834747314453,0.000863074918407669,-0.003622250702995438,0.0037407904998283874,-10.80582341055827,178.24005795931598,0,1.2092840671539307,2019-08-06 15:03:52:433
-0.0033574390690773726,0.2357247918844223,9.9139404296875,0.00033031263071992917,-0.00255672619263854,0.0026752657293971638,-6.989568394555187,178.2479473427838,0,1.2129523754119873,2019-08-06 15:03:52:436
0.006221559830009937,0.321935772895813,9.949861526489258,-0.0020671176801295454,-0.0054869185961200105,0.004007171627417612,-10.447986593837044,178.24632888295838,0,1.2164380550384521,2019-08-06 15:03:52:440
-0.008146938867866993,0.314751535654068,9.870835304260254,-0.0036654045757020556,-0.003622250702995438,0.004007171627417612,-6.639362962393613,178.24549179678687,0,1.219435691833496,2019-08-06 15:03:52:443
-0.027304936200380325,0.321935772895813,9.882808685302734,6.393147468507523e-05,-0.0030894884478169893,1.1454389502251989e-05,-2.9090869095279595,178.24325302555266,0,1.223210334777832,2019-08-06 15:03:52:447
-0.027304936200380325,0.276435524225235,9.79420280456543,-0.0020671176801295454,-0.003888631830584663,1.1454389502251989e-05,0.7465856733410519,178.24641816229786,0,1.2263498306274414,2019-08-06 15:03:52:450
-0.012936437502503395,0.223751038312912,9.763071060180664,-0.00020244967322245603,-0.0054869185961200105,0.0016097412190402653,4.331047367799675,178.25526582962476,0,1.229309320449829,2019-08-06 15:03:52:453
0.01819530874490738,0.23093529045581818,9.861255645751953,-0.004464548218544054,0.0003734663733893835,0.0021425034742187147,0.6464590680404272,178.26430669670327,0,1.233206033706665,2019-08-06 15:03:52:457
-0.000962689402513206,0.3003830313682556,9.851676940917969,0.000863074918407669,-0.004954156340941561,0.0021425034742187147,4.234286398107688,178.2639404882308,0,1.236328125,2019-08-06 15:03:52:460
-0.03209443390369415,0.30517253279685974,9.830123901367188,-0.00020244967322245603,-0.003888631830584663,0.003208027984575613,7.74650046789778,178.26313195445042,0,1.2392642498016357,2019-08-06 15:03:52:463
0.008616309612989426,0.3267252743244171,9.906756401062012,-0.00393178570329128,-0.0022903450650493154,0.0042735527550068365,3.9929854497240598,178.26080881903033,0,1.2425172328948975,2019-08-06 15:03:52:466
-0.008146938867866993,0.2884092926979065,9.846887588500977,-0.0007352119771648412,-0.0033558695754062136,0.0042735527550068365,7.51292795656449,178.26220344917476,0,1.2464990615844727,2019-08-06 15:03:52:470
-0.0033574390690773726,0.2548827826976776,9.813361167907715,-0.002333498937755932,-0.0033558695754062136,0.0026752657293971638,10.962849248946627,178.2676008351176,0,1.2495341300964355,2019-08-06 15:03:52:473
-0.020120687782764435,0.2812250256538391,9.78222942352295,-0.0004688308170663259,-0.002023963937460091,-0.0005213078992014032,14.341651540821408,178.2694108876938,0,1.2531969547271729,2019-08-06 15:03:52:477
-0.034489184617996216,0.31235677003860474,9.854071617126465,-0.0018007365525403206,-0.0022903450650493154,0.002941646856986388,17.651209767697733,178.26802733153292,0,1.2563223838806152,2019-08-06 15:03:52:480
0.008616309612989426,0.29080402851104736,9.868440628051758,-0.0033990234481128304,-0.003888631830584663,0.0026752657293971638,13.699828067730927,178.26946976508867,0,1.2592625617980957,2019-08-06 15:03:52:483
-0.03209443390369415,0.27164602279663086,9.75349235534668,-0.0010015931047540657,-0.00255672619263854,0.004007171627417612,17.022527815776847,178.272356491345,0,1.2625155448913574,2019-08-06 15:03:52:486
0.030169056728482246,0.31235677003860474,9.820545196533203,-0.0028662611929343817,-0.004687775213352337,0.0016097412190402653,13.08664450011109,178.271114272854,0,1.2664930820465088,2019-08-06 15:03:52:490
0.030169056728482246,0.2955935299396515,9.92591381072998,-0.005530072728900952,-0.0028231073202277645,0.0002778355485848519,9.228876199412507,178.27252026310794,0,1.2695317268371582,2019-08-06 15:03:52:493
0.03495855629444122,0.30517253279685974,9.918729782104492,-0.0004688308170663259,-0.004155012958173888,0.004007171627417612,5.449200107980046,178.2719215874318,0,1.2732293605804443,2019-08-06 15:03:52:497
0.022984808310866356,0.2931987941265106,9.856466293334961,-0.0049973104737225035,-0.002023963937460091,0.003474409372239163,1.7432409376580198,178.2732764636726,0,1.276332139968872,2019-08-06 15:03:52:500
0.0014320602640509605,0.2500932812690735,9.8229398727417,0.0016622183661939237,-0.004155012958173888,0.0002778355485848519,-1.8907697550938578,178.27836721958073,0,1.2792770862579346,2019-08-06 15:03:52:503
-0.024910185486078262,0.28361979126930237,9.882808685302734,-0.003132642320523606,-0.0012248205546924172,0.0002778355485848519,1.744380445395207,178.2804937951111,0,1.2825217247009277,2019-08-06 15:03:52:506
-0.02969968505203724,0.28361979126930237,9.851676940917969,-0.004198166830880505,-0.005220537468530785,0.0010769789638618162,5.3072028918724135,178.28283982368978,0,1.2864947319030762,2019-08-06 15:03:52:510
0.06369554996490479,0.2429090440273285,9.75349235534668,0.00033031263071992917,-0.0012248205546924172,0.0037407904998283874,1.608751511658785,178.28859364033835,0,1.2895386219024658,2019-08-06 15:03:52:513
0.01819530874490738,0.2740407884120941,9.90196704864502,-0.0004688308170663259,-0.0030894884478169893,0.004007171627417612,-2.020677893941224,178.2912133145234,0,1.2932276725769043,2019-08-06 15:03:52:517
-0.03688393533229828,0.30517253279685974,9.818150520324707,-0.006062834984079402,-0.003888631830584663,0.0026752657293971638,1.6161127695684012,178.29084585703237,0,1.2963509559631348,2019-08-06 15:03:52:520
-0.02251543663442135,0.3003830313682556,9.894782066345215,-0.0028662611929343817,-0.005220537468530785,0.003474409372239163,5.18204144104787,178.29072354758344,0,1.2992794513702393,2019-08-06 15:03:52:523
-0.0033574390690773726,0.3339095413684845,9.858860969543457,-0.0036654045757020556,-0.003888631830584663,0.00507269613777451,8.678809717413955,178.2868663776833,0,1.3029403686523438,2019-08-06 15:03:52:526
0.03495855629444122,0.32912003993988037,9.897176742553711,-0.002599880065345157,-0.0022903450650493154,1.1454389502251989e-05,4.909729991396145,178.28354646880166,0,1.3064310550689697,2019-08-06 15:03:52:530
-0.0033574390690773726,0.28601452708244324,9.887598037719727,-0.0010015931047540657,-0.00255672619263854,0.002941646856986388,8.411576521297734,178.28490589072575,0,1.3094279766082764,2019-08-06 15:03:52:533
-0.010541687719523907,0.276435524225235,9.734333992004395,-0.002333498937755932,-0.0012248205546924172,0.002408884601807939,11.842364187861145,178.2871704535031,0,1.3132107257843018,2019-08-06 15:03:52:537
-0.000962689402513206,0.24769854545593262,9.813361167907715,-0.0036654045757020556,-0.00255672619263854,0.003474409372239163,15.20585266260109,178.2931517027296,0,1.3163325786590576,2019-08-06 15:03:52:540
-0.02251543663442135,0.2668565511703491,9.818150520324707,-0.0007352119771648412,-0.0022903450650493154,0.0018761223466294901,18.49953633017207,178.29628801740733,0,1.3196651935577393,2019-08-06 15:03:52:543
-0.000962689402513206,0.29080402851104736,9.880414009094238,-0.004198166830880505,-0.0030894884478169893,-0.0021195946972460415,21.730053435029273,178.29748676320236,0,1.3232362270355225,2019-08-06 15:03:52:547
-0.000962689402513206,0.24530379474163055,9.820545196533203,-0.002333498937755932,-0.0030894884478169893,1.1454389502251989e-05,24.895880644547177,178.3033278980039,0,1.326352596282959,2019-08-06 15:03:52:550
0.06130080297589302,0.28601452708244324,9.887598037719727,-0.0004688308170663259,-0.0030894884478169893,0.002941646856986388,20.805577395644455,178.30420054608103,0,1.3292927742004395,2019-08-06 15:03:52:553
-0.008146938867866993,0.27164602279663086,9.784624099731445,-0.0010015931047540657,-0.003888631830584663,1.1454389502251989e-05,23.989314406968326,178.3065179225502,0,1.3329689502716064,2019-08-06 15:03:52:556
0.02537955716252327,0.26446178555488586,9.830123901367188,0.0005966937908184444,-0.004421394085763112,0.0008105978362725917,19.91334993936077,178.30944969719408,0,1.3364462852478027,2019-08-06 15:03:52:560
0.003826810047030449,0.31235677003860474,9.777440071105957,-0.00393178570329128,-0.004421394085763112,0.0026752657293971638,15.916276348154483,178.3073273661083,0,1.339446783065796,2019-08-06 15:03:52:563
0.030169056728482246,0.23811954259872437,9.870835304260254,-0.0018007365525403206,-0.0009584393620846114,0.0013433600914510408,12.00165529107974,178.31392238652194,0,1.3432025909423828,2019-08-06 15:03:52:567
0.01819530874490738,0.27164602279663086,9.846887588500977,0.0016622183661939237,-0.00255672619263854,0.003474409372239163,8.164188250041734,178.31574792654638,0,1.346327543258667,2019-08-06 15:03:52:570
0.03256380558013916,0.24769854545593262,9.796597480773926,-0.004464548218544054,-0.003888631830584663,1.1454389502251989e-05,4.405353482884346,178.32120043291883,0,1.3492586612701416,2019-08-06 15:03:52:573
0.05890605226159096,0.27164602279663086,9.842098236083984,-0.001534355424951096,-0.0014912016822816417,0.002941646856986388,0.724377337968348,178.3234371651806,0,1.3525140285491943,2019-08-06 15:03:52:576
0.03256380558013916,0.27164602279663086,9.810966491699219,-0.0018007365525403206,-0.003888631830584663,-0.00025492675535753324,-2.8854383079272035,178.32565059038444,0,1.3564915657043457,2019-08-06 15:03:52:580
-0.020120687782764435,0.2884092926979065,9.777440071105957,-0.0033990234481128304,-0.00255672619263854,0.0016097412190402653,0.7703501195265474,178.32592785210628,0,1.3595411777496338,2019-08-06 15:03:52:583
-0.048857681453228,0.27164602279663086,9.763071060180664,0.00033031263071992917,-0.005220537468530785,0.0042735527550068365,4.350281543185553,178.32746587341617,0,1.363201379776001,2019-08-06 15:03:52:587
0.006221559830009937,0.33151477575302124,9.803781509399414,-0.0007352119771648412,-0.007085205881804008,0.0018761223466294901,0.6652448122411379,178.3223110375999,0,1.3663225173950195,2019-08-06 15:03:52:590
0.07087980210781097,0.23811954259872437,9.734333992004395,0.0005966937908184444,-0.0030894884478169893,0.0016097412190402653,-2.9391952056612656,178.3277385737566,0,1.3693265914916992,2019-08-06 15:03:52:593
0.03974805399775505,0.3339095413684845,9.803781509399414,-0.0033990234481128304,-0.004421394085763112,-0.0023859759548724283,-6.47480039944651,178.32291168707724,0,1.373213529586792,2019-08-06 15:03:52:597
0.02537955716252327,0.30996203422546387,9.767860412597656,-0.00020244967322245603,-0.004421394085763112,0.004539933882596061,-9.941550780783015,178.32013802771397,0,1.3763401508331299,2019-08-06 15:03:52:600
0.049327053129673004,0.2668565511703491,9.882808685302734,-0.0028662611929343817,-0.002023963937460091,0.0016097412190402653,-13.336667294770214,178.3232722804673,0,1.3792705535888672,2019-08-06 15:03:52:603
0.011011059395968914,0.26925128698349,9.849282264709473,-0.0007352119771648412,-0.004421394085763112,0.0026752657293971638,-16.66784735062414,178.3256225161344,0,1.3825151920318604,2019-08-06 15:03:52:606
-0.012936437502503395,0.30277779698371887,9.880414009094238,-0.0010015931047540657,-0.0012248205546924172,0.0008105978362725917,-12.73571690703834,178.32422927243252,0,1.3864970207214355,2019-08-06 15:03:52:610
-0.03209443390369415,0.2931987941265106,9.734333992004395,-0.0018007365525403206,-0.003622250702995438,-0.0005213078992014032,-8.884164445932546,178.32354641307464,0,1.3895268440246582,2019-08-06 15:03:52:613
0.022984808310866356,0.30517253279685974,9.818150520324707,-0.0012679742973618717,-0.004687775213352337,-0.0005213078992014032,-12.30282428818797,178.3217325560081,0,1.3932280540466309,2019-08-06 15:03:52:617
0.013405809178948402,0.29080402851104736,9.86365032196045,-0.0018007365525403206,-0.0012248205546924172,0.0021425034742187147,-15.654996166462391,178.3218382838558,0,1.3963427543640137,2019-08-06 15:03:52:620
0.02537955716252327,0.3410937786102295,9.758281707763672,-0.0004688308170663259,-0.005220537468530785,0.0021425034742187147,-18.938054554581655,178.31544051248787,0,1.3992812633514404,2019-08-06 15:03:52:623
0.020590057596564293,0.28361979126930237,9.842098236083984,0.0013958372386046994,-0.00255672619263854,0.0021425034742187147,-22.156369270867117,178.3158313263075,0,1.4029514789581299,2019-08-06 15:03:52:626
-0.012936437502503395,0.31714627146720886,9.909151077270508,-0.0007352119771648412,-0.0009584393620846114,0.0008105978362725917,-18.114550526901567,178.31299545526164,0,1.406432867050171,2019-08-06 15:03:52:630
0.013405809178948402,0.2548827826976776,9.796597480773926,-0.0004688308170663259,-0.006019680851298459,-0.0015868324420675922,-21.34968313123365,178.31700696342554,0,1.4094159603118896,2019-08-06 15:03:52:633
-0.034489184617996216,0.2884092926979065,9.858860969543457,-0.0007352119771648412,-0.0030894884478169893,0.0008105978362725917,-17.326038764760188,178.31731090684607,0,1.413217306137085,2019-08-06 15:03:52:637
0.05890605226159096,0.2285405397415161,9.839703559875488,-0.0018007365525403206,-0.0028231073202277645,0.002941646856986388,-20.572163367584036,178.3246695054701,0,1.416337490081787,2019-08-06 15:03:52:640
-0.012936437502503395,0.314751535654068,9.775045394897461,0.000863074918407669,-0.004155012958173888,0.0026752657293971638,-16.561520574682433,178.32114221857907,0,1.4194066524505615,2019-08-06 15:03:52:643
-0.0033574390690773726,0.31235677003860474,9.887598037719727,-0.0036654045757020556,-0.002023963937460091,-0.0010540701868891429,-12.630245342158222,178.31931690748934,0,1.423224925994873,2019-08-06 15:03:52:647
0.06609030067920685,0.2357247918844223,9.688834190368652,-0.0007352119771648412,-0.0022903450650493154,0.0016097412190402653,-15.969423166485786,178.32518512950276,0,1.4263412952423096,2019-08-06 15:03:52:650
0.04693230614066124,0.30996203422546387,9.75349235534668,-0.00659559723925785,-0.0033558695754062136,0.0005442166761740764,-19.24396724770792,178.3233648458224,0,1.42927885055542,2019-08-06 15:03:52:653
-0.0033574390690773726,0.2931987941265106,9.842098236083984,-0.0028662611929343817,-0.0054869185961200105,0.00507269613777451,-15.258480344880017,178.32329208236874,0,1.4325196743011475,2019-08-06 15:03:52:656
0.06369554996490479,0.30517253279685974,9.8229398727417,0.00033031263071992917,-0.00255672619263854,0.0021425034742187147,-18.54530887928052,178.32116332332564,0,1.436500072479248,2019-08-06 15:03:52:660
0.01819530874490738,0.2548827826976776,9.798992156982422,-0.00393178570329128,-0.005753299723709235,0.0018761223466294901,-21.771291816449956,178.32561206515987,0,1.4395432472229004,2019-08-06 15:03:52:663
-0.024910185486078262,0.25727754831314087,9.76546573638916,0.0011294561110154748,-0.0054869185961200105,0.002408884601807939,-17.73766260443027,178.32868504544754,0,1.4431993961334229,2019-08-06 15:03:52:667
0.0014320602640509605,0.26925128698349,9.755887031555176,-0.00020244967322245603,-0.004687775213352337,-0.0021195946972460415,-20.9819187261441,178.3305289328794,0,1.4463238716125488,2019-08-06 15:03:52:670
-0.07280518114566803,0.27164602279663086,9.820545196533203,-0.003132642320523606,-0.0033558695754062136,0.0008105978362725917,-16.970221170683697,178.33274673594272,0,1.449265718460083,2019-08-06 15:03:52:673
0.008616309612989426,0.31714627146720886,9.820545196533203,6.393147468507523e-05,-0.004687775213352337,0.0005442166761740764,-20.228838128031576,178.32908500228373,0,1.45296311378479,2019-08-06 15:03:52:676
0.0014320602640509605,0.24051429331302643,9.878019332885742,0.0005966937908184444,-0.004155012958173888,0.004806315010185286,-23.423286910957444,178.33449148263534,0,1.456427812576294,2019-08-06 15:03:52:680
-0.034489184617996216,0.2740407884120941,9.87322998046875,-0.0018007365525403206,-0.004155012958173888,0.0005442166761740764,-19.35812621379667,178.33630629494007,0,1.4594190120697021,2019-08-06 15:03:52:683
-0.010541687719523907,0.28361979126930237,9.820545196533203,-0.002333498937755932,-0.0030894884478169893,0.004007171627417612,-15.37153770700218,178.33699054996808,0,1.4632008075714111,2019-08-06 15:03:52:687
-0.012936437502503395,0.24769854545593262,9.830123901367188,-0.00020244967322245603,-0.0033558695754062136,0.0005442166761740764,-11.465022093129882,178.3414179405084,0,1.4663472175598145,2019-08-06 15:03:52:690
-0.041673433035612106,0.31714627146720886,9.79420280456543,-0.0033990234481128304,-0.0022903450650493154,0.0021425034742187147,-7.640211668986985,178.33806905903444,0,1.469346523284912,2019-08-06 15:03:52:693
-0.034489184617996216,0.27164602279663086,9.882808685302734,-0.0007352119771648412,-0.005220537468530785,0.0005442166761740764,-3.890269931679281,178.33997819964497,0,1.4732236862182617,2019-08-06 15:03:52:697
-0.04406818374991417,0.26446178555488586,9.815755844116211,-0.0018007365525403206,-0.00255672619263854,1.1454389502251989e-05,-0.2171597565192558,178.3426286783561,0,1.4763538837432861,2019-08-06 15:03:52:700
0.01819530874490738,0.3075672686100006,9.882808685302734,-0.0033990234481128304,-0.0012248205546924172,0.0021425034742187147,-3.8105036367366347,178.34068889627787,0,1.4793081283569336,2019-08-06 15:03:52:703
0.01819530874490738,0.36264652013778687,9.921124458312988,-0.0007352119771648412,-0.0030894884478169893,0.0002778355485848519,-7.331515898494807,178.33216802954038,0,1.4832053184509277,2019-08-06 15:03:52:707
0.05172180384397507,0.3267252743244171,9.813361167907715,-0.002333498937755932,-0.002023963937460091,0.0002778355485848519,-10.778490001552399,178.32779721288424,0,1.4863381385803223,2019-08-06 15:03:52:710
-0.024910185486078262,0.19501404464244843,9.83491325378418,-0.006861978366847076,-0.0017575828098708665,0.0010769789638618162,-6.965532635129526,178.3396542842854,0,1.48927640914917,2019-08-06 15:03:52:713
0.013405809178948402,0.36264652013778687,9.808571815490723,-0.00393178570329128,-0.0028231073202277645,0.0010769789638618162,-10.42406955832434,178.3313297103562,0,1.4929747581481934,2019-08-06 15:03:52:716
0.05411655455827713,0.2668565511703491,9.846887588500977,-0.005263691601311728,-0.002023963937460091,0.0010769789638618162,-13.808895131757417,178.33468395566578,0,1.4964537620544434,2019-08-06 15:03:52:720
0.015800558030605316,0.2812250256538391,9.830123901367188,-0.002599880065345157,-0.0033558695754062136,-0.00025492675535753324,-17.13031173901003,178.33565292751075,0,1.4994447231292725,2019-08-06 15:03:52:723
0.01819530874490738,0.3339095413684845,9.808571815490723,-0.001534355424951096,-0.006019680851298459,0.0002778355485848519,-20.384307083054903,178.33026935117488,0,1.5032100677490234,2019-08-06 15:03:52:727
-0.005752188619226217,0.29798829555511475,9.911545753479004,-0.00393178570329128,-0.00042567707439687154,0.002408884601807939,-16.377211364172993,178.3299118120043,0,1.5063316822052002,2019-08-06 15:03:52:730
0.05172180384397507,0.276435524225235,9.78222942352295,-0.0033990234481128304,-0.004155012958173888,-0.0013204513144783674,-19.642923471130203,178.33150010326486,0,1.5092673301696777,2019-08-06 15:03:52:733
-0.015331187285482883,0.28601452708244324,9.79420280456543,-0.005530072728900952,-0.0017575828098708665,0.0002778355485848519,-15.651490886203966,178.33257350499545,0,1.5129947662353516,2019-08-06 15:03:52:736
0.07087980210781097,0.18543504178524017,9.83491325378418,-0.00020244967322245603,-0.0009584393620846114,-0.0031851193376401022,-18.930017318518914,178.34435776464,0,1.5164384841918945,2019-08-06 15:03:52:740
0.008616309612989426,0.2931987941265106,9.825334548950195,-0.002333498937755932,-0.004155012958173888,0.005871839520542184,-22.149700300757175,178.34368510563823,0,1.5194892883300781,2019-08-06 15:03:52:743
0.006221559830009937,0.2740407884120941,9.90196704864502,-0.002333498937755932,-0.0028231073202277645,-0.0023859759548724283,-25.305397816917505,178.34559225871703,0,1.5232017040252686,2019-08-06 15:03:52:747
0.02537955716252327,0.23811954259872437,9.830123901367188,-0.002333498937755932,-0.0033558695754062136,0.003474409372239163,-28.395743114711134,178.35133682019105,0,1.5263233184814453,2019-08-06 15:03:52:750
0.013405809178948402,0.25967228412628174,9.791808128356934,-0.004198166830880505,-0.004687775213352337,1.1454389502251989e-05,-31.42548586750105,178.354621020757,0,1.5292620658874512,2019-08-06 15:03:52:753
-0.034489184617996216,0.276435524225235,9.866044998168945,-0.003132642320523606,-0.00255672619263854,0.0002778355485848519,-27.200514726074772,178.3560022127235,0,1.5325167179107666,2019-08-06 15:03:52:756
-0.05125243216753006,0.2548827826976776,9.870835304260254,-0.0049973104737225035,-0.003622250702995438,0.003474409372239163,-23.061644418332243,178.36041649483806,0,1.536498785018921,2019-08-06 15:03:52:760
0.03256380558013916,0.30277779698371887,9.825334548950195,-0.005530072728900952,-0.007884349264571683,0.0026752657293971638,-26.19526781394536,178.35885075053346,0,1.539538860321045,2019-08-06 15:03:52:763
0.03256380558013916,0.23811954259872437,9.798992156982422,0.0005966937908184444,-0.004687775213352337,0.0010769789638618162,-29.26659045609945,178.36371029792596,0,1.543200969696045,2019-08-06 15:03:52:767
0.022984808310866356,0.2740407884120941,9.882808685302734,-0.0033990234481128304,-0.0054869185961200105,0.002408884601807939,-32.2776312291373,178.36526523280293,0,1.5463244915008545,2019-08-06 15:03:52:770
0.0014320602640509605,0.2931987941265106,9.858860969543457,-0.0033990234481128304,-0.0017575828098708665,0.0008105978362725917,-35.23162225169666,178.36445152011822,0,1.5492620468139648,2019-08-06 15:03:52:773
-0.010541687719523907,0.262067049741745,9.818150520324707,-0.0020671176801295454,-0.0033558695754062136,0.002941646856986388,-30.927606664717395,178.36696075836096,0,1.5525178909301758,2019-08-06 15:03:52:776
0.008616309612989426,0.21896153688430786,9.798992156982422,-0.00393178570329128,-0.0030894884478169893,0.002408884601807939,-33.90735650728645,178.3748986064997,0,1.5564978122711182,2019-08-06 15:03:52:780
0.013405809178948402,0.25727754831314087,9.818150520324707,-0.0004688308170663259,0.0022381343640418276,0.0026752657293971638,-36.82805365783316,178.37746527275726,0,1.5597517490386963,2019-08-06 15:03:52:783
0.011011059395968914,0.24530379474163055,9.892387390136719,-0.0007352119771648412,-0.003622250702995438,0.002408884601807939,-39.68951317939344,178.381649130592,0,1.5632126331329346,2019-08-06 15:03:52:787
0.04453755542635918,0.26925128698349,9.923519134521484,0.0016622183661939237,-0.004155012958173888,0.003474409372239163,-42.48985109344182,178.38264046196298,0,1.5663368701934814,2019-08-06 15:03:52:790
0.0014320602640509605,0.23811954259872437,9.827729225158691,-0.0004688308170663259,-0.00255672619263854,0.0026752657293971638,-45.23945733464561,178.38730709356642,0,1.5693304538726807,2019-08-06 15:03:52:793
0.027774307876825333,0.2884092926979065,9.784624099731445,-0.0020671176801295454,-0.0009584393620846114,0.0010769789638618162,-47.9312053603366,178.3862470762032,0,1.5732340812683105,2019-08-06 15:03:52:797
-0.010541687719523907,0.3003830313682556,9.837308883666992,-0.0020671176801295454,-0.005220537468530785,0.00507269613777451,-43.37289039849667,178.38390619236523,0,1.5763685703277588,2019-08-06 15:03:52:800
0.05411655455827713,0.276435524225235,9.79420280456543,-0.003132642320523606,-0.0033558695754062136,0.0016097412190402653,-46.0985402457366,178.3844173718768,0,1.5793447494506836,2019-08-06 15:03:52:803
-0.0033574390690773726,0.2931987941265106,9.815755844116211,-0.0012679742973618717,-0.003622250702995438,1.1454389502251989e-05,-41.57617078804586,178.38278720098782,0,1.5832319259643555,2019-08-06 15:03:52:807
-0.02251543663442135,0.3075672686100006,9.813361167907715,-0.0020671176801295454,-0.003888631830584663,0.0005442166761740764,-37.146591072021685,178.37959265353595,0,1.5863711833953857,2019-08-06 15:03:52:810
-0.017725937068462372,0.314751535654068,9.88520336151123,-0.002333498937755932,-0.004155012958173888,0.0002778355485848519,-32.80500431936189,178.37592500787488,0,1.5894134044647217,2019-08-06 15:03:52:813
-0.024910185486078262,0.2955935299396515,9.837308883666992,-0.0010015931047540657,-0.0022903450650493154,0.003208027984575613,-28.551311059506315,178.3742005652179,0,1.593261480331421,2019-08-06 15:03:52:817
0.0014320602640509605,0.28601452708244324,9.796597480773926,-0.0004688308170663259,-0.0028231073202277645,0.0013433600914510408,-31.57961804025076,178.3733536302645,0,1.5964112281799316,2019-08-06 15:03:52:820
0.011011059395968914,0.2740407884120941,9.8229398727417,-0.003132642320523606,-0.00015929593055300162,0.0005442166761740764,-34.546713989233105,178.3744604104156,0,1.5994491577148438,2019-08-06 15:03:52:823
-0.008146938867866993,0.26925128698349,9.798992156982422,-0.0028662611929343817,-0.004687775213352337,0.002941646856986388,-30.25574006871525,178.37609905074,0,1.6032192707061768,2019-08-06 15:03:52:827
-0.027304936200380325,0.31235677003860474,9.760676383972168,-0.0007352119771648412,-0.0028231073202277645,0.0008105978362725917,-26.05329176943591,178.37205890759518,0,1.6066203117370605,2019-08-06 15:03:52:830
-0.03209443390369415,0.30277779698371887,9.813361167907715,-0.0007352119771648412,-0.004954156340941561,0.0005442166761740764,-21.93512940401521,178.36939857236615,0,1.6096551418304443,2019-08-06 15:03:52:833
-0.000962689402513206,0.24769854545593262,9.820545196533203,-0.004464548218544054,-0.006019680851298459,0.0008105978362725917,-17.89534227723247,178.37400155928188,0,1.6131961345672607,2019-08-06 15:03:52:837
0.03495855629444122,0.2429090440273285,9.803781509399414,-0.0018007365525403206,-0.0017575828098708665,0.0010769789638618162,-21.133039955958157,178.37845185361866,0,1.616330862045288,2019-08-06 15:03:52:840
0.03256380558013916,0.23811954259872437,9.79420280456543,-0.002333498937755932,-0.0022903450650493154,0.007736507413666756,-24.30618350762635,178.38342145251968,0,1.6193301677703857,2019-08-06 15:03:52:843
-0.04406818374991417,0.2429090440273285,9.815755844116211,-0.0028662611929343817,-0.0033558695754062136,-0.0007876890592999184,-20.22446895458223,178.3880291819304,0,1.6232333183288574,2019-08-06 15:03:52:847
0.0014320602640509605,0.26925128698349,9.899572372436523,-0.0018007365525403206,-0.0033558695754062136,0.0013433600914510408,-23.41922141976736,178.3894272251297,0,1.6263771057128906,2019-08-06 15:03:52:850
0.02537955716252327,0.3075672686100006,9.87322998046875,-0.00393178570329128,-0.0028231073202277645,0.0042735527550068365,-26.54741918215996,178.3866107032062,0,1.6293559074401855,2019-08-06 15:03:52:853
-0.000962689402513206,0.29798829555511475,9.803781509399414,-0.004730929346133278,-0.004421394085763112,0.0005442166761740764,-22.415621840852417,178.385087623223,0,1.6332287788391113,2019-08-06 15:03:52:857
0.027774307876825333,0.30517253279685974,9.827729225158691,-0.003132642320523606,0.0009062286610771233,-0.0005213078992014032,-25.564231171127858,178.38236805906243,0,1.6363780498504639,2019-08-06 15:03:52:860
0.03256380558013916,0.30517253279685974,9.818150520324707,-0.0018007365525403206,-0.0028231073202277645,0.0002778355485848519,-28.648664308186508,178.37942144810634,0,1.639416217803955,2019-08-06 15:03:52:863
0.011011059395968914,0.31235677003860474,9.875624656677246,-0.002599880065345157,-0.0033558695754062136,0.004806315010185286,-31.673695625710156,178.37615690519834,0,1.6432251930236816,2019-08-06 15:03:52:867
-0.0033574390690773726,0.3410937786102295,9.858860969543457,-0.0033990234481128304,-0.003622250702995438,0.0005442166761740764,-27.439973077196882,178.36960305252006,0,1.6463663578033447,2019-08-06 15:03:52:870
-0.07280518114566803,0.314751535654068,9.784624099731445,-0.004464548218544054,-0.0017575828098708665,0.002941646856986388,-23.299406150376214,178.36610823391428,0,1.649343490600586,2019-08-06 15:03:52:873
-0.008146938867866993,0.2812250256538391,9.801386833190918,-0.003132642320523606,-0.0033558695754062136,0.0018761223466294901,-19.233632432575565,178.36660503885622,0,1.6532604694366455,2019-08-06 15:03:52:877
0.11638004332780838,0.31235677003860474,9.798992156982422,-0.005530072728900952,-0.0033558695754062136,0.0018761223466294901,-22.434756950075652,178.36373602546868,0,1.6564114093780518,2019-08-06 15:03:52:880
0.030169056728482246,0.3339095413684845,9.763071060180664,0.0024613618789987605,-0.0014912016822816417,0.0018761223466294901,-25.582266457958603,178.3568649693241,0,1.6594491004943848,2019-08-06 15:03:52:883
0.03495855629444122,0.2357247918844223,9.832518577575684,-0.0033990234481128304,-0.004421394085763112,0.007470126286077531,-28.66561062943524,178.36298056880736,0,1.6632206439971924,2019-08-06 15:03:52:887
0.015800558030605316,0.2429090440273285,9.83491325378418,-0.00393178570329128,-0.004421394085763112,0.0021425034742187147,-31.689678001968357,178.36811725061222,0,1.6663601398468018,2019-08-06 15:03:52:890
-0.03209443390369415,0.26925128698349,9.842098236083984,-0.0020671176801295454,-0.0030894884478169893,0.00507269613777451,-27.459102163441262,178.36976105952814,0,1.6693520545959473,2019-08-06 15:03:52:893
0.020590057596564293,0.276435524225235,9.815755844116211,-0.0012679742973618717,-0.00255672619263854,0.0013433600914510408,-30.50695896320076,178.3703790481255,0,1.6732349395751953,2019-08-06 15:03:52:897
-0.020120687782764435,0.3267252743244171,9.935493469238281,-0.00393178570329128,-0.002023963937460091,-0.00025492675535753324,-26.298783405620856,178.36599552824643,0,1.6763763427734375,2019-08-06 15:03:52:900
-0.000962689402513206,0.25248804688453674,9.763071060180664,6.393147468507523e-05,-0.00042567707439687154,0.0021425034742187147,-22.172849121969357,178.36903632593942,0,1.6793723106384277,2019-08-06 15:03:52:903
-0.010541687719523907,0.26925128698349,9.87322998046875,-0.005263691601311728,-0.005220537468530785,0.004007171627417612,-18.129482889414284,178.3715553726803,0,1.6832365989685059,2019-08-06 15:03:52:907
-0.02251543663442135,0.27883028984069824,9.837308883666992,0.002727743006587985,-0.00255672619263854,0.0037407904998283874,-14.169065270341438,178.3711720877134,0,1.6863760948181152,2019-08-06 15:03:52:910
0.01819530874490738,0.29798829555511475,9.784624099731445,-0.0010015931047540657,-0.0017575828098708665,0.0018761223466294901,-17.483253424566932,178.36903159860285,0,1.6894121170043945,2019-08-06 15:03:52:913
0.006221559830009937,0.31714627146720886,9.88520336151123,-0.0004688308170663259,-0.0014912016822816417,-0.0007876890592999184,-20.732499340806644,178.36501487993735,0,1.6938047409057617,2019-08-06 15:03:52:917
0.03495855629444122,0.3267252743244171,9.777440071105957,-0.0018007365525403206,-0.005753299723709235,0.0026752657293971638,-23.91272069573556,178.3597594984152,0,1.696997880935669,2019-08-06 15:03:52:920
0.03495855629444122,0.24530379474163055,9.787018775939941,-0.0033990234481128304,-0.006286061978887684,0.0018761223466294901,-27.02930695449145,178.36442539010383,0,1.7000186443328857,2019-08-06 15:03:52:924
-0.010541687719523907,0.29798829555511475,9.846887588500977,-0.002333498937755932,-0.004155012958173888,0.002941646856986388,-22.889074903897203,178.3629596652329,0,1.7037591934204102,2019-08-06 15:03:52:927
-0.020120687782764435,0.28361979126930237,9.839703559875488,-0.002333498937755932,-0.00015929593055300162,-0.0005213078992014032,-18.83360810420253,178.36309751296025,0,1.7069478034973145,2019-08-06 15:03:52:930
-0.000962689402513206,0.26446178555488586,9.83491325378418,-0.0012679742973618717,-0.0033558695754062136,0.004539933882596061,-14.856473870932,178.3652461725594,0,1.7099952697753906,2019-08-06 15:03:52:933
-0.020120687782764435,0.3003830313682556,9.779834747314453,-0.0004688308170663259,-0.0054869185961200105,0.003208027984575613,-10.960542333298125,178.36285513572736,0,1.713759183883667,2019-08-06 15:03:52:937
-0.03209443390369415,0.34348851442337036,9.851676940917969,-0.002333498937755932,-0.0012248205546924172,0.003474409372239163,-7.144843877022938,178.35608123164496,0,1.7169685363769531,2019-08-06 15:03:52:940
0.0014320602640509605,0.28361979126930237,9.849282264709473,-0.002333498937755932,-0.0017575828098708665,0.0021425034742187147,-10.601481967225848,178.35636715779157,0,1.7199923992156982,2019-08-06 15:03:52:943
0.011011059395968914,0.2500932812690735,9.791808128356934,-0.001534355424951096,-0.005220537468530785,0.0021425034742187147,-13.987060330991383,178.3603025594795,0,1.7237565517425537,2019-08-06 15:03:52:947
-0.027304936200380325,0.24051429331302643,9.772649765014648,-0.0036654045757020556,0.00010708522141819095,0.0016097412190402653,-10.110540059162224,178.36555857959917,0,1.7269558906555176,2019-08-06 15:03:52:950
0.003826810047030449,0.314751535654068,9.798992156982422,-0.0004688308170663259,-0.00255672619263854,0.002408884601807939,-13.507445549363375,178.3615323108348,0,1.729994297027588,2019-08-06 15:03:52:953
0.022984808310866356,0.2548827826976776,9.889992713928223,-0.00020244967322245603,-0.0012248205546924172,0.003208027984575613,-16.83435442289947,178.3648220335222,0,1.7340519428253174,2019-08-06 15:03:52:958
-0.024910185486078262,0.2357247918844223,9.878019332885742,-0.007394740622025524,-0.005220537468530785,0.003208027984575613,-12.899648387902074,178.37147227514217,0,1.737151861190796,2019-08-06 15:03:52:961
-0.04646293446421623,0.27883028984069824,9.803781509399414,-0.0010015931047540657,-0.003622250702995438,0.0018761223466294901,-9.046596824245572,178.37159583637288,0,1.7395579814910889,2019-08-06 15:03:52:963
-0.020120687782764435,0.3003830313682556,9.887598037719727,-0.005263691601311728,-0.004421394085763112,0.0026752657293971638,-5.267004732528099,178.37054297172867,0,1.743553876876831,2019-08-06 15:03:52:967
-0.041673433035612106,0.28361979126930237,9.791808128356934,-0.003132642320523606,-0.003622250702995438,0.002408884601807939,-1.5659198059612924,178.370487655732,0,1.7466108798980713,2019-08-06 15:03:52:970
0.01819530874490738,0.31235677003860474,9.837308883666992,-0.0049973104737225035,-0.004687775213352337,0.004007171627417612,-5.131673289226256,178.3675667202628,0,1.749682903289795,2019-08-06 15:03:52:973
-0.017725937068462372,0.27164602279663086,9.839703559875488,6.393147468507523e-05,-0.006286061978887684,0.00507269613777451,-1.4298618940375118,178.36857533878572,0,1.7532024383544922,2019-08-06 15:03:52:977
-0.05364718288183212,0.314751535654068,9.878019332885742,-0.0010015931047540657,-0.0030894884478169893,0.0008105978362725917,2.1930557717448056,178.36487921640577,0,1.7563371658325195,2019-08-06 15:03:52:980
-0.0033574390690773726,0.2668565511703491,9.945072174072266,-0.0010015931047540657,-0.0014912016822816417,0.0018761223466294901,5.749058392396581,178.36700892298245,0,1.7593300342559814,2019-08-06 15:03:52:983
0.020590057596564293,0.28601452708244324,9.856466293334961,-0.001534355424951096,-0.0022903450650493154,0.002941646856986388,2.0369748218945065,178.36676344620105,0,1.7632474899291992,2019-08-06 15:03:52:987
-0.012936437502503395,0.31235677003860474,9.746308326721191,-0.0004688308170663259,-0.008417111519750132,1.1454389502251989e-05,5.596191247407117,178.3627978715993,0,1.7663724422454834,2019-08-06 15:03:52:990
0.030169056728482246,0.262067049741745,9.868440628051758,-0.0007352119771648412,-0.00015929593055300162,0.0005442166761740764,1.887797221974156,178.36524082836635,0,1.7693467140197754,2019-08-06 15:03:52:993
0.013405809178948402,0.25967228412628174,9.777440071105957,-0.001534355424951096,-0.00042567707439687154,0.0037407904998283874,-1.7482816202535283,178.36789145445235,0,1.7737791538238525,2019-08-06 15:03:52:997
-0.005752188619226217,0.30996203422546387,9.849282264709473,-0.001534355424951096,-0.004954156340941561,0.004806315010185286,1.8869022961861086,178.36475783955436,0,1.7769696712493896,2019-08-06 15:03:53:000
0.04453755542635918,0.30277779698371887,9.787018775939941,-0.0007352119771648412,-0.003888631830584663,0.003474409372239163,-1.7449557442283865,178.3621489662171,0,1.7800168991088867,2019-08-06 15:03:53:004
0.003826810047030449,0.2740407884120941,9.882808685302734,-0.0020671176801295454,-0.0030894884478169893,-0.0005213078992014032,-5.308964888427802,178.3635725672281,0,1.78375244140625,2019-08-06 15:03:53:007
0.03495855629444122,0.30517253279685974,9.803781509399414,-0.0012679742973618717,-0.003622250702995438,1.1454389502251989e-05,-8.798052450423638,178.3608690122192,0,1.7869336605072021,2019-08-06 15:03:53:010
-0.008146938867866993,0.22614578902721405,9.825334548950195,-0.0020671176801295454,-0.003888631830584663,0.0013433600914510408,-5.022377414613819,178.36763425827354,0,1.7899754047393799,2019-08-06 15:03:53:013
-0.027304936200380325,0.2548827826976776,9.767860412597656,-0.0028662611929343817,-0.003888631830584663,0.0016097412190402653,-1.3243068728427416,178.3709958347599,0,1.7937595844268799,2019-08-06 15:03:53:017
0.015800558030605316,0.2955935299396515,9.830123901367188,-0.0007352119771648412,-0.004687775213352337,0.0013433600914510408,-4.895138596196668,178.36926019775572,0,1.7969517707824707,2019-08-06 15:03:53:020
-0.012936437502503395,0.26925128698349,9.815755844116211,-0.00393178570329128,-0.0006920582344953867,-0.0013204513144783674,-1.1986261790998611,178.37113086405154,0,1.8000366687774658,2019-08-06 15:03:53:024
-0.05364718288183212,0.3458832800388336,9.820545196533203,-0.0033990234481128304,-0.004155012958173888,0.0021425034742187147,2.4199556793420163,178.36407633559998,0,1.8037619590759277,2019-08-06 15:03:53:027
-0.05843668058514595,0.34348851442337036,9.899572372436523,-0.0007352119771648412,-0.003622250702995438,1.1454389502251989e-05,5.965439774440608,178.35718197267525,0,1.8069450855255127,2019-08-06 15:03:53:030
0.03974805399775505,0.23811954259872437,9.878019332885742,-0.0007352119771648412,-0.002023963937460091,0.0013433600914510408,2.2510909768238383,178.362547010018,0,1.8100159168243408,2019-08-06 15:03:53:034
-0.017725937068462372,0.24769854545593262,9.818150520324707,-0.002333498937755932,-0.0006920582344953867,0.0016097412190402653,5.804146899210409,178.36688663887438,0,1.813788652420044,2019-08-06 15:03:53:037
0.05172180384397507,0.3195410370826721,9.909151077270508,-0.001534355424951096,-0.0017575828098708665,-0.0005213078992014032,2.0943610995578865,178.36288513317032,0,1.8169903755187988,2019-08-06 15:03:53:040
-0.03927868604660034,0.26925128698349,9.743913650512695,-0.0004688308170663259,-0.006019680851298459,0.002408884601807939,5.648884095234328,178.3640508487169,0,1.8200361728668213,2019-08-06 15:03:53:044
-0.000962689402513206,0.321935772895813,9.858860969543457,-0.0028662611929343817,-0.0014912016822816417,0.0005442166761740764,9.136106299660355,178.35996314989575,0,1.8237597942352295,2019-08-06 15:03:53:047
0.0014320602640509605,0.223751038312912,9.851676940917969,-0.002333498937755932,-0.002023963937460091,0.0008105978362725917,5.353913387840361,178.36716045663846,0,1.8269507884979248,2019-08-06 15:03:53:050
0.011011059395968914,0.29080402851104736,9.75349235534668,-0.0018007365525403206,-0.004155012958173888,0.0026752657293971638,1.648837042521746,178.36596841496777,0,1.829986572265625,2019-08-06 15:03:53:053
-0.024910185486078262,0.314751535654068,9.779834747314453,6.393147468507523e-05,-0.0033558695754062136,-0.0005213078992014032,5.213651509328372,178.3617684118681,0,1.833754301071167,2019-08-06 15:03:53:057
0.04453755542635918,0.27883028984069824,9.861255645751953,-0.002599880065345157,-0.004421394085763112,0.002408884601807939,1.5153461948644678,178.3626064293673,0,1.8369457721710205,2019-08-06 15:03:53:060
0.015800558030605316,0.29798829555511475,9.854071617126465,-0.0012679742973618717,-0.00042567707439687154,0.004007171627417612,-2.113049754819776,178.36093132537917,0,1.8400230407714844,2019-08-06 15:03:53:064
-0.008146938867866993,0.2548827826976776,9.837308883666992,-0.002333498937755932,-0.004421394085763112,0.0016097412190402653,1.5291896779651122,178.36451837047022,0,1.8437588214874268,2019-08-06 15:03:53:067
-0.005752188619226217,0.31714627146720886,9.815755844116211,-0.0004688308170663259,-0.004687775213352337,0.0010769789638618162,5.098774600488291,178.3603004729287,0,1.8469510078430176,2019-08-06 15:03:53:070
-0.010541687719523907,0.2955935299396515,9.789413452148438,0.002727743006587985,-0.0006920582344953867,1.1454389502251989e-05,8.595683000222735,178.3580392296843,0,1.8499841690063477,2019-08-06 15:03:53:073
0.06609030067920685,0.24769854545593262,9.8229398727417,-0.0007352119771648412,-0.006552443626625559,0.003474409372239163,4.83286718652295,178.36214452186886,0,1.8537569046020508,2019-08-06 15:03:53:077
0.003826810047030449,0.29080402851104736,9.798992156982422,-0.004198166830880505,-0.0054869185961200105,-0.0018532135696568165,1.1376889507301473,178.36169364513705,0,1.8571052551269531,2019-08-06 15:03:53:081
-0.048857681453228,0.29798829555511475,9.791808128356934,0.0019285994937831485,-0.0012248205546924172,0.0016097412190402653,4.709435335652309,178.35925456300342,0,1.8602726459503174,2019-08-06 15:03:53:084
0.03256380558013916,0.25248804688453674,9.818150520324707,-0.002599880065345157,-0.0030894884478169893,-0.0005213078992014032,1.0197373089651678,178.36318776356492,0,1.8642504215240479,2019-08-06 15:03:53:088
-0.0033574390690773726,0.28601452708244324,9.856466293334961,-0.0018007365525403206,-0.0006920582344953867,0.0005442166761740764,4.59907726238964,178.36300655102747,0,1.8674681186676025,2019-08-06 15:03:53:091
-0.008146938867866993,0.27883028984069824,9.90196704864502,-0.0036654045757020556,-0.004155012958173888,0.002408884601807939,8.106684501560164,178.3639559713021,0,1.8697466850280762,2019-08-06 15:03:53:093
0.008616309612989426,0.27883028984069824,9.868440628051758,-0.001534355424951096,-0.006286061978887684,0.004007171627417612,4.346791487041129,178.36461061703062,0,1.873260259628296,2019-08-06 15:03:53:097
-0.012936437502503395,0.25727754831314087,9.933098793029785,-0.0012679742973618717,-0.0017575828098708665,-0.0007876890592999184,7.858679992020862,178.36787313329484,0,1.876469612121582,2019-08-06 15:03:53:100
0.049327053129673004,0.2812250256538391,9.839703559875488,-0.004198166830880505,-0.0017575828098708665,-0.0010540701868891429,4.107543569015171,178.36847267423863,0,1.8794353008270264,2019-08-06 15:03:53:103
0.03974805399775505,0.31235677003860474,9.839703559875488,-0.002333498937755932,-0.0022903450650493154,0.0013433600914510408,0.43044031361346624,178.36516541660922,0,1.882690668106079,2019-08-06 15:03:53:106
-0.012936437502503395,0.2931987941265106,9.741518020629883,-0.0028662611929343817,-0.00255672619263854,-0.00025492675535753324,4.0208119850521475,178.36394593571626,0,1.8861889839172363,2019-08-06 15:03:53:110
0.09003780037164688,0.2740407884120941,9.837308883666992,-0.004198166830880505,-0.0017575828098708665,0.002408884601807939,0.35124977039231187,178.36562766169828,0,1.8898987770080566,2019-08-06 15:03:53:113
-0.008146938867866993,0.2429090440273285,9.880414009094238,-0.0007352119771648412,-0.002023963937460091,0.002408884601807939,3.9436601588012805,178.37028668427652,0,1.893244743347168,2019-08-06 15:03:53:117
0.003826810047030449,0.3075672686100006,9.897176742553711,-0.0049973104737225035,-0.002023963937460091,-0.0010540701868891429,0.26558449034779974,178.36815681688967,0,1.8963637351989746,2019-08-06 15:03:53:120
0.03495855629444122,0.3195410370826721,9.813361167907715,-0.0012679742973618717,-0.00042567707439687154,-0.0023859759548724283,-3.3355687567908068,178.36372107002097,0,1.8995566368103027,2019-08-06 15:03:53:123
0.056511301547288895,0.22614578902721405,9.791808128356934,-0.0033990234481128304,-0.003622250702995438,0.0005442166761740764,-6.861415813196338,178.3707631627673,0,1.9036288261413574,2019-08-06 15:03:53:127
-0.02969968505203724,0.262067049741745,9.878019332885742,-0.003132642320523606,-0.0033558695754062136,0.0016097412190402653,-3.126789772700998,178.3737405116477,0,1.9081029891967773,2019-08-06 15:03:53:132
-0.024910185486078262,0.26446178555488586,9.851676940917969,-0.0018007365525403206,-0.003888631830584663,0.0010769789638618162,0.5333898525082956,178.37576239939673,0,1.9105820655822754,2019-08-06 15:03:53:134
0.02537955716252327,0.31714627146720886,9.810966491699219,-0.004730929346133278,-0.008417111519750132,0.0010769789638618162,-3.0726494423198787,178.37215290883,0,1.9141032695770264,2019-08-06 15:03:53:138
0.02537955716252327,0.25727754831314087,9.796597480773926,-0.0028662611929343817,-0.005753299723709235,0.0013433600914510408,-6.60721397406579,178.3751278914708,0,1.9172415733337402,2019-08-06 15:03:53:141
