ACCELEROMETER X (m/s²),ACCELEROMETER Y (m/s²),ACCELEROMETER Z (m/s²),GYROSCOPE X (rad/s),GYROSCOPE Y (rad/s),GYROSCOPE Z (rad/s),Time since start in ms ,YYYY-MO-DD HH-MI-SS_SSS,Pitch (Deg),Roll (Deg),Heading (Deg),MagX,MagY,MagZ
-0.16101577877998352,0.21907170116901398,9.66139030456543,-0.0008391006169246387,0.013840364961357736,0.0010085190140713856,0.0,2019-08-06 14:48:41:382,3.5809040515416117,3.5740208542360263,0,-22.340904235839844,15.143834114074707,-39.733821868896484
-0.14425253868103027,0.2238612025976181,9.601521492004395,-3.9957173202045016e-05,0.015971413982071532,0.0020740435894468653,0.00999593734741211,2019-08-06 14:48:41:392,7.083106831936259,7.0758504751572,0,-22.340904235839844,15.143834114074707,-39.733821868896484
-0.1226997897028923,0.24780869483947754,9.625469207763672,0.004488522389989922,0.016237795629809405,0.003938711482571438,0.019999980926513672,2019-08-06 14:48:41:402,10.517716845217766,10.502316948018454,0,-22.340904235839844,15.143834114074707,-39.733821868896484
-0.17059478163719177,0.21667695045471191,9.615889549255371,-0.002171006319889343,0.01410674660909561,0.005803379635770335,0.030000925064086914,2019-08-06 14:48:41:412,13.879113370593343,13.867672942521796,0,-22.340904235839844,15.143834114074707,-39.733821868896484
-0.16101577877998352,0.27175620198249817,9.649415969848633,-0.0011054818095324445,0.013307602706179285,0.00047575672638364575,0.039999961853027344,2019-08-06 14:48:41:422,17.1749399811344,17.158676293522085,0,-22.340904235839844,15.143834114074707,-39.733821868896484
-0.17298953235149384,0.17596620321273804,9.654206275939941,0.0007591862786478714,0.01756970178790418,0.0018076624618576407,0.04999947547912598,2019-08-06 14:48:41:432,20.40104533069367,20.39419233579134,0,-22.340904235839844,15.143834114074707,-39.733821868896484
-0.1418577879667282,0.23344020545482635,9.608705520629883,-0.002171006319889343,0.01357398435391716,0.005004236253002661,0.059998273849487305,2019-08-06 14:48:41:442,23.56848711040834,23.55969320872457,0,-22.340904235839844,15.143834114074707,-39.733821868896484
-0.12509453296661377,0.23583495616912842,9.670969009399414,0.0004928051185493561,0.010111029175108591,0.00047575672638364575,0.07000303268432617,2019-08-06 14:48:41:452,26.67661568073399,26.660283896428837,0,-22.340904235839844,15.143834114074707,-39.733821868896484
-0.1226997897028923,0.23583495616912842,9.613494873046875,0.0010255674062370958,0.011709315940643939,0.003672330354982212,0.0800011157989502,2019-08-06 14:48:41:462,29.721885007534127,29.69839690337738,0,-22.340904235839844,15.143834114074707,-39.733821868896484
-0.17777903378009796,0.2310454547405243,9.637442588806152,0.0010255674062370958,0.011975696548084513,0.006868904146127233,0.09000086784362793,2019-08-06 14:48:41:472,32.69958717028748,32.67638651418855,0,-22.340904235839844,15.143834114074707,-39.733821868896484
-0.15383154153823853,0.2118874490261078,9.601521492004395,-0.0003063383292368989,0.016770557884987856,0.00020937558253977584,0.10000181198120117,2019-08-06 14:48:41:482,35.61782008511865,35.597746719355904,0,-22.340904235839844,15.143834114074707,-39.733821868896484
-0.13227878510951996,0.24062444269657135,9.618284225463867,-0.0003063383292368989,0.012242078195822388,0.0023404247170360896,0.10999751091003418,2019-08-06 14:48:41:492,38.48283412212374,38.45730187190039,0,-22.340904235839844,16.043468475341797,-39.43394470214844
-0.12748928368091583,0.24062444269657135,9.615889549255371,0.0012919485988449018,0.014373127216536186,0.00553699850818111,0.12000083923339844,2019-08-06 14:48:41:502,41.289912386498436,41.25876118321987,0,-22.340904235839844,16.043468475341797,-39.43394470214844
-0.12030503898859024,0.24780869483947754,9.64462661743164,0.0010255674062370958,0.012508459843560263,-0.001655292456876604,0.12999629974365234,2019-08-06 14:48:41:512,44.04280067570451,44.003573728340875,0,-22.340904235839844,16.043468475341797,-39.43394470214844
-0.1418577879667282,0.20230846107006073,9.668574333190918,0.0031566164919694735,0.010910172037727614,0.0020740435894468653,0.13999629020690918,2019-08-06 14:48:41:522,46.73900689886461,46.69775579955831,0,-22.340904235839844,16.043468475341797,-39.43394470214844
-0.14425253868103027,0.2430191934108734,9.635047912597656,0.0012919485988449018,0.013041222098738713,-0.003519960350001176,0.14999818801879883,2019-08-06 14:48:41:532,49.37974778040695,49.3341784846773,0,-22.340904235839844,16.043468475341797,-39.43394470214844
-0.11791028827428818,0.18075570464134216,9.647021293640137,0.001824710854023351,0.012508459843560263,0.0020740435894468653,0.16000866889953613,2019-08-06 14:48:41:542,51.97111677548062,51.9250008235133,0,-22.340904235839844,16.043468475341797,-39.43394470214844
-0.13467353582382202,0.2238612025976181,9.651811599731445,-0.003502911957835466,0.013041222098738713,-0.000856149009090349,0.17000341415405273,2019-08-06 14:48:41:552,54.50838752193968,54.461893398079276,0,-22.340904235839844,16.043468475341797,-39.43394470214844
-0.14425253868103027,0.22865070402622223,9.623074531555176,0.0002264239747054862,0.014905889471714633,0.003405949227392988,0.17998313903808594,2019-08-06 14:48:41:562,56.992690800424356,56.94530605051416,0,-22.340904235839844,16.043468475341797,-39.43394470214844
-0.10833129286766052,0.2430191934108734,9.62067985534668,-0.0003063383292368989,0.013840364961357736,-0.003519960350001176,0.18999862670898438,2019-08-06 14:48:41:572,59.432150847728316,59.37763243312003,0,-22.340904235839844,16.043468475341797,-39.43394470214844
-0.13946303725242615,0.2310454547405243,9.642231941223145,-3.9957173202045016e-05,0.009045504664751694,0.001541281334268416,0.199998140335083,2019-08-06 14:48:41:582,61.82185593389867,61.76264924617154,0,-22.340904235839844,16.043468475341797,-39.43394470214844
-0.17298953235149384,0.2238612025976181,9.623074531555176,-0.0008391006169246387,0.013041222098738713,0.005270617380591885,0.21000146865844727,2019-08-06 14:48:41:592,64.15749637681367,64.1012149899436,0,-22.340904235839844,16.043468475341797,-39.43394470214844
-0.13227878510951996,0.2573876976966858,9.618284225463867,-0.0024373874474785677,0.012774840451000838,0.0023404247170360896,0.2199997901916504,2019-08-06 14:48:41:602,66.45141599015938,66.38990137833012,0,-22.340904235839844,16.043468475341797,-39.43394470214844
-0.13227878510951996,0.24780869483947754,9.615889549255371,-0.0013718629371216693,0.013041222098738713,0.0026068058446253144,0.22999811172485352,2019-08-06 14:48:41:612,68.69930373948849,68.63334895025477,0,-22.340904235839844,16.043468475341797,-39.43394470214844
-0.13946303725242615,0.23583495616912842,9.56320571899414,0.003689378747147923,0.013840364961357736,-0.001122530201698155,0.24000048637390137,2019-08-06 14:48:41:622,70.90083443415276,70.83035659091325,0,-22.340904235839844,16.043468475341797,-39.43394470214844
-0.11551553755998611,0.2047031968832016,9.594337463378906,-3.9957173202045016e-05,0.010377409782549165,0.00020937558253977584,0.25000715255737305,2019-08-06 14:48:41:632,73.06319083667792,72.98932655336043,0,-22.340904235839844,16.043468475341797,-39.43394470214844
-0.15143679082393646,0.2693614363670349,9.611100196838379,-0.0003063383292368989,0.014905889471714633,0.004205092610160662,0.26000404357910156,2019-08-06 14:48:41:642,75.17550592110054,75.09760486307657,0,-22.340904235839844,16.043468475341797,-39.43394470214844
-0.16580528020858765,0.2430191934108734,9.639837265014648,-0.0011054818095324445,0.014373127216536186,-0.000856149009090349,0.2700214385986328,2019-08-06 14:48:41:652,77.24420345839809,77.16739228887447,0,-22.340904235839844,16.043468475341797,-39.43394470214844
-0.14425253868103027,0.24780869483947754,9.577573776245117,0.0012919485988449018,0.014639508864274061,-0.0013889113292873795,0.2799994945526123,2019-08-06 14:48:41:662,79.27385947092337,79.19367797462061,0,-22.340904235839844,16.043468475341797,-39.43394470214844
-0.16101577877998352,0.23583495616912842,9.63265323638916,0.0007591862786478714,0.012774840451000838,-0.004052722605179625,0.2899961471557617,2019-08-06 14:48:41:672,81.26205872032573,81.18132858171587,0,-22.340904235839844,16.043468475341797,-39.43394470214844
-0.1490420401096344,0.2502034604549408,9.656600952148438,0.0012919485988449018,0.014905889471714633,0.00047575672638364575,0.3000025749206543,2019-08-06 14:48:41:682,83.21075762784524,83.12729197459576,0,-22.340904235839844,16.043468475341797,-39.43394470214844
-0.16101577877998352,0.20230846107006073,9.642231941223145,-0.0003063383292368989,0.011975696548084513,0.003405949227392988,0.3099987506866455,2019-08-06 14:48:41:692,85.12068682594203,85.04087858046502,0,-22.340904235839844,16.043468475341797,-39.43394470214844
-0.13946303725242615,0.24541394412517548,9.587152481079102,-0.0016382440647108938,0.012508459843560263,0.0018076624618576407,0.3199739456176758,2019-08-06 14:48:41:702,86.99459872140217,86.91165161536844,0,-22.340904235839844,16.043468475341797,-39.43394470214844
-0.13946303725242615,0.2549929618835449,9.599126815795898,-3.9957173202045016e-05,0.012774840451000838,0.00020937558253977584,0.3300008773803711,2019-08-06 14:48:41:712,88.83086685628818,88.74300792497796,0,-22.340904235839844,16.043468475341797,-39.43394470214844
-0.1490420401096344,0.2621771991252899,9.649415969848633,0.0020910919816125757,0.009045504664751694,-5.7005565367755386e-05,0.34000062942504883,2019-08-06 14:48:41:722,90.63147253879164,90.5358464769267,0,-22.340904235839844,16.043468475341797,-39.43394470214844
-0.15862104296684265,0.2430191934108734,9.606310844421387,0.0007591862786478714,0.01064379143028704,0.0026068058446253144,0.35000157356262207,2019-08-06 14:48:41:732,92.39394621507783,92.29572018440166,0,-22.340904235839844,16.043468475341797,-39.43394470214844
-0.1298840343952179,0.2310454547405243,9.618284225463867,-0.002171006319889343,0.013840364961357736,-0.0027208169672335025,0.3600008487701416,2019-08-06 14:48:41:742,94.12282315630969,94.0235034098788,0,-23.090599060058594,14.69401741027832,-40.18363952636719
-0.13227878510951996,0.19991371035575867,9.62067985534668,-0.0024373874474785677,0.012508459843560263,-0.0005897678815011245,0.3699972629547119,2019-08-06 14:48:41:752,95.81759104446273,95.72059321949864,0,-23.090599060058594,14.69401741027832,-40.18363952636719
-0.13706828653812408,0.2118874490261078,9.623074531555176,-0.0005727194893354142,0.01570503337463096,0.001541281334268416,0.37999987602233887,2019-08-06 14:48:41:762,97.47609757831975,97.381275542098,0,-23.090599060058594,14.69401741027832,-40.18363952636719
-0.14664728939533234,0.21907170116901398,9.611100196838379,-0.0024373874474785677,0.012242078195822388,0.005803379635770335,0.3899986743927002,2019-08-06 14:48:41:772,99.10221938524131,99.00890342176291,0,-23.090599060058594,14.69401741027832,-40.18363952636719
-0.14664728939533234,0.21428219974040985,9.579968452453613,-0.003502911957835466,0.016770557884987856,0.0010085190140713856,0.40000343322753906,2019-08-06 14:48:41:782,100.69321390797819,100.60506590622327,0,-23.090599060058594,14.69401741027832,-40.18363952636719
-0.1562262922525406,0.2909142076969147,9.6901273727417,-0.0013718629371216693,0.012508459843560263,0.00020937558253977584,0.41000819206237793,2019-08-06 14:48:41:792,102.25384971010563,102.15934323673308,0,-23.090599060058594,14.69401741027832,-40.18363952636719
-0.16101577877998352,0.18315045535564423,9.675758361816406,-0.0011054818095324445,0.010910172037727614,0.0018076624618576407,0.41996335983276367,2019-08-06 14:48:41:802,103.78360653649523,103.69508610337371,0,-23.090599060058594,14.69401741027832,-40.18363952636719
-0.09875229001045227,0.19512420892715454,9.630258560180664,0.0015583297264341264,0.012508459843560263,0.00047575672638364575,0.42999768257141113,2019-08-06 14:48:41:812,105.28913657884961,105.19709149949665,0,-23.090599060058594,14.69401741027832,-40.18363952636719
-0.15143679082393646,0.19033470749855042,9.663784980773926,0.0007591862786478714,0.011709315940643939,0.0071352852737164565,0.4399991035461426,2019-08-06 14:48:41:822,106.75882249430428,106.67015667074398,0,-23.090599060058594,14.69401741027832,-40.18363952636719
-0.13706828653812408,0.1975189596414566,9.62067985534668,0.0007591862786478714,0.011709315940643939,0.00020937558253977584,0.4500010013580322,2019-08-06 14:48:41:832,108.20074498370062,108.11280406942265,0,-23.090599060058594,14.69401741027832,-40.18363952636719
-0.12748928368091583,0.19512420892715454,9.608705520629883,-0.0019046251923001184,0.013840364961357736,0.0031395680998037635,0.459977388381958,2019-08-06 14:48:41:842,109.6137738557066,109.52834797026142,0,-23.090599060058594,14.69401741027832,-40.18363952636719
-0.15383154153823853,0.2310454547405243,9.639837265014648,0.003955759874737148,0.013840364961357736,0.0012749002066791914,0.4700016975402832,2019-08-06 14:48:41:852,110.99542328870209,110.90809466742937,0,-23.090599060058594,14.69401741027832,-40.18363952636719
-0.1418577879667282,0.26696670055389404,9.575179100036621,0.0026238542367910244,0.012508459843560263,-0.001655292456876604,0.48000049591064453,2019-08-06 14:48:41:862,112.35151650549585,112.25651852731636,0,-23.090599060058594,14.69401741027832,-40.18363952636719
-0.1298840343952179,0.2549929618835449,9.546442031860352,-0.003502911957835466,0.012774840451000838,0.004737855125413436,0.490001916885376,2019-08-06 14:48:41:872,113.68172231783417,113.58275428766031,0,-23.090599060058594,14.69401741027832,-40.18363952636719
-0.09396279603242874,0.2118874490261078,9.60391616821289,0.0020910919816125757,0.012242078195822388,0.003405949227392988,0.4999969005584717,2019-08-06 14:48:41:882,114.9900063580413,114.88464785863448,0,-23.090599060058594,14.69401741027832,-40.18363952636719
-0.11791028827428818,0.2549929618835449,9.642231941223145,-0.0008391006169246387,0.014639508864274061,0.0018076624618576407,0.5099990367889404,2019-08-06 14:48:41:892,116.2679722498977,116.15712898795013,0,-23.090599060058594,14.69401741027832,-40.18363952636719
-0.11312079429626465,0.22625595331192017,9.66139030456543,0.0063531902831144935,0.00824636128198402,0.004737855125413436,0.5200052261352539,2019-08-06 14:48:41:902,117.52456323062384,117.40358609134563,0,-23.090599060058594,14.69401741027832,-40.18363952636719
-0.11791028827428818,0.2047031968832016,9.694916725158691,-0.003502911957835466,0.012774840451000838,0.00020937558253977584,0.5300009250640869,2019-08-06 14:48:41:912,118.7529659733026,118.63328857822533,0,-23.090599060058594,14.69401741027832,-40.18363952636719
-0.16580528020858765,0.21428219974040985,9.642231941223145,0.0034229976195586987,0.014905889471714633,-5.7005565367755386e-05,0.5400021076202393,2019-08-06 14:48:41:922,119.94983310668175,119.83323873762004,0,-23.090599060058594,14.69401741027832,-40.18363952636719
-0.14425253868103027,0.24780869483947754,9.575179100036621,-3.9957173202045016e-05,0.00718083625147847,-0.003519960350001176,0.5500006675720215,2019-08-06 14:48:41:932,121.12954278783982,121.00694635247878,0,-23.090599060058594,14.69401741027832,-40.18363952636719
-0.13227878510951996,0.26696670055389404,9.670969009399414,-0.0011054818095324445,0.013840364961357736,0.001541281334268416,0.5600025653839111,2019-08-06 14:48:41:942,122.28350634140597,122.15580334861973,0,-23.090599060058594,14.69401741027832,-40.18363952636719
-0.12509453296661377,0.22625595331192017,9.611100196838379,0.0012919485988449018,0.0183688436102259,0.0010085190140713856,0.5699989795684814,2019-08-06 14:48:41:952,123.41261186006619,123.28499097264468,0,-23.090599060058594,14.69401741027832,-40.18363952636719
-0.13706828653812408,0.21907170116901398,9.627863883972168,0.0020910919816125757,0.010377409782549165,0.0007421378864821609,0.5800013542175293,2019-08-06 14:48:41:962,124.52221846934874,124.39204714914632,0,-23.090599060058594,14.69401741027832,-40.18363952636719
-0.12748928368091583,0.2430191934108734,9.658995628356934,0.0034229976195586987,0.012242078195822388,0.003938711482571438,0.5900042057037354,2019-08-06 14:48:41:972,125.60977414421458,125.47345862943364,0,-23.090599060058594,14.69401741027832,-40.18363952636719
-0.12748928368091583,0.23822970688343048,9.606310844421387,-0.0016382440647108938,0.013041222098738713,0.005270617380591885,0.6000158786773682,2019-08-06 14:48:41:982,126.6750404630536,126.53649833075195,0,-23.090599060058594,14.69401741027832,-40.18363952636719
-0.1945422738790512,0.2837299406528473,9.613494873046875,0.0004928051185493561,0.011975696548084513,-5.7005565367755386e-05,0.6099874973297119,2019-08-06 14:48:41:992,127.71164838967934,127.57168202946193,0,-22.490842819213867,14.394139289855957,-38.984127044677734
-0.14425253868103027,0.24780869483947754,9.594337463378906,-0.0019046251923001184,0.014905889471714633,0.0020740435894468653,0.6199953556060791,2019-08-06 14:48:42:002,128.73181146526213,128.5917278107383,0,-22.490842819213867,14.394139289855957,-38.984127044677734
-0.17777903378009796,0.24541394412517548,9.62067985534668,0.0010255674062370958,0.011975696548084513,-0.001122530201698155,0.6299929618835449,2019-08-06 14:48:42:012,129.72927972355777,129.5900927121427,0,-22.490842819213867,14.394139289855957,-38.984127044677734
-0.12509453296661377,0.1975189596414566,9.656600952148438,-0.0008391006169246387,0.014373127216536186,0.005270617380591885,0.640007734298706,2019-08-06 14:48:42:022,130.71176800837324,130.57532708077295,0,-22.490842819213867,14.394139289855957,-38.984127044677734
-0.16101577877998352,0.20949269831180573,9.59194278717041,0.001824710854023351,0.013840364961357736,-0.0005897678815011245,0.6500077247619629,2019-08-06 14:48:42:032,131.67052712858685,131.53777259159935,0,-22.490842819213867,14.394139289855957,-38.984127044677734
-0.13946303725242615,0.2549929618835449,9.654206275939941,-0.002970149702657017,0.011176553685465489,-0.0013889113292873795,0.6600096225738525,2019-08-06 14:48:42:042,132.61428722313283,132.4784255840718,0,-22.490842819213867,14.394139289855957,-38.984127044677734
-0.11791028827428818,0.19991371035575867,9.654206275939941,-0.002171006319889343,0.01064379143028704,-0.0003233867214026093,0.6699795722961426,2019-08-06 14:48:42:052,133.542048180933,133.40634686091744,0,-22.490842819213867,14.394139289855957,-38.984127044677734
-0.13467353582382202,0.2549929618835449,9.625469207763672,-0.0019046251923001184,0.01064379143028704,-0.0024544358396442778,0.6800093650817871,2019-08-06 14:48:42:062,134.44918105025468,134.30894264850804,0,-22.490842819213867,14.394139289855957,-38.984127044677734
-0.13227878510951996,0.22625595331192017,9.658995628356934,0.0020910919816125757,0.012508459843560263,0.003672330354982212,0.6899783611297607,2019-08-06 14:48:42:072,135.33750352622837,135.19475583982322,0,-22.490842819213867,14.394139289855957,-38.984127044677734
-0.12509453296661377,0.2310454547405243,9.611100196838379,-0.005101198723370813,0.009045504664751694,-0.003786341477590401,0.6999781131744385,2019-08-06 14:48:42:082,136.2107605708216,136.06618310508705,0,-22.490842819213867,14.394139289855957,-38.984127044677734
-0.1490420401096344,0.2502034604549408,9.611100196838379,-0.002703768575067792,0.014373127216536186,0.0026068058446253144,0.7100052833557129,2019-08-06 14:48:42:092,137.0606843284856,136.91655712141488,0,-22.490842819213867,14.394139289855957,-38.984127044677734
-0.1825685352087021,0.23583495616912842,9.608705520629883,-0.0024373874474785677,0.01064379143028704,0.0012749002066791914,0.720041036605835,2019-08-06 14:48:42:102,137.89170264965506,137.75147988778255,0,-22.490842819213867,14.394139289855957,-38.984127044677734
-0.14664728939533234,0.2118874490261078,9.630258560180664,0.0010255674062370958,0.014373127216536186,0.0023404247170360896,0.729994535446167,2019-08-06 14:48:42:112,138.7083872522354,138.5706684481066,0,-22.490842819213867,14.394139289855957,-38.984127044677734
-0.12030503898859024,0.23822970688343048,9.615889549255371,0.0010255674062370958,0.013307602706179285,0.0031395680998037635,0.7399835586547852,2019-08-06 14:48:42:122,139.51241962961615,139.3702960754966,0,-22.490842819213867,14.394139289855957,-38.984127044677734
-0.1226997897028923,0.2430191934108734,9.584757804870605,-0.0005727194893354142,0.009844647527370716,0.0020740435894468653,0.7500045299530029,2019-08-06 14:48:42:132,140.30196318995635,140.15416422326317,0,-22.490842819213867,14.394139289855957,-38.984127044677734
-0.1562262922525406,0.23583495616912842,9.630258560180664,-0.0008391006169246387,0.012242078195822388,-0.0013889113292873795,0.7600052356719971,2019-08-06 14:48:42:142,141.07046161429196,140.92349545976217,0,-22.490842819213867,14.394139289855957,-38.984127044677734
-0.1298840343952179,0.2693614363670349,9.642231941223145,-0.0003063383292368989,0.012508459843560263,0.0020740435894468653,0.7700095176696777,2019-08-06 14:48:42:152,141.82659096512876,141.6731941283054,0,-22.490842819213867,14.394139289855957,-38.984127044677734
-0.1490420401096344,0.24780869483947754,9.63265323638916,-0.0011054818095324445,0.014373127216536186,-0.0013889113292873795,0.7800037860870361,2019-08-06 14:48:42:162,142.5642644191241,142.4108774049812,0,-22.490842819213867,14.394139289855957,-38.984127044677734
-0.11072604358196259,0.27175620198249817,9.642231941223145,0.0034229976195586987,0.014905889471714633,0.0007421378864821609,0.7900078296661377,2019-08-06 14:48:42:172,143.29144762907808,143.12844918855436,0,-22.490842819213867,14.394139289855957,-38.984127044677734
-0.14425253868103027,0.2502034604549408,9.651811599731445,0.0012919485988449018,0.015438651726893083,-0.0003233867214026093,0.8000075817108154,2019-08-06 14:48:42:182,143.9998249382329,143.83545593051488,0,-22.490842819213867,14.394139289855957,-38.984127044677734
-0.1298840343952179,0.21667695045471191,9.639837265014648,-0.0013718629371216693,0.010111029175108591,0.006069760763359559,0.8099789619445801,2019-08-06 14:48:42:192,144.69872859868903,144.53376222140523,0,-22.490842819213867,14.394139289855957,-38.984127044677734
-0.12030503898859024,0.2310454547405243,9.666179656982422,-0.003236530830246241,0.014373127216536186,-0.0024544358396442778,0.8200066089630127,2019-08-06 14:48:42:202,145.3823999213666,145.21752432397673,0,-22.490842819213867,14.394139289855957,-38.984127044677734
-0.14664728939533234,0.23583495616912842,9.627863883972168,-0.0016382440647108938,0.013041222098738713,-0.0021880547120550534,0.8300046920776367,2019-08-06 14:48:42:212,146.0499779772152,145.88602989127764,0,-22.490842819213867,14.394139289855957,-38.984127044677734
-0.1562262922525406,0.23822970688343048,9.587152481079102,0.0004928051185493561,0.011176553685465489,-0.003519960350001176,0.840003490447998,2019-08-06 14:48:42:222,146.70403207471017,146.53956379206545,0,-22.490842819213867,14.394139289855957,-38.984127044677734
-0.17777903378009796,0.22865070402622223,9.584757804870605,-0.0008391006169246387,0.012242078195822388,-0.0032535792224119516,0.8500053882598877,2019-08-06 14:48:42:232,147.3418240998713,147.18191237300653,0,-22.490842819213867,14.394139289855957,-38.984127044677734
-0.12748928368091583,0.22865070402622223,9.62067985534668,0.0010255674062370958,0.015172271119452508,0.0020740435894468653,0.860004186630249,2019-08-06 14:48:42:242,147.97128511970806,147.81046896601163,0,-23.540414810180664,14.244200706481934,-39.13406753540039
-0.1418577879667282,0.20949269831180573,9.601521492004395,-0.002171006319889343,0.010910172037727614,0.00047575672638364575,0.8700096607208252,2019-08-06 14:48:42:252,148.58880090597347,148.43048085120088,0,-23.540414810180664,14.244200706481934,-39.13406753540039
-0.13706828653812408,0.20949269831180573,9.611100196838379,-0.0005727194893354142,0.01570503337463096,-0.004851865987947299,0.8800044059753418,2019-08-06 14:48:42:262,149.19186984938474,149.03721913278994,0,-23.540414810180664,14.244200706481934,-39.13406753540039
-0.15143679082393646,0.22146645188331604,9.647021293640137,0.0007591862786478714,0.008512742409573244,-0.003786341477590401,0.8900060653686523,2019-08-06 14:48:42:272,149.7852649156742,149.6297462587411,0,-23.540414810180664,14.244200706481934,-39.13406753540039
-0.09875229001045227,0.1975189596414566,9.62067985534668,-0.0008391006169246387,0.013041222098738713,-0.005917390498304197,0.900005578994751,2019-08-06 14:48:42:282,150.37047540968533,150.21409935956143,0,-23.540414810180664,14.244200706481934,-39.13406753540039
-0.09875229001045227,0.22865070402622223,9.627863883972168,0.0010255674062370958,0.015971413982071532,0.0012749002066791914,0.910010576248169,2019-08-06 14:48:42:292,150.94234033320126,150.7820321659885,0,-23.540414810180664,14.244200706481934,-39.13406753540039
-0.1562262922525406,0.2238612025976181,9.649415969848633,-0.002171006319889343,0.01064379143028704,0.00020937558253977584,0.91998291015625,2019-08-06 14:48:42:302,151.49898256714374,151.34102731661122,0,-23.540414810180664,14.244200706481934,-39.13406753540039
-0.10593654215335846,0.2645719349384308,9.714075088500977,-0.0005727194893354142,0.010910172037727614,0.0023404247170360896,0.9300041198730469,2019-08-06 14:48:42:312,152.05036762460955,151.88332666273334,0,-23.540414810180664,14.244200706481934,-39.13406753540039
-0.14664728939533234,0.20230846107006073,9.625469207763672,-0.004035674213013915,0.01410674660909561,0.0020740435894468653,0.9400067329406738,2019-08-06 14:48:42:322,152.58398022106647,152.4238453973538,0,-23.540414810180664,14.244200706481934,-39.13406753540039
-0.13706828653812408,0.20230846107006073,9.587152481079102,-0.0005727194893354142,0.013840364961357736,0.00047575672638364575,0.9500045776367188,2019-08-06 14:48:42:332,153.1081488147258,152.9515124346685,0,-23.540414810180664,14.244200706481934,-39.13406753540039
-0.10833129286766052,0.19991371035575867,9.572784423828125,0.0015583297264341264,0.010910172037727614,-0.0021880547120550534,0.9600081443786621,2019-08-06 14:48:42:342,153.62689030133944,153.46767956776029,0,-23.540414810180664,14.244200706481934,-39.13406753540039
-0.13467353582382202,0.1975189596414566,9.637442588806152,-3.9957173202045016e-05,0.012508459843560263,0.003405949227392988,0.9700024127960205,2019-08-06 14:48:42:352,154.13132106575276,153.97486619757817,0,-23.540414810180664,14.244200706481934,-39.13406753540039
-0.1226997897028923,0.22625595331192017,9.556020736694336,-0.0013718629371216693,0.011709315940643939,-0.001655292456876604,0.9799807071685791,2019-08-06 14:48:42:362,154.62742134477523,154.469010959386,0,-23.540414810180664,14.244200706481934,-39.13406753540039
-0.17059478163719177,0.22625595331192017,9.565600395202637,-3.9957173202045016e-05,0.010111029175108591,-0.0005897678815011245,0.9900016784667969,2019-08-06 14:48:42:372,155.10874936695464,154.9525538379927,0,-23.540414810180664,14.244200706481934,-39.13406753540039
-0.1298840343952179,0.22146645188331604,9.63265323638916,-0.0024373874474785677,0.011975696548084513,0.0007421378864821609,1.0000057220458984,2019-08-06 14:48:42:382,155.5843970503959,155.4285305473358,0,-23.540414810180664,14.244200706481934,-39.13406753540039
-0.12748928368091583,0.2238612025976181,9.60391616821289,0.0015583297264341264,0.011442934292906064,-0.0005897678815011245,1.0100059509277344,2019-08-06 14:48:42:392,156.0510729568331,155.89237918571823,0,-23.540414810180664,14.244200706481934,-39.13406753540039
-0.15862104296684265,0.22625595331192017,9.704495429992676,-0.0016382440647108938,0.011442934292906064,-0.0013889113292873795,1.0200257301330566,2019-08-06 14:48:42:402,156.5048851487729,156.34874162498778,0,-23.540414810180664,14.244200706481934,-39.13406753540039
-0.10833129286766052,0.21428219974040985,9.66139030456543,-0.004834817595781589,0.010910172037727614,0.00047575672638364575,1.0300087928771973,2019-08-06 14:48:42:412,156.95582338439957,156.7990655785017,0,-23.540414810180664,14.244200706481934,-39.13406753540039
-0.16101577877998352,0.21667695045471191,9.639837265014648,-3.9957173202045016e-05,0.011975696548084513,-0.000856149009090349,1.0400042533874512,2019-08-06 14:48:42:422,157.39084699607528,157.23735400755177,0,-23.540414810180664,14.244200706481934,-39.13406753540039
-0.16341052949428558,0.2238612025976181,9.589548110961914,-0.002970149702657017,0.016504176237249982,0.001541281334268416,1.0500099658966064,2019-08-06 14:48:42:432,157.81423262468036,157.66752988570852,0,-23.540414810180664,14.244200706481934,-39.13406753540039
-0.16341052949428558,0.19033470749855042,9.6901273727417,-0.0008391006169246387,0.013041222098738713,0.003672330354982212,1.060004711151123,2019-08-06 14:48:42:442,158.2313067494062,158.09214486929162,0,-23.540414810180664,14.244200706481934,-39.13406753540039
-0.1298840343952179,0.2310454547405243,9.656600952148438,-0.0011054818095324445,0.014639508864274061,0.003405949227392988,1.069978952407837,2019-08-06 14:48:42:452,158.64306976210253,158.5035089608287,0,-23.540414810180664,14.244200706481934,-39.13406753540039
-0.1226997897028923,0.21907170116901398,9.60391616821289,-0.0005727194893354142,0.011176553685465489,0.001541281334268416,1.0800018310546875,2019-08-06 14:48:42:462,159.04927894960406,158.90762653569678,0,-23.540414810180664,14.244200706481934,-39.13406753540039
-0.15383154153823853,0.19991371035575867,9.649415969848633,0.002890235364380249,0.010111029175108591,0.0010085190140713856,1.089980125427246,2019-08-06 14:48:42:472,159.44436165996245,159.3041173240695,0,-23.540414810180664,14.244200706481934,-39.13406753540039
-0.1226997897028923,0.2765457034111023,9.654206275939941,-0.0003063383292368989,0.012242078195822388,0.0012749002066791914,1.100003719329834,2019-08-06 14:48:42:482,159.83402110912834,159.68539149903714,0,-23.540414810180664,14.244200706481934,-39.13406753540039
-0.14664728939533234,0.23344020545482635,9.565600395202637,0.0023574731092018,0.012774840451000838,-0.0027208169672335025,1.1100053787231445,2019-08-06 14:48:42:492,160.21260013635975,160.0624002021087,0,-23.840293884277344,14.54407787322998,-38.53430938720703
-0.1562262922525406,0.2238612025976181,9.579968452453613,0.003689378747147923,0.011975696548084513,0.0010085190140713856,1.1200051307678223,2019-08-06 14:48:42:502,160.58293848639835,160.43230820374507,0,-23.840293884277344,14.54407787322998,-38.53430938720703
-0.13227878510951996,0.22146645188331604,9.615889549255371,0.0007591862786478714,0.011975696548084513,0.003938711482571438,1.1300039291381836,2019-08-06 14:48:42:512,160.94879365588685,160.79684854628812,0,-23.840293884277344,14.54407787322998,-38.53430938720703
-0.15383154153823853,0.2430191934108734,9.606310844421387,-0.0008391006169246387,0.012242078195822388,0.0028731869722145387,1.1400032043457031,2019-08-06 14:48:42:522,161.30459571442717,161.15239965439082,0,-23.840293884277344,14.54407787322998,-38.53430938720703
-0.18017378449440002,0.1975189596414566,9.635047912597656,-0.0008391006169246387,0.013840364961357736,-0.0005897678815011245,1.1500096321105957,2019-08-06 14:48:42:532,161.64930152612607,161.5063350815514,0,-23.840293884277344,14.54407787322998,-38.53430938720703
-0.12748928368091583,0.21428219974040985,9.546442031860352,-0.0008391006169246387,0.015438651726893083,0.004471473997824211,1.160022258758545,2019-08-06 14:48:42:542,161.99233338894066,161.85096289432758,0,-23.840293884277344,14.54407787322998,-38.53430938720703
-0.12030503898859024,0.24062444269657135,9.558416366577148,-0.002703768575067792,0.015172271119452508,0.0010085190140713856,1.1700036525726318,2019-08-06 14:48:42:552,162.32956129352914,162.18661768238368,0,-23.840293884277344,14.54407787322998,-38.53430938720703
-0.16101577877998352,0.2837299406528473,9.596732139587402,0.0004928051185493561,0.014905889471714633,0.003672330354982212,1.1800055503845215,2019-08-06 14:48:42:562,162.65537425888954,162.50873913349488,0,-23.840293884277344,14.54407787322998,-38.53430938720703
-0.14425253868103027,0.2047031968832016,9.647021293640137,-3.9957173202045016e-05,0.011176553685465489,-0.004851865987947299,1.1900050640106201,2019-08-06 14:48:42:572,162.97885778560666,162.83427488863464,0,-23.840293884277344,14.54407787322998,-38.53430938720703
-0.11791028827428818,0.2238612025976181,9.608705520629883,-0.002970149702657017,0.009844647527370716,0.001541281334268416,1.200009822845459,2019-08-06 14:48:42:582,163.29968919652347,163.1525654952618,0,-23.840293884277344,14.54407787322998,-38.53430938720703
-0.16580528020858765,0.21907170116901398,9.635047912597656,0.0015583297264341264,0.009578266919930143,-0.0005897678815011245,1.2099826335906982,2019-08-06 14:48:42:592,163.60861424300975,163.4625914156211,0,-23.840293884277344,14.54407787322998,-38.53430938720703
-0.13227878510951996,0.1975189596414566,9.611100196838379,-0.002970149702657017,0.013307602706179285,0.0012749002066791914,1.2200231552124023,2019-08-06 14:48:42:602,163.91316909357542,163.77146753575835,0,-23.840293884277344,14.54407787322998,-38.53430938720703
-0.13467353582382202,0.23344020545482635,9.611100196838379,-0.0024373874474785677,0.012242078195822388,-0.0027208169672335025,1.2299814224243164,2019-08-06 14:48:42:612,164.21200463589554,164.06957384466375,0,-23.840293884277344,14.54407787322998,-38.53430938720703
-0.11791028827428818,0.2238612025976181,9.575179100036621,-0.004568436468192365,0.00824636128198402,-0.0027208169672335025,1.2400033473968506,2019-08-06 14:48:42:622,164.50901379574393,164.3639673119344,0,-23.840293884277344,14.54407787322998,-38.53430938720703
-0.1490420401096344,0.22625595331192017,9.637442588806152,0.002890235364380249,0.012508459843560263,-0.003519960350001176,1.250004768371582,2019-08-06 14:48:42:632,164.7940889866307,164.64816742426487,0,-23.840293884277344,14.54407787322998,-38.53430938720703
-0.19214753806591034,0.22865070402622223,9.627863883972168,-0.002970149702657017,0.011176553685465489,-0.0021880547120550534,1.260005235671997,2019-08-06 14:48:42:642,165.06906478524772,164.9296628248198,0,-23.840293884277344,14.54407787322998,-38.53430938720703
-0.12748928368091583,0.25978243350982666,9.649415969848633,-0.0019046251923001184,0.014905889471714633,-0.004052722605179625,1.270005702972412,2019-08-06 14:48:42:652,165.3441743633572,165.20129607170094,0,-23.840293884277344,14.54407787322998,-38.53430938720703
-0.1418577879667282,0.2310454547405243,9.63265323638916,-0.0011054818095324445,0.011709315940643939,0.0020740435894468653,1.2800042629241943,2019-08-06 14:48:42:662,165.61384265201065,165.47041052555713,0,-23.840293884277344,14.54407787322998,-38.53430938720703
-0.13706828653812408,0.19033470749855042,9.630258560180664,-3.9957173202045016e-05,0.01570503337463096,0.0007421378864821609,1.2900054454803467,2019-08-06 14:48:42:672,165.876437588759,165.73837955517803,0,-23.840293884277344,14.54407787322998,-38.53430938720703
-0.14425253868103027,0.22865070402622223,9.556020736694336,-0.0024373874474785677,0.012508459843560263,0.0020740435894468653,1.3000032901763916,2019-08-06 14:48:42:682,166.13459005717985,165.99756671213186,0,-23.840293884277344,14.54407787322998,-38.53430938720703
-0.15143679082393646,0.2549929618835449,9.64462661743164,0.0020910919816125757,0.01357398435391716,0.003405949227392988,1.310002326965332,2019-08-06 14:48:42:692,166.3862859009154,166.2461516966837,0,-23.840293884277344,14.54407787322998,-38.53430938720703
-0.16580528020858765,0.23583495616912842,9.637442588806152,0.0010255674062370958,0.01357398435391716,0.00047575672638364575,1.3200044631958008,2019-08-06 14:48:42:702,166.6312240707364,166.49261692479362,0,-23.840293884277344,14.54407787322998,-38.53430938720703
-0.1418577879667282,0.1975189596414566,9.647021293640137,-0.0037692930854246903,0.014639508864274061,0.001541281334268416,1.3300018310546875,2019-08-06 14:48:42:712,166.87353241147895,166.7414215896828,0,-23.840293884277344,14.54407787322998,-38.53430938720703
-0.18017378449440002,0.22865070402622223,9.694916725158691,0.0007591862786478714,0.01064379143028704,-5.7005565367755386e-05,1.3400099277496338,2019-08-06 14:48:42:722,167.10878679774913,166.97914558251335,0,-23.840293884277344,14.54407787322998,-38.53430938720703
-0.1682000309228897,0.1975189596414566,9.560811042785645,-0.0008391006169246387,0.009844647527370716,-0.0013889113292873795,1.349984884262085,2019-08-06 14:48:42:732,167.3409395331367,167.2163622823497,0,-23.840293884277344,14.54407787322998,-38.53430938720703
-0.1562262922525406,0.20230846107006073,9.635047912597656,0.0007591862786478714,0.013041222098738713,0.00047575672638364575,1.360001564025879,2019-08-06 14:48:42:742,167.56820722151855,167.44755062727162,0,-23.990232467651367,14.69401741027832,-38.38437271118164
-0.1562262922525406,0.2238612025976181,9.579968452453613,0.0004928051185493561,0.011442934292906064,0.0031395680998037635,1.3700056076049805,2019-08-06 14:48:42:752,167.79172981032454,167.67155032889178,0,-23.990232467651367,14.69401741027832,-38.38437271118164
-0.17059478163719177,0.20709794759750366,9.608705520629883,-0.0024373874474785677,0.013307602706179285,0.003405949227392988,1.3800075054168701,2019-08-06 14:48:42:762,168.00807892956152,167.8947938954306,0,-23.990232467651367,14.69401741027832,-38.38437271118164
-0.11551553755998611,0.24780869483947754,9.611100196838379,0.0004928051185493561,0.013307602706179285,0.005004236253002661,1.3900015354156494,2019-08-06 14:48:42:772,168.22667754758214,168.1070821969131,0,-23.990232467651367,14.69401741027832,-38.38437271118164
-0.17059478163719177,0.21907170116901398,9.606310844421387,0.003955759874737148,0.01357398435391716,-0.000856149009090349,1.3999829292297363,2019-08-06 14:48:42:782,168.43418866845255,168.31659548165123,0,-23.990232467651367,14.69401741027832,-38.38437271118164
-0.15143679082393646,0.2645719349384308,9.625469207763672,-0.002171006319889343,0.01410674660909561,0.0007421378864821609,1.4100053310394287,2019-08-06 14:48:42:792,168.63953911434032,168.51999586406055,0,-23.990232467651367,14.69401741027832,-38.38437271118164
-0.11791028827428818,0.24541394412517548,9.608705520629883,-0.0016382440647108938,0.011975696548084513,0.003405949227392988,1.4200055599212646,2019-08-06 14:48:42:802,168.8459627942172,168.7212546100711,0,-23.990232467651367,14.69401741027832,-38.38437271118164
-0.17298953235149384,0.2502034604549408,9.66139030456543,0.0010255674062370958,0.009844647527370716,-0.001655292456876604,1.4300076961517334,2019-08-06 14:48:42:812,169.04299889746716,168.9165841068032,0,-23.990232467651367,14.69401741027832,-38.38437271118164
-0.11551553755998611,0.20230846107006073,9.630258560180664,-0.0024373874474785677,0.015172271119452508,0.00020937558253977584,1.4400081634521484,2019-08-06 14:48:42:822,169.2398746437535,169.11555170121918,0,-23.990232467651367,14.69401741027832,-38.38437271118164
-0.11551553755998611,0.23583495616912842,9.596732139587402,0.0015583297264341264,0.011442934292906064,-0.0003233867214026093,1.450005292892456,2019-08-06 14:48:42:832,169.43486112245247,169.3042112749244,0,-23.990232467651367,14.69401741027832,-38.38437271118164
-0.15143679082393646,0.21907170116901398,9.66139030456543,0.004488522389989922,0.010377409782549165,0.00020937558253977584,1.4600067138671875,2019-08-06 14:48:42:842,169.6223760670329,169.48962724631966,0,-23.990232467651367,14.69401741027832,-38.38437271118164
-0.11791028827428818,0.27415093779563904,9.663784980773926,0.0004928051185493561,0.00824636128198402,0.004471473997824211,1.4700069427490234,2019-08-06 14:48:42:852,169.81131720646502,169.66705833892541,0,-23.990232467651367,14.69401741027832,-38.38437271118164
-0.13946303725242615,0.19272945821285248,9.639837265014648,-0.0016382440647108938,0.011442934292906064,0.003672330354982212,1.4800052642822266,2019-08-06 14:48:42:862,169.99208952697592,169.85172962821446,0,-23.990232467651367,14.69401741027832,-38.38437271118164
-0.17059478163719177,0.20949269831180573,9.587152481079102,-0.0008391006169246387,0.010377409782549165,-0.001655292456876604,1.4900052547454834,2019-08-06 14:48:42:872,170.16603245180886,170.03013031400656,0,-23.990232467651367,14.69401741027832,-38.38437271118164
-0.1298840343952179,0.21667695045471191,9.56320571899414,-0.0008391006169246387,0.011709315940643939,-0.0024544358396442778,1.5000085830688477,2019-08-06 14:48:42:882,170.3405723912899,170.20404004309844,0,-23.990232467651367,14.69401741027832,-38.38437271118164
-0.11072604358196259,0.2621771991252899,9.587152481079102,0.0015583297264341264,0.015172271119452508,0.0010085190140713856,1.510007381439209,2019-08-06 14:48:42:892,170.5120086863793,170.36775511985076,0,-23.990232467651367,14.69401741027832,-38.38437271118164
-0.1682000309228897,0.22865070402622223,9.587152481079102,0.0002264239747054862,0.012508459843560263,0.0031395680998037635,1.5200059413909912,2019-08-06 14:48:42:902,170.67464379821095,170.53294833675815,0,-23.990232467651367,14.69401741027832,-38.38437271118164
-0.12509453296661377,0.2645719349384308,9.647021293640137,-0.002171006319889343,0.01570503337463096,-0.0032535792224119516,1.5300066471099854,2019-08-06 14:48:42:912,170.83747349936885,170.69208933151745,0,-23.990232467651367,14.69401741027832,-38.38437271118164
-0.17059478163719177,0.21667695045471191,9.649415969848633,0.0020910919816125757,0.014905889471714633,-0.000856149009090349,1.5400056838989258,2019-08-06 14:48:42:922,170.99209834010605,170.85134638296137,0,-23.990232467651367,14.69401741027832,-38.38437271118164
-0.16580528020858765,0.27175620198249817,9.639837265014648,0.0015583297264341264,0.011442934292906064,0.0023404247170360896,1.5500056743621826,2019-08-06 14:48:42:932,171.14612337312582,171.00114855693838,0,-23.990232467651367,14.69401741027832,-38.38437271118164
-0.17059478163719177,0.19033470749855042,9.651811599731445,0.0026238542367910244,0.014373127216536186,0.0031395680998037635,1.5600025653839111,2019-08-06 14:48:42:942,171.29488109140556,171.1570581097242,0,-23.990232467651367,14.69401741027832,-38.38437271118164
-0.1226997897028923,0.22146645188331604,9.623074531555176,0.0004928051185493561,0.011709315940643939,0.001541281334268416,1.5700056552886963,2019-08-06 14:48:42:952,171.44779637543945,171.30727258493957,0,-23.990232467651367,14.69401741027832,-38.38437271118164
-0.15383154153823853,0.21667695045471191,9.618284225463867,0.0015583297264341264,0.01064379143028704,-0.0003233867214026093,1.580003261566162,2019-08-06 14:48:42:962,171.5945395853613,171.45444196941457,0,-23.990232467651367,14.69401741027832,-38.38437271118164
-0.13467353582382202,0.19272945821285248,9.637442588806152,0.002890235364380249,0.013307602706179285,0.004737855125413436,1.5900039672851562,2019-08-06 14:48:42:972,171.73916409356946,171.60081720053049,0,-23.990232467651367,14.69401741027832,-38.38437271118164
-0.15862104296684265,0.24541394412517548,9.599126815795898,-0.0019046251923001184,0.013041222098738713,-0.0005897678815011245,1.6000103950500488,2019-08-06 14:48:42:982,171.8781194850392,171.74058057254516,0,-23.990232467651367,14.69401741027832,-38.38437271118164
-0.11072604358196259,0.24780869483947754,9.623074531555176,0.0026238542367910244,0.012508459843560263,-0.0024544358396442778,1.609980583190918,2019-08-06 14:48:42:992,172.02036987647605,171.87479752678695,0,-24.14017105102539,16.043468475341797,-39.13406753540039
-0.1490420401096344,0.21667695045471191,9.60391616821289,-0.0024373874474785677,0.01064379143028704,0.0010085190140713856,1.6200010776519775,2019-08-06 14:48:43:002,172.1561918548626,172.01282399674153,0,-24.14017105102539,16.043468475341797,-39.13406753540039
-0.13467353582382202,0.26696670055389404,9.627863883972168,-0.0011054818095324445,0.015172271119452508,-0.0021880547120550534,1.6300020217895508,2019-08-06 14:48:43:012,172.28852010376127,172.141421864522,0,-24.14017105102539,16.043468475341797,-39.13406753540039
-0.13467353582382202,0.27894043922424316,9.666179656982422,0.0015583297264341264,0.01570503337463096,-0.001655292456876604,1.6400082111358643,2019-08-06 14:48:43:022,172.4179615135082,172.26465895991961,0,-24.14017105102539,16.043468475341797,-39.13406753540039
-0.12030503898859024,0.2310454547405243,9.647021293640137,0.0002264239747054862,0.012242078195822388,0.0010085190140713856,1.650007724761963,2019-08-06 14:48:43:032,172.54843908675244,172.39179930112826,0,-24.14017105102539,16.043468475341797,-39.13406753540039
-0.1298840343952179,0.19033470749855042,9.675758361816406,-3.9957173202045016e-05,0.012508459843560263,0.00020937558253977584,1.6600043773651123,2019-08-06 14:48:43:042,172.67506772208594,172.52144700553526,0,-24.14017105102539,16.043468475341797,-39.13406753540039
-0.15862104296684265,0.20949269831180573,9.613494873046875,-0.0008391006169246387,0.012242078195822388,0.0020740435894468653,1.6700026988983154,2019-08-06 14:48:43:052,172.79578791284462,172.64652184539503,0,-24.14017105102539,16.043468475341797,-39.13406753540039
-0.1298840343952179,0.24780869483947754,9.639837265014648,-0.0013718629371216693,0.013307602706179285,0.007668047528894907,1.6799824237823486,2019-08-06 14:48:43:062,172.91697634371118,172.76490888940606,0,-24.14017105102539,16.043468475341797,-39.13406753540039
-0.18496328592300415,0.2430191934108734,9.59194278717041,0.0020910919816125757,0.011176553685465489,-0.0027208169672335025,1.690002679824829,2019-08-06 14:48:43:072,173.03025431175115,172.87940775127794,0,-24.14017105102539,16.043468475341797,-39.13406753540039
-0.11312079429626465,0.20230846107006073,9.651811599731445,0.001824710854023351,0.011709315940643939,0.0018076624618576407,1.7000060081481934,2019-08-06 14:48:43:082,173.14964257093507,172.9967790379646,0,-24.14017105102539,16.043468475341797,-39.13406753540039
-0.13227878510951996,0.2310454547405243,9.635047912597656,-0.003236530830246241,0.013307602706179285,-0.0005897678815011245,1.7100086212158203,2019-08-06 14:48:43:092,173.26344437301634,173.11118780515713,0,-24.14017105102539,16.043468475341797,-39.13406753540039
-0.12748928368091583,0.24541394412517548,9.599126815795898,-0.0013718629371216693,0.01410674660909561,-0.0005897678815011245,1.7200047969818115,2019-08-06 14:48:43:102,173.37503919388197,173.22044363780375,0,-24.14017105102539,16.043468475341797,-39.13406753540039
-0.1418577879667282,0.2813352048397064,9.66139030456543,0.007152333665882167,0.011442934292906064,0.0023404247170360896,1.7300047874450684,2019-08-06 14:48:43:112,173.4842890025967,173.31865963952004,0,-24.14017105102539,16.043468475341797,-39.13406753540039
-0.12030503898859024,0.2549929618835449,9.60391616821289,0.001824710854023351,0.011442934292906064,0.0007421378864821609,1.7400076389312744,2019-08-06 14:48:43:122,173.5938224485946,173.42084359700937,0,-24.14017105102539,16.043468475341797,-39.13406753540039
-0.16101577877998352,0.24062444269657135,9.658995628356934,0.0015583297264341264,0.014905889471714633,0.0007421378864821609,1.7500033378601074,2019-08-06 14:48:43:132,173.6944792809234,173.52301100962808,0,-24.14017105102539,16.043468475341797,-39.13406753540039
-0.15143679082393646,0.27415093779563904,9.675758361816406,0.0002264239747054862,0.013041222098738713,-0.001122530201698155,1.760035753250122,2019-08-06 14:48:43:142,173.79530989231796,173.61996378937974,0,-24.14017105102539,16.043468475341797,-39.13406753540039
-0.13227878510951996,0.2430191934108734,9.575179100036621,-3.9957173202045016e-05,0.013840364961357736,-0.0005897678815011245,1.7700023651123047,2019-08-06 14:48:43:152,173.89582875548396,173.7185096418296,0,-24.14017105102539,16.043468475341797,-39.13406753540039
-0.11312079429626465,0.22146645188331604,9.658995628356934,0.001824710854023351,0.008779123017013819,-0.0024544358396442778,1.7800061702728271,2019-08-06 14:48:43:162,173.99956112532232,173.81684494341474,0,-24.14017105102539,16.043468475341797,-39.13406753540039
-0.1035417914390564,0.2238612025976181,9.611100196838379,-0.002970149702657017,0.012242078195822388,0.0026068058446253144,1.790004014968872,2019-08-06 14:48:43:172,174.10035283501634,173.91548964406016,0,-24.14017105102539,16.043468475341797,-39.13406753540039
-0.1035417914390564,0.2430191934108734,9.656600952148438,-0.0011054818095324445,0.017303320140166306,-0.0013889113292873795,1.8000085353851318,2019-08-06 14:48:43:182,174.1963391185765,174.00896869302983,0,-24.14017105102539,16.043468475341797,-39.13406753540039
-0.17059478163719177,0.20230846107006073,9.647021293640137,0.0015583297264341264,0.009578266919930143,-0.004585484860358075,1.8100063800811768,2019-08-06 14:48:43:192,174.2867734254281,174.1038869414546,0,-24.14017105102539,16.043468475341797,-39.13406753540039
-0.16580528020858765,0.19272945821285248,9.625469207763672,-0.003502911957835466,0.013041222098738713,0.0018076624618576407,1.8199939727783203,2019-08-06 14:48:43:202,174.37398718730753,174.2008321963833,0,-24.14017105102539,16.043468475341797,-39.13406753540039
-0.1490420401096344,0.24541394412517548,9.606310844421387,0.005021284645168371,0.009844647527370716,-0.0005897678815011245,1.830002784729004,2019-08-06 14:48:43:212,174.46319734711108,174.28472510279056,0,-24.14017105102539,16.043468475341797,-39.13406753540039
-0.13706828653812408,0.20949269831180573,9.635047912597656,0.0026238542367910244,0.011442934292906064,0.003405949227392988,1.8400070667266846,2019-08-06 14:48:43:222,174.55120474997403,174.37264521725197,0,-24.14017105102539,16.043468475341797,-39.13406753540039
-0.16580528020858765,0.2430191934108734,9.675758361816406,0.0012919485988449018,0.01570503337463096,-0.000856149009090349,1.850010633468628,2019-08-06 14:48:43:232,174.63172449115095,174.45569152341565,0,-24.14017105102539,16.043468475341797,-39.13406753540039
-0.13946303725242615,0.27894043922424316,9.62067985534668,0.0012919485988449018,0.012774840451000838,-0.001122530201698155,1.8600029945373535,2019-08-06 14:48:43:242,174.71531219830172,174.5326376332922,0,-24.290109634399414,14.993894577026367,-40.18363952636719
-0.17059478163719177,0.2238612025976181,9.587152481079102,0.003955759874737148,0.010910172037727614,0.0010085190140713856,1.8699791431427002,2019-08-06 14:48:43:252,174.79450613034572,174.6130166144241,0,-24.290109634399414,14.993894577026367,-40.18363952636719
-0.13706828653812408,0.22865070402622223,9.635047912597656,0.003955759874737148,0.013041222098738713,0.006336141890948784,1.8800058364868164,2019-08-06 14:48:43:262,174.8749731258375,174.69134041528582,0,-24.290109634399414,14.993894577026367,-40.18363952636719
-0.1682000309228897,0.2238612025976181,9.706890106201172,0.0010255674062370958,0.010910172037727614,-0.000856149009090349,1.8900046348571777,2019-08-06 14:48:43:272,174.95149402774092,174.7705152932328,0,-24.290109634399414,14.993894577026367,-40.18363952636719
-0.13227878510951996,0.22146645188331604,9.587152481079102,0.0010255674062370958,0.017036938492428433,0.0023404247170360896,1.9000062942504883,2019-08-06 14:48:43:282,175.02708656900109,174.84806270798848,0,-24.290109634399414,14.993894577026367,-40.18363952636719
-0.1298840343952179,0.20949269831180573,9.601521492004395,-0.002703768575067792,0.011176553685465489,0.0010085190140713856,1.910005807876587,2019-08-06 14:48:43:292,175.10476916080418,174.92762112247905,0,-24.290109634399414,14.993894577026367,-40.18363952636719
-0.1226997897028923,0.21667695045471191,9.651811599731445,0.0015583297264341264,0.01064379143028704,0.0012749002066791914,1.9200069904327393,2019-08-06 14:48:43:302,175.18212979445119,175.00247285027916,0,-24.290109634399414,14.993894577026367,-40.18363952636719
-0.11551553755998611,0.21428219974040985,9.606310844421387,-0.0005727194893354142,0.016237795629809405,0.004205092610160662,1.930008888244629,2019-08-06 14:48:43:312,175.25558903901845,175.07718802376831,0,-24.290109634399414,14.993894577026367,-40.18363952636719
-0.12509453296661377,0.2430191934108734,9.656600952148438,0.0012919485988449018,0.015438651726893083,0.0023404247170360896,1.9400067329406738,2019-08-06 14:48:43:322,175.32696663741302,175.1460868269893,0,-24.290109634399414,14.993894577026367,-40.18363952636719
-0.15862104296684265,0.2430191934108734,9.611100196838379,-0.0037692930854246903,0.008779123017013819,0.00020937558253977584,1.950009822845459,2019-08-06 14:48:43:332,175.39658590792627,175.21631359319534,0,-24.290109634399414,14.993894577026367,-40.18363952636719
-0.16341052949428558,0.2430191934108734,9.613494873046875,-0.0024373874474785677,0.01410674660909561,-0.0027208169672335025,1.9599840641021729,2019-08-06 14:48:43:342,175.461277235522,175.28439099446481,0,-24.290109634399414,14.993894577026367,-40.18363952636719
-0.11072604358196259,0.2310454547405243,9.599126815795898,0.0004928051185493561,0.015438651726893083,0.0012749002066791914,1.9700050354003906,2019-08-06 14:48:43:352,175.53014716536813,175.35084968098565,0,-24.290109634399414,14.993894577026367,-40.18363952636719
-0.13227878510951996,0.2310454547405243,9.627863883972168,0.0007591862786478714,0.011975696548084513,-0.000856149009090349,1.9800043106079102,2019-08-06 14:48:43:362,175.59707744229073,175.41591250961554,0,-24.290109634399414,14.993894577026367,-40.18363952636719
-0.15383154153823853,0.2310454547405243,9.625469207763672,-0.0019046251923001184,0.015172271119452508,0.0028731869722145387,1.9900083541870117,2019-08-06 14:48:43:372,175.65830109735492,175.48116337226884,0,-24.290109634399414,14.993894577026367,-40.18363952636719
-0.1490420401096344,0.2310454547405243,9.577573776245117,0.001824710854023351,0.013307602706179285,0.003672330354982212,2.0000054836273193,2019-08-06 14:48:43:382,175.71983421842884,175.54287758988548,0,-24.290109634399414,14.993894577026367,-40.18363952636719
-0.11072604358196259,0.20949269831180573,9.642231941223145,-0.002970149702657017,0.01756970178790418,0.005270617380591885,2.009979248046875,2019-08-06 14:48:43:392,175.78243957208898,175.6087904903283,0,-24.290109634399414,14.993894577026367,-40.18363952636719
-0.17777903378009796,0.2238612025976181,9.60391616821289,0.0023574731092018,0.011975696548084513,-0.001122530201698155,2.0200016498565674,2019-08-06 14:48:43:402,175.83884164611933,175.66858226658832,0,-24.290109634399414,14.993894577026367,-40.18363952636719
-0.12748928368091583,0.25259819626808167,9.67336368560791,-0.0024373874474785677,0.014905889471714633,0.0010085190140713856,2.0300042629241943,2019-08-06 14:48:43:412,175.89859136561637,175.72666335162867,0,-24.290109634399414,14.993894577026367,-40.18363952636719
-0.1298840343952179,0.22625595331192017,9.596732139587402,-0.0013718629371216693,0.016504176237249982,0.0012749002066791914,2.0400092601776123,2019-08-06 14:48:43:422,175.95583973777497,175.78588926118906,0,-24.290109634399414,14.993894577026367,-40.18363952636719
-0.15383154153823853,0.20709794759750366,9.623074531555176,-0.002171006319889343,0.012508459843560263,-0.000856149009090349,2.0500073432922363,2019-08-06 14:48:43:432,176.0113841083159,175.8467328447206,0,-24.290109634399414,14.993894577026367,-40.18363952636719
-0.13467353582382202,0.20709794759750366,9.658995628356934,-0.0016382440647108938,0.014905889471714633,-0.001655292456876604,2.059985876083374,2019-08-06 14:48:43:442,176.0668285092297,175.9061503412369,0,-24.290109634399414,14.993894577026367,-40.18363952636719
-0.13946303725242615,0.2238612025976181,9.627863883972168,0.0010255674062370958,0.011442934292906064,0.005270617380591885,2.0700066089630127,2019-08-06 14:48:43:452,176.12245559112148,175.96081095729278,0,-24.290109634399414,14.993894577026367,-40.18363952636719
-0.11551553755998611,0.1975189596414566,9.692522048950195,-0.002703768575067792,0.013840364961357736,-0.0021880547120550534,2.0800058841705322,2019-08-06 14:48:43:462,176.1785793139503,176.01976399332457,0,-24.290109634399414,14.993894577026367,-40.18363952636719
-0.0963575467467308,0.2118874490261078,9.64462661743164,-0.0037692930854246903,0.011975696548084513,0.0020740435894468653,2.0900044441223145,2019-08-06 14:48:43:472,176.2368361247862,176.07631373906332,0,-24.290109634399414,14.993894577026367,-40.18363952636719
-0.1035417914390564,0.20949269831180573,9.570389747619629,-0.003502911957835466,0.010910172037727614,0.0020740435894468653,2.100043773651123,2019-08-06 14:48:43:482,176.29355211555563,176.13168236832058,0,-24.290109634399414,14.993894577026367,-40.18363952636719
-0.12748928368091583,0.22625595331192017,9.572784423828125,-0.002703768575067792,0.01357398435391716,0.0026068058446253144,2.1102371215820312,2019-08-06 14:48:43:493,176.34465165922884,176.18351718106607,0,-22.190963745117188,13.494505882263184,-38.984127044677734
-0.16341052949428558,0.23822970688343048,9.63265323638916,-0.0008391006169246387,0.009311885272192268,0.0026068058446253144,2.1201677322387695,2019-08-06 14:48:43:503,176.39312858681953,176.23198031703356,0,-22.190963745117188,13.494505882263184,-38.984127044677734
-0.1418577879667282,0.23583495616912842,9.608705520629883,-0.0024373874474785677,0.014373127216536186,-0.001122530201698155,2.1302475929260254,2019-08-06 14:48:43:513,176.4402146164281,176.28060065598743,0,-22.190963745117188,13.494505882263184,-38.984127044677734
-0.11791028827428818,0.2238612025976181,9.601521492004395,-0.0019046251923001184,0.011442934292906064,-0.001122530201698155,2.1402323246002197,2019-08-06 14:48:43:523,176.49092337597776,176.32934406568117,0,-22.190963745117188,13.494505882263184,-38.984127044677734
-0.11551553755998611,0.2813352048397064,9.608705520629883,-0.0008391006169246387,0.014905889471714633,-0.0003233867214026093,2.1502187252044678,2019-08-06 14:48:43:533,176.5389711585861,176.36968578907818,0,-22.190963745117188,13.494505882263184,-38.984127044677734
-0.15143679082393646,0.23822970688343048,9.60391616821289,-3.9957173202045016e-05,0.013840364961357736,0.003672330354982212,2.160238265991211,2019-08-06 14:48:43:543,176.5823376364441,176.4138953998989,0,-22.190963745117188,13.494505882263184,-38.984127044677734
-0.14425253868103027,0.21907170116901398,9.577573776245117,-0.002703768575067792,0.011975696548084513,-0.000856149009090349,2.17016863822937,2019-08-06 14:48:43:553,176.62675547430794,176.46091866467665,0,-22.190963745117188,13.494505882263184,-38.984127044677734
-0.12030503898859024,0.22146645188331604,9.58236312866211,-0.0011054818095324445,0.012242078195822388,-0.0003233867214026093,2.1802468299865723,2019-08-06 14:48:43:563,176.67290667483266,176.50584631895978,0,-22.190963745117188,13.494505882263184,-38.984127044677734
-0.12509453296661377,0.25259819626808167,9.611100196838379,-0.005101198723370813,0.015971413982071532,0.003405949227392988,2.190228223800659,2019-08-06 14:48:43:573,176.71558332775135,176.5484784453316,0,-22.190963745117188,13.494505882263184,-38.984127044677734
-0.13706828653812408,0.22865070402622223,9.656600952148438,0.0023574731092018,0.009578266919930143,-0.009113964549523543,2.199988842010498,2019-08-06 14:48:43:582,176.7597578918402,176.589088723098,0,-22.190963745117188,13.494505882263184,-38.984127044677734
-0.12030503898859024,0.24541394412517548,9.611100196838379,0.0020910919816125757,0.013840364961357736,0.0023404247170360896,2.2100002765655518,2019-08-06 14:48:43:592,176.802439479847,176.6268775186581,0,-22.190963745117188,13.494505882263184,-38.984127044677734
-0.1298840343952179,0.21907170116901398,9.685338020324707,0.002890235364380249,0.01410674660909561,-0.0005897678815011245,2.219999074935913,2019-08-06 14:48:43:602,176.84310448403198,176.66680236774076,0,-22.190963745117188,13.494505882263184,-38.984127044677734
-0.14664728939533234,0.23583495616912842,9.651811599731445,0.0007591862786478714,0.015438651726893083,-0.001122530201698155,2.2300000190734863,2019-08-06 14:48:43:612,176.88016336940754,176.70504595910177,0,-22.190963745117188,13.494505882263184,-38.984127044677734
-0.12748928368091583,0.2118874490261078,9.596732139587402,0.0023574731092018,0.010111029175108591,0.0026068058446253144,2.2399981021881104,2019-08-06 14:48:43:622,176.92166166237448,176.7443248721759,0,-22.190963745117188,13.494505882263184,-38.984127044677734
-0.12509453296661377,0.23583495616912842,9.601521492004395,0.0007591862786478714,0.011176553685465489,-0.002987198094822727,2.2500033378601074,2019-08-06 14:48:43:632,176.96202067462474,176.7808712642812,0,-22.190963745117188,13.494505882263184,-38.984127044677734
-0.17777903378009796,0.22865070402622223,9.601521492004395,-0.0003063383292368989,0.01357398435391716,-0.003786341477590401,2.2599995136260986,2019-08-06 14:48:43:642,176.99394638002903,176.81814209621407,0,-22.190963745117188,13.494505882263184,-38.984127044677734
-0.13227878510951996,0.24780869483947754,9.682943344116211,0.0026238542367910244,0.011442934292906064,0.004205092610160662,2.2700014114379883,2019-08-06 14:48:43:652,177.0319876504774,176.8509854800376,0,-22.190963745117188,13.494505882263184,-38.984127044677734
-0.15383154153823853,0.21428219974040985,9.64462661743164,0.0004928051185493561,0.01357398435391716,0.003405949227392988,2.2800028324127197,2019-08-06 14:48:43:662,177.06544926677645,176.8882335083367,0,-22.190963745117188,13.494505882263184,-38.984127044677734
-0.1825685352087021,0.23822970688343048,9.613494873046875,0.0012919485988449018,0.013307602706179285,-0.003519960350001176,2.2900190353393555,2019-08-06 14:48:43:672,177.09489666653556,176.92135138696324,0,-22.190963745117188,13.494505882263184,-38.984127044677734
-0.1226997897028923,0.2047031968832016,9.642231941223145,0.0015583297264341264,0.016237795629809405,0.00553699850818111,2.2999963760375977,2019-08-06 14:48:43:682,177.12932061998333,176.95772737266074,0,-22.190963745117188,13.494505882263184,-38.984127044677734
-0.1418577879667282,0.22865070402622223,9.639837265014648,-0.0019046251923001184,0.014905889471714633,0.0031395680998037635,2.3099968433380127,2019-08-06 14:48:43:692,177.16150234763498,176.99246703869153,0,-22.190963745117188,13.494505882263184,-38.984127044677734
-0.14664728939533234,0.24062444269657135,9.570389747619629,0.0004928051185493561,0.01410674660909561,0.0018076624618576407,2.3199996948242188,2019-08-06 14:48:43:702,177.1927916076612,177.02353568562881,0,-22.190963745117188,13.494505882263184,-38.984127044677734
-0.15383154153823853,0.24062444269657135,9.66139030456543,0.0004928051185493561,0.01410674660909561,0.0023404247170360896,2.330003023147583,2019-08-06 14:48:43:712,177.2227681515594,177.0542541499336,0,-22.190963745117188,13.494505882263184,-38.984127044677734
-0.14664728939533234,0.28612470626831055,9.613494873046875,-0.0016382440647108938,0.01410674660909561,0.0010085190140713856,2.3399784564971924,2019-08-06 14:48:43:722,177.25293252559138,177.0799910660284,0,-22.190963745117188,13.494505882263184,-38.984127044677734
-0.15862104296684265,0.23822970688343048,9.599126815795898,-0.002970149702657017,0.013307602706179285,0.0031395680998037635,2.3499927520751953,2019-08-06 14:48:43:732,177.28145700094254,177.11162803718202,0,-22.190963745117188,13.494505882263184,-38.984127044677734
-0.13227878510951996,0.2047031968832016,9.639837265014648,0.0020910919816125757,0.015971413982071532,-0.0013889113292873795,2.3600103855133057,2019-08-06 14:48:43:742,177.31112074174928,177.1438892508698,0,-22.940658569335938,15.143834114074707,-37.93455505371094
-0.1490420401096344,0.2813352048397064,9.637442588806152,-0.004035674213013915,0.01410674660909561,0.0012749002066791914,2.3699893951416016,2019-08-06 14:48:43:752,177.33927398219467,177.1698307854495,0,-22.940658569335938,15.143834114074707,-37.93455505371094
-0.14425253868103027,0.22146645188331604,9.63265323638916,-0.0024373874474785677,0.014639508864274061,0.001541281334268416,2.3800246715545654,2019-08-06 14:48:43:762,177.36708021440154,177.20146623033705,0,-22.940658569335938,15.143834114074707,-37.93455505371094
-0.17059478163719177,0.19512420892715454,9.615889549255371,-0.0037692930854246903,0.013041222098738713,0.001541281334268416,2.3900108337402344,2019-08-06 14:48:43:772,177.39209864371713,177.2363008709614,0,-22.940658569335938,15.143834114074707,-37.93455505371094
-0.14664728939533234,0.23583495616912842,9.654206275939941,-0.002703768575067792,0.01064379143028704,0.0031395680998037635,2.40000581741333,2019-08-06 14:48:43:782,177.42087808753203,177.26510515639916,0,-22.940658569335938,15.143834114074707,-37.93455505371094
-0.16580528020858765,0.20949269831180573,9.623074531555176,0.0010255674062370958,0.013307602706179285,0.0031395680998037635,2.4100024700164795,2019-08-06 14:48:43:792,177.445248689072,177.29428494332444,0,-22.940658569335938,15.143834114074707,-37.93455505371094
-0.13946303725242615,0.23822970688343048,9.699706077575684,-0.0011054818095324445,0.01410674660909561,-0.004052722605179625,2.4200069904327393,2019-08-06 14:48:43:802,177.4719442981833,177.32088163977946,0,-22.940658569335938,15.143834114074707,-37.93455505371094
-0.14664728939533234,0.2047031968832016,9.649415969848633,0.0002264239747054862,0.011176553685465489,-5.7005565367755386e-05,2.4300146102905273,2019-08-06 14:48:43:812,177.4988112645284,177.35003090798133,0,-22.940658569335938,15.143834114074707,-37.93455505371094
-0.1298840343952179,0.20709794759750366,9.651811599731445,-0.0019046251923001184,0.011975696548084513,-5.7005565367755386e-05,2.440002918243408,2019-08-06 14:48:43:822,177.52669895549747,177.37951446103494,0,-22.940658569335938,15.143834114074707,-37.93455505371094
-0.15383154153823853,0.25259819626808167,9.613494873046875,-0.002171006319889343,0.01410674660909561,0.0023404247170360896,2.4499993324279785,2019-08-06 14:48:43:832,177.54991195069854,177.40304031459286,0,-22.940658569335938,15.143834114074707,-37.93455505371094
-0.15862104296684265,0.21428219974040985,9.647021293640137,0.0002264239747054862,0.015172271119452508,0.0020740435894468653,2.4599993228912354,2019-08-06 14:48:43:842,177.5715545032704,177.42940317502567,0,-22.940658569335938,15.143834114074707,-37.93455505371094
-0.14664728939533234,0.2047031968832016,9.623074531555176,-0.0013718629371216693,0.010910172037727614,0.00020937558253977584,2.4700119495391846,2019-08-06 14:48:43:852,177.59652822560162,177.4572140050491,0,-22.940658569335938,15.143834114074707,-37.93455505371094
-0.1562262922525406,0.24541394412517548,9.63265323638916,-0.0037692930854246903,0.009844647527370716,0.004205092610160662,2.4800143241882324,2019-08-06 14:48:43:862,177.62048529588225,177.480998165665,0,-22.940658569335938,15.143834114074707,-37.93455505371094
-0.15862104296684265,0.1975189596414566,9.59194278717041,-0.003502911957835466,0.014373127216536186,0.0018076624618576407,2.490004777908325,2019-08-06 14:48:43:872,177.64106463321338,177.509749645692,0,-22.940658569335938,15.143834114074707,-37.93455505371094
-0.11551553755998611,0.22865070402622223,9.601521492004395,-0.0003063383292368989,0.010910172037727614,0.0018076624618576407,2.499992847442627,2019-08-06 14:48:43:882,177.66833880096203,177.53244277056254,0,-22.940658569335938,15.143834114074707,-37.93455505371094
-0.1298840343952179,0.21667695045471191,9.666179656982422,-0.0008391006169246387,0.01570503337463096,0.0012749002066791914,2.5100066661834717,2019-08-06 14:48:43:892,177.69074479300713,177.55658319299096,0,-22.940658569335938,15.143834114074707,-37.93455505371094
-0.09875229001045227,0.24062444269657135,9.62067985534668,0.0007591862786478714,0.013840364961357736,-5.7005565367755386e-05,2.520000696182251,2019-08-06 14:48:43:902,177.7174012551827,177.5763707879829,0,-22.940658569335938,15.143834114074707,-37.93455505371094
-0.12748928368091583,0.2310454547405243,9.570389747619629,-0.0024373874474785677,0.011709315940643939,0.00020937558253977584,2.5300042629241943,2019-08-06 14:48:43:912,177.74121202727758,177.59855347507963,0,-22.940658569335938,15.143834114074707,-37.93455505371094
-0.14425253868103027,0.21428219974040985,9.66139030456543,0.0015583297264341264,0.015971413982071532,0.0031395680998037635,2.5399904251098633,2019-08-06 14:48:43:922,177.7603240739753,177.62029725690923,0,-22.940658569335938,15.143834114074707,-37.93455505371094
-0.1562262922525406,0.2502034604549408,9.668574333190918,-0.0016382440647108938,0.007979980154394795,-0.0005897678815011245,2.549990177154541,2019-08-06 14:48:43:932,177.7821226886444,177.63916376282955,0,-22.940658569335938,15.143834114074707,-37.93455505371094
-0.11791028827428818,0.24062444269657135,9.654206275939941,0.0002264239747054862,0.012508459843560263,-0.0027208169672335025,2.560009002685547,2019-08-06 14:48:43:942,177.80544874680606,177.65769786663088,0,-22.940658569335938,15.143834114074707,-37.93455505371094
-0.14425253868103027,0.24062444269657135,9.62067985534668,0.0020910919816125757,0.01570503337463096,-0.0005897678815011245,2.5700020790100098,2019-08-06 14:48:43:952,177.8233469438864,177.6747158633599,0,-22.940658569335938,15.143834114074707,-37.93455505371094
-0.18496328592300415,0.22146645188331604,9.623074531555176,-0.0008391006169246387,0.014639508864274061,0.0020740435894468653,2.5799977779388428,2019-08-06 14:48:43:962,177.83664076227788,177.69532492961454,0,-22.940658569335938,15.143834114074707,-37.93455505371094
-0.13706828653812408,0.23822970688343048,9.678153038024902,-0.002970149702657017,0.009578266919930143,-0.004585484860358075,2.5899884700775146,2019-08-06 14:48:43:972,177.85830665355053,177.71488336311472,0,-22.940658569335938,15.143834114074707,-37.93455505371094
-0.09875229001045227,0.20949269831180573,9.618284225463867,-0.004302055340603139,0.010111029175108591,0.0010085190140713856,2.599987506866455,2019-08-06 14:48:43:982,177.8836988734924,177.7380461949422,0,-22.940658569335938,15.143834114074707,-37.93455505371094
-0.14664728939533234,0.23822970688343048,9.587152481079102,-0.004035674213013915,0.01064379143028704,0.0028731869722145387,2.6100058555603027,2019-08-06 14:48:43:992,177.90251063399782,177.7570866292499,0,-22.340904235839844,15.44371223449707,-39.13406753540039
-0.1226997897028923,0.19033470749855042,9.625469207763672,0.002890235364380249,0.011975696548084513,-0.001122530201698155,2.6200098991394043,2019-08-06 14:48:44:002,177.92312670176707,177.77766491414963,0,-22.340904235839844,15.44371223449707,-39.13406753540039
-0.08198904246091843,0.22625595331192017,9.67336368560791,-0.0013718629371216693,0.014373127216536186,0.00553699850818111,2.629999876022339,2019-08-06 14:48:44:012,177.94688950043087,177.7960835399386,0,-22.340904235839844,15.44371223449707,-39.13406753540039
-0.19214753806591034,0.20949269831180573,9.615889549255371,-0.002703768575067792,0.012242078195822388,0.001541281334268416,2.639993190765381,2019-08-06 14:48:44:022,177.95818741955486,177.81671793750212,0,-22.340904235839844,15.44371223449707,-39.13406753540039
-0.1298840343952179,0.25259819626808167,9.656600952148438,0.0015583297264341264,0.012508459843560263,-0.004052722605179625,2.6499927043914795,2019-08-06 14:48:44:032,177.97658856772475,177.82954049689386,0,-22.340904235839844,15.44371223449707,-39.13406753540039
-0.16580528020858765,0.2430191934108734,9.60391616821289,-0.0016382440647108938,0.01357398435391716,0.0026068058446253144,2.6599886417388916,2019-08-06 14:48:44:042,177.98965660717943,177.84487892072337,0,-22.340904235839844,15.44371223449707,-39.13406753540039
-0.14664728939533234,0.2430191934108734,9.623074531555176,-3.9957173202045016e-05,0.012774840451000838,-0.0013889113292873795,2.669992685317993,2019-08-06 14:48:44:052,178.00522611331763,177.859071214463,0,-22.340904235839844,15.44371223449707,-39.13406753540039
-0.19693702459335327,0.21428219974040985,9.658995628356934,0.001824710854023351,0.013041222098738713,-5.7005565367755386e-05,2.679999589920044,2019-08-06 14:48:44:062,178.01443309853587,177.87544685266312,0,-22.340904235839844,15.44371223449707,-39.13406753540039
-0.12509453296661377,0.22625595331192017,9.60391616821289,-0.0024373874474785677,0.016770557884987856,-0.0021880547120550534,2.6900010108947754,2019-08-06 14:48:44:072,178.0298013259379,177.8923153902747,0,-22.340904235839844,15.44371223449707,-39.13406753540039
-0.15143679082393646,0.19272945821285248,9.599126815795898,0.0004928051185493561,0.012774840451000838,-0.0005897678815011245,2.7000107765197754,2019-08-06 14:48:44:082,178.04394865882688,177.9111877165247,0,-22.340904235839844,15.44371223449707,-39.13406753540039
-0.12509453296661377,0.19272945821285248,9.642231941223145,-0.0005727194893354142,0.01570503337463096,0.004205092610160662,2.710001230239868,2019-08-06 14:48:44:092,178.05939392390076,177.93038366263931,0,-22.340904235839844,15.44371223449707,-39.13406753540039
-0.13946303725242615,0.21428219974040985,9.654206275939941,0.0026238542367910244,0.012242078195822388,-0.0003233867214026093,2.7199957370758057,2019-08-06 14:48:44:102,178.07478335892404,177.94487324538352,0,-22.340904235839844,15.44371223449707,-39.13406753540039
-0.11551553755998611,0.21667695045471191,9.654206275939941,0.0010255674062370958,0.016237795629809405,0.0026068058446253144,2.729992628097534,2019-08-06 14:48:44:112,178.0904624491747,177.95968573630603,0,-22.340904235839844,15.44371223449707,-39.13406753540039
-0.15383154153823853,0.22146645188331604,9.544047355651855,-3.9957173202045016e-05,0.011442934292906064,-0.0013889113292873795,2.7399911880493164,2019-08-06 14:48:44:122,178.1037605947394,177.97392863431028,0,-22.340904235839844,15.44371223449707,-39.13406753540039
-0.16580528020858765,0.24780869483947754,9.625469207763672,0.0015583297264341264,0.009578266919930143,-0.0053846282431257485,2.7500038146972656,2019-08-06 14:48:44:132,178.1165631816029,177.98407875745292,0,-22.340904235839844,15.44371223449707,-39.13406753540039
-0.1298840343952179,0.2549929618835449,9.560811042785645,-3.9957173202045016e-05,0.01410674660909561,0.0007421378864821609,2.7600059509277344,2019-08-06 14:48:44:142,178.13074295121692,177.9938645627906,0,-22.340904235839844,15.44371223449707,-39.13406753540039
-0.13227878510951996,0.20709794759750366,9.587152481079102,-3.9957173202045016e-05,0.012242078195822388,-0.0005897678815011245,2.7699904441833496,2019-08-06 14:48:44:152,178.1454550681481,178.00925989791517,0,-22.340904235839844,15.44371223449707,-39.13406753540039
-0.16341052949428558,0.22146645188331604,9.726048469543457,0.0007591862786478714,0.014373127216536186,-0.000856149009090349,2.7799923419952393,2019-08-06 14:48:44:162,178.15522285150084,178.02255983733463,0,-22.340904235839844,15.44371223449707,-39.13406753540039
-0.16580528020858765,0.23822970688343048,9.594337463378906,-0.002171006319889343,0.01410674660909561,0.0018076624618576407,2.789990186691284,2019-08-06 14:48:44:172,178.16439792538407,178.03487988061136,0,-22.340904235839844,15.44371223449707,-39.13406753540039
-0.15383154153823853,0.23583495616912842,9.630258560180664,0.0015583297264341264,0.017836082395344753,0.0007421378864821609,2.800013542175293,2019-08-06 14:48:44:182,178.1727686043282,178.04524857323284,0,-22.340904235839844,15.44371223449707,-39.13406753540039
-0.15143679082393646,0.2310454547405243,9.596732139587402,0.0012919485988449018,0.010910172037727614,0.00047575672638364575,2.809999704360962,2019-08-06 14:48:44:192,178.18511457256548,178.05603609588675,0,-22.340904235839844,15.44371223449707,-39.13406753540039
-0.11072604358196259,0.2238612025976181,9.647021293640137,0.0026238542367910244,0.013041222098738713,0.001541281334268416,2.820005416870117,2019-08-06 14:48:44:202,178.20093352098866,178.06685479562051,0,-22.340904235839844,15.44371223449707,-39.13406753540039
-0.12509453296661377,0.23344020545482635,9.651811599731445,-3.9957173202045016e-05,0.013041222098738713,-0.0005897678815011245,2.830000400543213,2019-08-06 14:48:44:212,178.21474482328853,178.07783023528185,0,-22.340904235839844,15.44371223449707,-39.13406753540039
-0.15862104296684265,0.2310454547405243,9.651811599731445,-0.0005727194893354142,0.012508459843560263,-0.000856149009090349,2.839992046356201,2019-08-06 14:48:44:222,178.22460165307018,178.08916920737838,0,-22.340904235839844,15.44371223449707,-39.13406753540039
-0.19214753806591034,0.22625595331192017,9.596732139587402,-0.0003063383292368989,0.011975696548084513,-0.000856149009090349,2.850001573562622,2019-08-06 14:48:44:232,178.2304382085356,178.10054648814446,0,-22.340904235839844,15.44371223449707,-39.13406753540039
-0.1562262922525406,0.2118874490261078,9.615889549255371,-0.0016382440647108938,0.011442934292906064,-0.0005897678815011245,2.8600339889526367,2019-08-06 14:48:44:242,178.24076773729206,178.11421208989137,0,-23.090599060058594,14.69401741027832,-39.88376235961914
-0.15862104296684265,0.2549929618835449,9.606310844421387,0.0012919485988449018,0.01410674660909561,0.003938711482571438,2.870007276535034,2019-08-06 14:48:44:252,178.24913278793872,178.1207939526848,0,-23.090599060058594,14.69401741027832,-39.88376235961914
-0.16101577877998352,0.23344020545482635,9.635047912597656,-0.0019046251923001184,0.013041222098738713,-0.0021880547120550534,2.880002498626709,2019-08-06 14:48:44:262,178.25768285498674,178.13168892540602,0,-23.090599060058594,14.69401741027832,-39.88376235961914
-0.13467353582382202,0.21667695045471191,9.639837265014648,0.0007591862786478714,0.014373127216536186,-0.0021880547120550534,2.8900039196014404,2019-08-06 14:48:44:272,178.26844956486062,178.1428761191684,0,-23.090599060058594,14.69401741027832,-39.88376235961914
-0.1298840343952179,0.24062444269657135,9.654206275939941,0.0026238542367910244,0.014373127216536186,0.0012749002066791914,2.9000132083892822,2019-08-06 14:48:44:282,178.27958680142302,178.14998869284648,0,-23.090599060058594,14.69401741027832,-39.88376235961914
-0.13467353582382202,0.19512420892715454,9.651811599731445,-0.0003063383292368989,0.014373127216536186,-0.006450152753482647,2.9100124835968018,2019-08-06 14:48:44:292,178.28993702154028,178.16399786252583,0,-23.090599060058594,14.69401741027832,-39.88376235961914
-0.1418577879667282,0.19512420892715454,9.630258560180664,0.0004928051185493561,0.01756970178790418,0.007401666401305682,2.92000675201416,2019-08-06 14:48:44:302,178.2973999705571,178.17722647592112,0,-23.090599060058594,14.69401741027832,-39.88376235961914
-0.14425253868103027,0.2310454547405243,9.62067985534668,-0.0019046251923001184,0.012508459843560263,0.004737855125413436,2.9299936294555664,2019-08-06 14:48:44:312,178.3072571259145,178.1872355382961,0,-23.090599060058594,14.69401741027832,-39.88376235961914
-0.14425253868103027,0.20230846107006073,9.642231941223145,-0.0003063383292368989,0.01570503337463096,0.0010085190140713856,2.939993143081665,2019-08-06 14:48:44:322,178.31515187465433,178.19962333030543,0,-23.090599060058594,14.69401741027832,-39.88376235961914
-0.14425253868103027,0.19272945821285248,9.699706077575684,0.0004928051185493561,0.011176553685465489,-5.7005565367755386e-05,2.9499969482421875,2019-08-06 14:48:44:332,178.32553020511082,178.21258813921455,0,-23.090599060058594,14.69401741027832,-39.88376235961914
-0.11312079429626465,0.22865070402622223,9.613494873046875,0.0002264239747054862,0.011709315940643939,-0.0013889113292873795,2.960008144378662,2019-08-06 14:48:44:342,178.33895425138775,178.22095938014573,0,-23.090599060058594,14.69401741027832,-39.88376235961914
-0.13227878510951996,0.19033470749855042,9.647021293640137,0.0015583297264341264,0.013840364961357736,0.0026068058446253144,2.970000743865967,2019-08-06 14:48:44:352,178.34869790060003,178.23305997988984,0,-23.090599060058594,14.69401741027832,-39.88376235961914
-0.13706828653812408,0.21667695045471191,9.656600952148438,0.0007591862786478714,0.014905889471714633,0.0007421378864821609,2.979990243911743,2019-08-06 14:48:44:362,178.35709876457136,178.24226495192056,0,-23.090599060058594,14.69401741027832,-39.88376235961914
-0.15383154153823853,0.2238612025976181,9.560811042785645,-0.0019046251923001184,0.01810246300278533,0.0007421378864821609,2.9900009632110596,2019-08-06 14:48:44:372,178.36134542295133,178.25166415359948,0,-23.090599060058594,14.69401741027832,-39.88376235961914
-0.14425253868103027,0.19033470749855042,9.618284225463867,-3.9957173202045016e-05,0.013041222098738713,0.0028731869722145387,2.999990701675415,2019-08-06 14:48:44:382,178.36961854298178,178.263979900075,0,-23.090599060058594,14.69401741027832,-39.88376235961914
-0.1825685352087021,0.20230846107006073,9.611100196838379,0.0015583297264341264,0.010377409782549165,0.00020937558253977584,3.010004997253418,2019-08-06 14:48:44:392,178.3746262136282,178.2737067093199,0,-23.090599060058594,14.69401741027832,-39.88376235961914
-0.15143679082393646,0.24541394412517548,9.687732696533203,0.0010255674062370958,0.011709315940643939,0.004471473997824211,3.0199978351593018,2019-08-06 14:48:44:402,178.38265235802518,178.27863449776436,0,-23.090599060058594,14.69401741027832,-39.88376235961914
-0.08677854388952255,0.19991371035575867,9.615889549255371,-0.0019046251923001184,0.014639508864274061,-0.004851865987947299,3.029994487762451,2019-08-06 14:48:44:412,178.39644096973845,178.2903108160876,0,-23.090599060058594,14.69401741027832,-39.88376235961914
-0.13227878510951996,0.25259819626808167,9.64462661743164,-0.0003063383292368989,0.016504176237249982,-0.002987198094822727,3.0400307178497314,2019-08-06 14:48:44:422,178.4034959317171,178.29467191703264,0,-23.090599060058594,14.69401741027832,-39.88376235961914
-0.15383154153823853,0.23822970688343048,9.649415969848633,-0.0024373874474785677,0.01357398435391716,0.003405949227392988,3.05000638961792,2019-08-06 14:48:44:432,178.40955607724138,178.3018585357692,0,-23.090599060058594,14.69401741027832,-39.88376235961914
-0.10593654215335846,0.22625595331192017,9.64462661743164,-0.0008391006169246387,0.015172271119452508,0.00553699850818111,3.059990644454956,2019-08-06 14:48:44:442,178.42027293340206,178.30941435731816,0,-23.090599060058594,14.69401741027832,-39.88376235961914
-0.16341052949428558,0.2645719349384308,9.599126815795898,-3.9957173202045016e-05,0.015438651726893083,-0.004052722605179625,3.069988489151001,2019-08-06 14:48:44:452,178.4236949757936,178.31167267413892,0,-23.090599060058594,14.69401741027832,-39.88376235961914
-0.15143679082393646,0.21428219974040985,9.66139030456543,-0.0016382440647108938,0.013041222098738713,0.003938711482571438,3.080003499984741,2019-08-06 14:48:44:462,178.42992735242862,178.3209491138167,0,-23.090599060058594,14.69401741027832,-39.88376235961914
-0.15862104296684265,0.22865070402622223,9.663784980773926,-0.004568436468192365,0.01570503337463096,-0.0021880547120550534,3.090003252029419,2019-08-06 14:48:44:472,178.43370333794482,178.32998727545362,0,-23.090599060058594,14.69401741027832,-39.88376235961914
-0.1562262922525406,0.20949269831180573,9.658995628356934,0.0010255674062370958,0.007979980154394795,0.004205092610160662,3.1000008583068848,2019-08-06 14:48:44:482,178.44201697163214,178.33796209508398,0,-23.090599060058594,14.69401741027832,-39.88376235961914
-0.15383154153823853,0.25259819626808167,9.611100196838379,-0.003236530830246241,0.012774840451000838,0.0026068058446253144,3.110001802444458,2019-08-06 14:48:44:492,178.44766338496862,178.3429103984274,0,-23.690353393554688,13.79438304901123,-38.984127044677734
-0.1418577879667282,0.2693614363670349,9.611100196838379,-0.004568436468192365,0.01570503337463096,0.0028731869722145387,3.120009422302246,2019-08-06 14:48:44:502,178.45297280140372,178.34651220164827,0,-23.690353393554688,13.79438304901123,-38.984127044677734
-0.16580528020858765,0.2430191934108734,9.642231941223145,0.0007591862786478714,0.010111029175108591,-0.000856149009090349,3.1300032138824463,2019-08-06 14:48:44:512,178.45853662023345,178.35028082694168,0,-23.690353393554688,13.79438304901123,-38.984127044677734
-0.14425253868103027,0.20230846107006073,9.627863883972168,-0.0013718629371216693,0.01064379143028704,-0.0021880547120550534,3.140007734298706,2019-08-06 14:48:44:522,178.466218950875,178.35997049578637,0,-23.690353393554688,13.79438304901123,-38.984127044677734
-0.12509453296661377,0.2238612025976181,9.570389747619629,-0.0024373874474785677,0.007713599026805571,0.005004236253002661,3.150005578994751,2019-08-06 14:48:44:532,178.47758692401186,178.36734013013083,0,-23.690353393554688,13.79438304901123,-38.984127044677734
-0.11551553755998611,0.19033470749855042,9.627863883972168,-0.007498629391822486,0.010111029175108591,0.001541281334268416,3.160001039505005,2019-08-06 14:48:44:542,178.48861234725834,178.381551057043,0,-23.690353393554688,13.79438304901123,-38.984127044677734
-0.11551553755998611,0.23583495616912842,9.579968452453613,0.0015583297264341264,0.012242078195822388,-0.002987198094822727,3.1699934005737305,2019-08-06 14:48:44:552,178.49815462717268,178.38484181381116,0,-23.690353393554688,13.79438304901123,-38.984127044677734
-0.12748928368091583,0.21667695045471191,9.630258560180664,-0.0005727194893354142,0.013041222098738713,-0.001122530201698155,3.179976224899292,2019-08-06 14:48:44:562,178.50571227226425,178.3916877151314,0,-23.690353393554688,13.79438304901123,-38.984127044677734
-0.14664728939533234,0.22865070402622223,9.697311401367188,0.0026238542367910244,0.013307602706179285,0.0026068058446253144,3.189988136291504,2019-08-06 14:48:44:572,178.5107891735904,178.39536463732762,0,-23.690353393554688,13.79438304901123,-38.984127044677734
-0.1298840343952179,0.2573876976966858,9.682943344116211,-0.0011054818095324445,0.01570503337463096,-0.0003233867214026093,3.1999824047088623,2019-08-06 14:48:44:582,178.51639005081944,178.39762466741018,0,-23.690353393554688,13.79438304901123,-38.984127044677734
-0.11791028827428818,0.22625595331192017,9.62067985534668,-0.003502911957835466,0.012242078195822388,-0.005118247115536523,3.2099931240081787,2019-08-06 14:48:44:592,178.525137423855,178.40469686720783,0,-23.690353393554688,13.79438304901123,-38.984127044677734
-0.11791028827428818,0.21667695045471191,9.675758361816406,-0.0013718629371216693,0.011709315940643939,0.0023404247170360896,3.219998598098755,2019-08-06 14:48:44:602,178.53409269784706,178.4117165400303,0,-23.690353393554688,13.79438304901123,-38.984127044677734
-0.14425253868103027,0.21907170116901398,9.735627174377441,-0.003502911957835466,0.011709315940643939,0.0026068058446253144,3.2300000190734863,2019-08-06 14:48:44:612,178.53985738506708,178.4196682543793,0,-23.690353393554688,13.79438304901123,-38.984127044677734
-0.09396279603242874,0.2549929618835449,9.670969009399414,-0.003502911957835466,0.011442934292906064,0.003672330354982212,3.2400007247924805,2019-08-06 14:48:44:622,178.55150126649016,178.42303472597536,0,-23.690353393554688,13.79438304901123,-38.984127044677734
-0.16580528020858765,0.22146645188331604,9.596732139587402,-0.0005727194893354142,0.013840364961357736,0.00020937558253977584,3.2500011920928955,2019-08-06 14:48:44:632,178.55290321468428,178.42845570843997,0,-23.690353393554688,13.79438304901123,-38.984127044677734
-0.11791028827428818,0.21667695045471191,9.611100196838379,-0.0019046251923001184,0.012508459843560263,0.0018076624618576407,3.260002374649048,2019-08-06 14:48:44:642,178.56076329309187,178.43512650593607,0,-23.690353393554688,13.79438304901123,-38.984127044677734
-0.16101577877998352,0.23583495616912842,9.656600952148438,-0.0013718629371216693,0.01357398435391716,0.003938711482571438,3.2699973583221436,2019-08-06 14:48:44:652,178.5628246591591,178.43921372819926,0,-23.690353393554688,13.79438304901123,-38.984127044677734
-0.13467353582382202,0.24780869483947754,9.656600952148438,-0.0011054818095324445,0.011975696548084513,-0.0021880547120550534,3.2799949645996094,2019-08-06 14:48:44:662,178.56886522941159,178.44164987952277,0,-23.690353393554688,13.79438304901123,-38.984127044677734
-0.16341052949428558,0.2238612025976181,9.613494873046875,0.0012919485988449018,0.009045504664751694,0.00047575672638364575,3.289997100830078,2019-08-06 14:48:44:672,178.5729313627505,178.44541216842782,0,-23.690353393554688,13.79438304901123,-38.984127044677734
-0.1682000309228897,0.24541394412517548,9.675758361816406,-0.0016382440647108938,0.014373127216536186,-0.0024544358396442778,3.3000006675720215,2019-08-06 14:48:44:682,178.57348117220687,178.4483655879925,0,-23.690353393554688,13.79438304901123,-38.984127044677734
-0.13227878510951996,0.22625595331192017,9.647021293640137,0.0034229976195586987,0.012508459843560263,0.0026068058446253144,3.3100035190582275,2019-08-06 14:48:44:692,178.57927439198292,178.45060496924359,0,-23.690353393554688,13.79438304901123,-38.984127044677734
-0.11791028827428818,0.2693614363670349,9.675758361816406,-0.0016382440647108938,0.012774840451000838,-0.0005897678815011245,3.3199820518493652,2019-08-06 14:48:44:702,178.58656763368379,178.4506180970095,0,-23.690353393554688,13.79438304901123,-38.984127044677734
-0.16101577877998352,0.22865070402622223,9.606310844421387,0.0012919485988449018,0.014373127216536186,-5.7005565367755386e-05,3.3300037384033203,2019-08-06 14:48:44:712,178.58754286955335,178.45360864643402,0,-23.690353393554688,13.79438304901123,-38.984127044677734
-0.13946303725242615,0.2310454547405243,9.594337463378906,-0.0019046251923001184,0.014373127216536186,0.0020740435894468653,3.3399996757507324,2019-08-06 14:48:44:722,178.59106897366965,178.45801551927184,0,-23.690353393554688,13.79438304901123,-38.984127044677734
-0.1298840343952179,0.24062444269657135,9.59194278717041,-0.003236530830246241,0.010377409782549165,0.003938711482571438,3.350001811981201,2019-08-06 14:48:44:732,178.59790360852398,178.46193237877992,0,-23.690353393554688,13.79438304901123,-38.984127044677734
-0.1490420401096344,0.21428219974040985,9.558416366577148,0.0034229976195586987,0.01064379143028704,0.003672330354982212,3.3599982261657715,2019-08-06 14:48:44:742,178.6021046723836,178.4650873840847,0,-22.940658569335938,15.143834114074707,-38.234432220458984
-0.13946303725242615,0.23822970688343048,9.627863883972168,-0.0016382440647108938,0.011442934292906064,-0.00831482116675587,3.36999773979187,2019-08-06 14:48:44:752,178.60703986479015,178.46835696939849,0,-22.940658569335938,15.143834114074707,-38.234432220458984
-0.16101577877998352,0.21907170116901398,9.579968452453613,0.0004928051185493561,0.011176553685465489,-0.002987198094822727,3.380000352859497,2019-08-06 14:48:44:762,178.60936359006294,178.47251317778347,0,-22.940658569335938,15.143834114074707,-38.234432220458984
-0.16580528020858765,0.23822970688343048,9.663784980773926,-0.0016382440647108938,0.014639508864274061,-0.0003233867214026093,3.3899974822998047,2019-08-06 14:48:44:772,178.6092996274193,178.4757393588833,0,-22.940658569335938,15.143834114074707,-38.234432220458984
-0.13946303725242615,0.22625595331192017,9.675758361816406,0.002890235364380249,0.013307602706179285,0.0010085190140713856,3.400003671646118,2019-08-06 14:48:44:782,178.61312112161366,178.4778097307997,0,-22.940658569335938,15.143834114074707,-38.234432220458984
-0.13467353582382202,0.19512420892715454,9.63265323638916,0.0026238542367910244,0.017036938492428433,-0.0003233867214026093,3.409999132156372,2019-08-06 14:48:44:792,178.61527689191885,178.48357180548706,0,-22.940658569335938,15.143834114074707,-38.234432220458984
-0.16580528020858765,0.23583495616912842,9.625469207763672,0.0031566164919694735,0.01570503337463096,0.0018076624618576407,3.419999599456787,2019-08-06 14:48:44:802,178.61441536057288,178.4840572299508,0,-22.940658569335938,15.143834114074707,-38.234432220458984
-0.15862104296684265,0.21428219974040985,9.625469207763672,-0.0008391006169246387,0.01410674660909561,-0.001122530201698155,3.4299983978271484,2019-08-06 14:48:44:812,178.61532490274527,178.48934102224888,0,-22.940658569335938,15.143834114074707,-38.234432220458984
-0.12509453296661377,0.22865070402622223,9.682943344116211,-0.0005727194893354142,0.017303320140166306,0.0028731869722145387,3.4399988651275635,2019-08-06 14:48:44:822,178.61849883040534,178.49282144970766,0,-22.940658569335938,15.143834114074707,-38.234432220458984
-0.12748928368091583,0.23822970688343048,9.678153038024902,-0.0003063383292368989,0.013041222098738713,-0.0005897678815011245,3.4500036239624023,2019-08-06 14:48:44:832,178.62370858909264,178.49493586050528,0,-22.940658569335938,15.143834114074707,-38.234432220458984
-0.11791028827428818,0.23583495616912842,9.66139030456543,-0.0011054818095324445,0.01410674660909561,-0.0021880547120550534,3.460000991821289,2019-08-06 14:48:44:842,178.62933120560356,178.49769141089973,0,-22.940658569335938,15.143834114074707,-38.234432220458984
-0.12509453296661377,0.24541394412517548,9.658995628356934,0.0031566164919694735,0.007979980154394795,0.006069760763359559,3.469996929168701,2019-08-06 14:48:44:852,178.63742562625916,178.49685692186756,0,-22.940658569335938,15.143834114074707,-38.234432220458984
-0.11551553755998611,0.26696670055389404,9.577573776245117,0.0026238542367910244,0.007713599026805571,0.0018076624618576407,3.4800004959106445,2019-08-06 14:48:44:862,178.64652412545698,178.493512816238,0,-22.940658569335938,15.143834114074707,-38.234432220458984
-0.13467353582382202,0.24541394412517548,9.62067985534668,-0.0003063383292368989,0.011709315940643939,0.0007421378864821609,3.490002393722534,2019-08-06 14:48:44:872,178.65097776321312,178.4945897755908,0,-22.940658569335938,15.143834114074707,-38.234432220458984
-0.13467353582382202,0.21907170116901398,9.639837265014648,-0.0013718629371216693,0.012774840451000838,0.0020740435894468653,3.500002384185791,2019-08-06 14:48:44:882,178.6547771644036,178.49943106776104,0,-22.940658569335938,15.143834114074707,-38.234432220458984
-0.1682000309228897,0.19512420892715454,9.682943344116211,0.0010255674062370958,0.010377409782549165,0.00020937558253977584,3.5100176334381104,2019-08-06 14:48:44:892,178.65594241749207,178.50577711263065,0,-22.940658569335938,15.143834114074707,-38.234432220458984
-0.15143679082393646,0.2047031968832016,9.642231941223145,-0.0008391006169246387,0.015438651726893083,0.003938711482571438,3.5199978351593018,2019-08-06 14:48:44:902,178.65617616692657,178.51180782219777,0,-22.940658569335938,15.143834114074707,-38.234432220458984
-0.11312079429626465,0.22146645188331604,9.623074531555176,0.0002264239747054862,0.010910172037727614,0.001541281334268416,3.529998540878296,2019-08-06 14:48:44:912,178.66345636220584,178.51507695234176,0,-22.940658569335938,15.143834114074707,-38.234432220458984
-0.1035417914390564,0.2310454547405243,9.623074531555176,0.0002264239747054862,0.014905889471714633,0.0018076624618576407,3.54000186920166,2019-08-06 14:48:44:922,178.6694855332216,178.51714062931677,0,-22.940658569335938,15.143834114074707,-38.234432220458984
-0.1226997897028923,0.24062444269657135,9.70210075378418,-0.0024373874474785677,0.011975696548084513,0.0023404247170360896,3.550001621246338,2019-08-06 14:48:44:932,178.6748803464115,178.5197520329022,0,-22.940658569335938,15.143834114074707,-38.234432220458984
-0.14425253868103027,0.20709794759750366,9.649415969848633,0.00555404690034682,0.013041222098738713,-0.0024544358396442778,3.559997797012329,2019-08-06 14:48:44:942,178.67693348911223,178.52164947072407,0,-22.940658569335938,15.143834114074707,-38.234432220458984
-0.14425253868103027,0.25259819626808167,9.611100196838379,0.0007591862786478714,0.011176553685465489,0.0007421378864821609,3.5700080394744873,2019-08-06 14:48:44:952,178.67991507140292,178.5206798286387,0,-22.940658569335938,15.143834114074707,-38.234432220458984
-0.14664728939533234,0.24541394412517548,9.663784980773926,0.0004928051185493561,0.01570503337463096,0.001541281334268416,3.5799994468688965,2019-08-06 14:48:44:962,178.6801181346919,178.5208952355335,0,-22.940658569335938,15.143834114074707,-38.234432220458984
-0.14425253868103027,0.23822970688343048,9.637442588806152,0.003689378747147923,0.011442934292906064,0.00047575672638364575,3.5900015830993652,2019-08-06 14:48:44:972,178.68293850703898,178.52008497730176,0,-22.940658569335938,15.143834114074707,-38.234432220458984
-0.14664728939533234,0.24780869483947754,9.639837265014648,0.0023574731092018,0.011176553685465489,0.0020740435894468653,3.6000254154205322,2019-08-06 14:48:44:982,178.68555811423496,178.51890514862282,0,-22.940658569335938,15.143834114074707,-38.234432220458984
-0.12748928368091583,0.2310454547405243,9.627863883972168,-0.0011054818095324445,0.013307602706179285,0.004205092610160662,3.6099963188171387,2019-08-06 14:48:44:992,178.68922350919613,178.5216520394941,0,-23.240537643432617,15.44371223449707,-39.13406753540039
-0.16580528020858765,0.23583495616912842,9.572784423828125,-0.002970149702657017,0.01756970178790418,0.001541281334268416,3.6199779510498047,2019-08-06 14:48:45:002,178.68574596512477,178.52465862254346,0,-23.240537643432617,15.44371223449707,-39.13406753540039
-0.18975278735160828,0.20709794759750366,9.666179656982422,-0.0016382440647108938,0.011975696548084513,0.0026068058446253144,3.630002021789551,2019-08-06 14:48:45:012,178.68279841494237,178.5305400443994,0,-23.240537643432617,15.44371223449707,-39.13406753540039
-0.17777903378009796,0.2621771991252899,9.699706077575684,-0.0005727194893354142,0.010910172037727614,-0.0003233867214026093,3.640002489089966,2019-08-06 14:48:45:022,178.68201579074517,178.5292849728202,0,-23.240537643432617,15.44371223449707,-39.13406753540039
-0.13467353582382202,0.24062444269657135,9.651811599731445,-0.005633960978549262,0.01357398435391716,-0.005118247115536523,3.6500113010406494,2019-08-06 14:48:45:032,178.68475884749333,178.53330319576133,0,-23.240537643432617,15.44371223449707,-39.13406753540039
-0.13946303725242615,0.23822970688343048,9.635047912597656,-0.004302055340603139,0.014373127216536186,0.004471473997824211,3.6599879264831543,2019-08-06 14:48:45:042,178.68642658282272,178.53671971806108,0,-23.240537643432617,15.44371223449707,-39.13406753540039
-0.1562262922525406,0.23583495616912842,9.62067985534668,0.003955759874737148,0.015172271119452508,-0.0027208169672335025,3.669982433319092,2019-08-06 14:48:45:052,178.6855771012418,178.535680800813,0,-23.240537643432617,15.44371223449707,-39.13406753540039
-0.1418577879667282,0.1975189596414566,9.64462661743164,-0.0013718629371216693,0.01410674660909561,-5.7005565367755386e-05,3.6799814701080322,2019-08-06 14:48:45:062,178.68709194304574,178.54227269429066,0,-23.240537643432617,15.44371223449707,-39.13406753540039
-0.1226997897028923,0.2238612025976181,9.639837265014648,0.0002264239747054862,0.013041222098738713,0.0018076624618576407,3.689981698989868,2019-08-06 14:48:45:072,178.69144241362108,178.54469384832896,0,-23.240537643432617,15.44371223449707,-39.13406753540039
-0.1562262922525406,0.25259819626808167,9.656600952148438,-0.0024373874474785677,0.010111029175108591,-0.001655292456876604,3.6999900341033936,2019-08-06 14:48:45:082,178.69339428500413,178.5452015774374,0,-23.240537643432617,15.44371223449707,-39.13406753540039
-0.1490420401096344,0.24062444269657135,9.59194278717041,-0.004568436468192365,0.010377409782549165,-0.000856149009090349,3.7099716663360596,2019-08-06 14:48:45:092,178.69590610620162,178.54811747912052,0,-23.240537643432617,15.44371223449707,-39.13406753540039
-0.16101577877998352,0.2047031968832016,9.608705520629883,-0.0013718629371216693,0.016237795629809405,0.00020937558253977584,3.7199811935424805,2019-08-06 14:48:45:102,178.69366116499586,178.5535173484858,0,-23.240537643432617,15.44371223449707,-39.13406753540039
-0.15383154153823853,0.22865070402622223,9.666179656982422,-0.0005727194893354142,0.014639508864274061,-0.0053846282431257485,3.7299816608428955,2019-08-06 14:48:45:112,178.69333246263753,178.55566734757292,0,-23.240537643432617,15.44371223449707,-39.13406753540039
-0.14664728939533234,0.22625595331192017,9.567995071411133,-0.0011054818095324445,0.013307602706179285,-0.0019216735844658289,3.7399842739105225,2019-08-06 14:48:45:122,178.69442975107623,178.55808228410038,0,-23.240537643432617,15.44371223449707,-39.13406753540039
-0.18975278735160828,0.2430191934108734,9.637442588806152,-0.0016382440647108938,0.015971413982071532,-0.000856149009090349,3.749979019165039,2019-08-06 14:48:45:132,178.6890187836716,178.5589505701117,0,-23.240537643432617,15.44371223449707,-39.13406753540039
-0.1418577879667282,0.21907170116901398,9.697311401367188,-0.0019046251923001184,0.01357398435391716,-0.001655292456876604,3.759974479675293,2019-08-06 14:48:45:142,178.6908581845736,178.56295757193598,0,-23.240537643432617,15.44371223449707,-39.13406753540039
-0.20412127673625946,0.22865070402622223,9.666179656982422,-3.9957173202045016e-05,0.011975696548084513,0.0018076624618576407,3.7699801921844482,2019-08-06 14:48:45:152,178.68611807223155,178.5646196190276,0,-23.240537643432617,15.44371223449707,-39.13406753540039
-0.17298953235149384,0.24780869483947754,9.596732139587402,-0.0013718629371216693,0.014639508864274061,-5.7005565367755386e-05,3.779982328414917,2019-08-06 14:48:45:162,178.68351999155618,178.56451420792445,0,-23.240537643432617,15.44371223449707,-39.13406753540039
-0.23525302112102509,0.2693614363670349,9.697311401367188,-0.0011054818095324445,0.016237795629809405,-0.0005897678815011245,3.7899811267852783,2019-08-06 14:48:45:172,178.67293917015436,178.56202275325307,0,-23.240537643432617,15.44371223449707,-39.13406753540039
-0.2017265260219574,0.24541394412517548,9.637442588806152,-0.005633960978549262,0.011975696548084513,-0.0013889113292873795,3.799983024597168,2019-08-06 14:48:45:182,178.66877249600157,178.56477234421214,0,-23.240537643432617,15.44371223449707,-39.13406753540039
-0.16580528020858765,0.2430191934108734,9.639837265014648,-0.004834817595781589,0.010910172037727614,-0.001122530201698155,3.8099846839904785,2019-08-06 14:48:45:192,178.6695621685051,178.56730980808425,0,-23.240537643432617,15.44371223449707,-39.13406753540039
-0.1753842830657959,0.2645719349384308,9.64462661743164,0.0015583297264341264,0.01357398435391716,0.0026068058446253144,3.81998348236084,2019-08-06 14:48:45:202,178.66771427508792,178.56366177822935,0,-23.240537643432617,15.44371223449707,-39.13406753540039
-0.16341052949428558,0.24062444269657135,9.66139030456543,0.0004928051185493561,0.014373127216536186,0.003405949227392988,3.8299827575683594,2019-08-06 14:48:45:212,178.6669101787951,178.56357783283565,0,-23.240537643432617,15.44371223449707,-39.13406753540039
-0.16580528020858765,0.2310454547405243,9.599126815795898,-0.0016382440647108938,0.012508459843560263,0.0023404247170360896,3.8399999141693115,2019-08-06 14:48:45:222,178.66674506246787,178.5656515222885,0,-23.240537643432617,15.44371223449707,-39.13406753540039
-0.2208845317363739,0.19512420892715454,9.647021293640137,0.0012919485988449018,0.013041222098738713,0.004737855125413436,3.8499720096588135,2019-08-06 14:48:45:232,178.65987491431684,178.5704405375153,0,-23.240537643432617,15.44371223449707,-39.13406753540039
-0.2017265260219574,0.2310454547405243,9.58236312866211,-0.004568436468192365,0.01064379143028704,0.006868904146127233,3.8599841594696045,2019-08-06 14:48:45:242,178.65657359341574,178.573975586363,0,-23.39047622680664,14.394139289855957,-40.18363952636719
-0.1682000309228897,0.25259819626808167,9.567995071411133,-0.002171006319889343,0.012774840451000838,0.00846719091166258,3.869980573654175,2019-08-06 14:48:45:252,178.6561291542623,178.57346913410515,0,-23.39047622680664,14.394139289855957,-40.18363952636719
-0.1753842830657959,0.1855452060699463,9.675758361816406,-0.005367579850960038,0.017303320140166306,0.0071352852737164565,3.8799848556518555,2019-08-06 14:48:45:262,178.65251785244655,178.5830432071965,0,-23.39047622680664,14.394139289855957,-40.18363952636719
-0.11791028827428818,0.2310454547405243,9.649415969848633,-0.002970149702657017,0.013307602706179285,0.00846719091166258,3.8899760246276855,2019-08-06 14:48:45:272,178.6580001636947,178.58561606323173,0,-23.39047622680664,14.394139289855957,-40.18363952636719
-0.16341052949428558,0.25978243350982666,9.587152481079102,0.0007591862786478714,0.011709315940643939,0.007668047528894907,3.899975061416626,2019-08-06 14:48:45:282,178.65873608562868,178.5824342986584,0,-23.39047622680664,14.394139289855957,-40.18363952636719
-0.17059478163719177,0.23822970688343048,9.627863883972168,-0.0016382440647108938,0.01570503337463096,0.009266334814578904,3.9099812507629395,2019-08-06 14:48:45:292,178.65643535653132,178.58335755976137,0,-23.39047622680664,14.394139289855957,-40.18363952636719
-0.15862104296684265,0.23344020545482635,9.685338020324707,-0.005367579850960038,0.012242078195822388,0.005803379635770335,3.91998291015625,2019-08-06 14:48:45:302,178.65766611224075,178.58709079077067,0,-23.39047622680664,14.394139289855957,-40.18363952636719
-0.23764777183532715,0.29330894351005554,9.618284225463867,0.0031566164919694735,0.01357398435391716,0.00553699850818111,3.9299817085266113,2019-08-06 14:48:45:312,178.64858450384247,178.57864295777958,0,-23.39047622680664,14.394139289855957,-40.18363952636719
-0.1753842830657959,0.2047031968832016,9.613494873046875,0.005287665772757595,0.0183688436102259,0.006602523018538008,3.939981698989868,2019-08-06 14:48:45:322,178.64439549236047,178.57970442678044,0,-23.39047622680664,14.394139289855957,-40.18363952636719
-0.3933064937591553,0.005938979331403971,9.670969009399414,-0.014957300964320772,0.02689304177367569,0.0020740435894468653,3.949981451034546,2019-08-06 14:48:45:332,178.6098302311119,178.61580492304665,0,-23.39047622680664,14.394139289855957,-40.18363952636719
-0.2807532846927643,0.49446791410446167,9.445862770080566,0.0031566164919694735,0.016770557884987856,0.013262051208268621,3.959984540939331,2019-08-06 14:48:45:342,178.5941647858811,178.58178465291056,0,-23.39047622680664,14.394139289855957,-40.18363952636719
-0.4651489853858948,0.3603619337081909,9.896075248718262,-0.016289207122415546,0.006381692868710797,0.02658110862802715,3.969984769821167,2019-08-06 14:48:45:352,178.56487580387684,178.57758587236341,0,-23.39047622680664,14.394139289855957,-40.18363952636719
0.08564343303442001,-0.451458215713501,9.60391616821289,-0.0005727194893354142,0.02795856628403259,0.020187961565885763,3.9799840450286865,2019-08-06 14:48:45:362,171.3880992210442,171.46018296916134,0,-23.39047622680664,14.394139289855957,-40.18363952636719
0.14311742782592773,0.3867041766643524,9.47220516204834,0.009549763814185189,0.005582549485943123,0.04176483238046431,3.989997625350952,2019-08-06 14:48:45:372,164.3745109345624,171.57885363946994,0,-23.39047622680664,14.394139289855957,-40.18363952636719
0.023379940539598465,0.4729151725769043,9.29499340057373,-0.04985323127925244,-0.01732622852702749,0.03510530679147694,3.9999821186065674,2019-08-06 14:48:45:382,157.4996166290794,171.71697346258435,0,-23.39047622680664,14.394139289855957,-40.18363952636719
-0.6639132499694824,-0.4562477171421051,9.927206993103027,0.005021284645168371,-0.0002778355485848519,0.013528432856006497,4.0099937915802,2019-08-06 14:48:45:392,157.8732577185157,164.73243972881966,0,-23.39047622680664,14.394139289855957,-40.18363952636719
0.09043293446302414,0.22865070402622223,10.25049877166748,0.04684312271697393,0.00718083625147847,0.03510530679147694,4.019986629486084,2019-08-06 14:48:45:402,151.12187276641015,164.98595052350223,0,-23.39047622680664,14.394139289855957,-40.18363952636719
-0.14664728939533234,0.4800994098186493,9.481783866882324,0.0004928051185493561,0.019167987513142228,0.008733572559400455,4.0299904346466064,2019-08-06 14:48:45:412,151.6709468550318,165.2279820669012,0,-23.39047622680664,14.394139289855957,-40.18363952636719
-0.19693702459335327,0.09693946689367294,9.766758918762207,0.01834034154477825,-0.0018761223466294901,-0.013642444238689011,4.040827512741089,2019-08-06 14:48:45:423,152.2155664166172,165.50088896608784,0,-23.39047622680664,14.394139289855957,-40.18363952636719
-0.44599100947380066,0.22625595331192017,9.522494316101074,-0.002970149702657017,-0.006404601775720633,-0.008048440039166644,4.049980878829956,2019-08-06 14:48:45:432,152.7209164331537,165.7651757140626,0,-23.39047622680664,14.394139289855957,-40.18363952636719
-0.2807532846927643,0.19272945821285248,9.936786651611328,-0.007498629391822486,0.00718083625147847,-0.0003233867214026093,4.0600011348724365,2019-08-06 14:48:45:442,153.2300898984878,166.03186832014646,0,-23.39047622680664,14.394139289855957,-40.18363952636719
-0.2017265260219574,0.05143922194838524,9.795495986938477,-0.002703768575067792,0.017036938492428433,-0.0061837716258934215,4.070006847381592,2019-08-06 14:48:45:452,153.73232099204262,166.30673247648394,0,-23.39047622680664,14.394139289855957,-40.18363952636719
-0.0963575467467308,0.2310454547405243,9.579968452453613,0.0023574731092018,0.018901606905701654,-0.007249296656398971,4.079999208450317,2019-08-06 14:48:45:462,154.23554395663731,166.55164378977403,0,-23.39047622680664,14.394139289855957,-40.18363952636719
-0.053252048790454865,0.5112311840057373,9.60391616821289,-0.002171006319889343,0.013041222098738713,-0.0005897678815011245,4.0899975299835205,2019-08-06 14:48:45:472,154.7371578401153,166.76088840008666,0,-23.39047622680664,14.394139289855957,-40.18363952636719
0.016195692121982574,0.2621771991252899,9.567995071411133,0.010615288324542088,0.008512742409573244,0.0020740435894468653,4.100004434585571,2019-08-06 14:48:45:482,148.03957117281112,166.98831412191805,0,-23.39047622680664,14.394139289855957,-40.18363952636719
-0.04367304965853691,0.10412371903657913,9.560811042785645,-0.004302055340603139,0.020499892630939702,0.0012749002066791914,4.11002516746521,2019-08-06 14:48:45:492,148.6620108047281,167.2384891410374,0,-23.240537643432617,15.743589401245117,-39.43394470214844
0.0473274365067482,0.1520187109708786,9.558416366577148,-0.004035674213013915,0.017036938492428433,0.001541281334268416,4.1200079917907715,2019-08-06 14:48:45:502,142.08489462882184,167.47775818791732,0,-23.240537643432617,15.743589401245117,-39.43394470214844
-0.08677854388952255,0.2549929618835449,9.670969009399414,-0.004568436468192365,0.011176553685465489,0.004205092610160662,4.12999701499939,2019-08-06 14:48:45:512,142.8266458692811,167.70055819686422,0,-23.240537643432617,15.743589401245117,-39.43394470214844
-0.07241004705429077,0.13765020668506622,9.745206832885742,-0.0005727194893354142,0.005582549485943123,0.0018076624618576407,4.139997482299805,2019-08-06 14:48:45:522,143.5584638437195,167.93068374651804,0,-23.240537643432617,15.743589401245117,-39.43394470214844
-0.15143679082393646,0.2118874490261078,9.618284225463867,0.0010255674062370958,0.013041222098738713,-0.005917390498304197,4.150006055831909,2019-08-06 14:48:45:532,144.2619250786127,168.1462536846454,0,-23.240537643432617,15.743589401245117,-39.43394470214844
-0.16101577877998352,0.23583495616912842,9.532073974609375,0.003955759874737148,0.01863522629826108,-0.009913107412142566,4.1599977016448975,2019-08-06 14:48:45:542,144.9468767007656,168.3527637677974,0,-23.240537643432617,15.743589401245117,-39.43394470214844
-0.16580528020858765,0.3028879463672638,9.680547714233398,0.0026238542367910244,0.014639508864274061,-0.011777775825415789,4.1700146198272705,2019-08-06 14:48:45:552,145.6200802440644,168.54839064373206,0,-23.240537643432617,15.743589401245117,-39.43394470214844
-0.19693702459335327,0.2310454547405243,9.663784980773926,-0.0005727194893354142,0.011176553685465489,-0.015773493259402808,4.179983139038086,2019-08-06 14:48:45:562,146.27807354193845,168.7503516313497,0,-23.240537643432617,15.743589401245117,-39.43394470214844
-0.23525302112102509,0.21667695045471191,9.601521492004395,-3.9957173202045016e-05,0.010111029175108591,-0.016572636122021832,4.189964771270752,2019-08-06 14:48:45:572,146.91877397536095,168.9495115746164,0,-23.240537643432617,15.743589401245117,-39.43394470214844
-0.23525302112102509,0.23583495616912842,9.625469207763672,-0.0024373874474785677,0.010111029175108591,-0.018970066790473503,4.199974775314331,2019-08-06 14:48:45:582,147.54671410448654,169.1438206812665,0,-23.240537643432617,15.743589401245117,-39.43394470214844
-0.19214753806591034,0.22865070402622223,9.623074531555176,-0.0019046251923001184,0.015971413982071532,-0.012576919728332112,4.209985971450806,2019-08-06 14:48:45:592,148.16392396834564,169.3347923088384,0,-23.240537643432617,15.743589401245117,-39.43394470214844
-0.15143679082393646,0.2238612025976181,9.64462661743164,-0.002171006319889343,0.013041222098738713,-0.010978632962796765,4.219975233078003,2019-08-06 14:48:45:602,148.77533940831293,169.52272112577162,0,-23.240537643432617,15.743589401245117,-39.43394470214844
-0.11312079429626465,0.2621771991252899,9.675758361816406,0.004222141002326372,0.01357398435391716,-0.009646726804701992,4.22997784614563,2019-08-06 14:48:45:612,149.3788123879141,169.69885288664798,0,-23.240537643432617,15.743589401245117,-39.43394470214844
-0.11551553755998611,0.23583495616912842,9.613494873046875,0.0007591862786478714,0.010377409782549165,-0.006716534401220521,4.239974498748779,2019-08-06 14:48:45:622,149.97164255592315,169.87634411874157,0,-23.240537643432617,15.743589401245117,-39.43394470214844
-0.16101577877998352,0.27415093779563904,9.556020736694336,0.0026238542367910244,0.01357398435391716,-0.00431910373276885,4.249976873397827,2019-08-06 14:48:45:632,150.54527965063986,170.04447764712265,0,-23.240537643432617,15.743589401245117,-39.43394470214844
-0.19214753806591034,0.19991371035575867,9.649415969848633,-0.0016382440647108938,0.011975696548084513,-0.0024544358396442778,4.2599778175354,2019-08-06 14:48:45:642,151.10483363584584,170.22077071262615,0,-23.240537643432617,15.743589401245117,-39.43394470214844
-0.20412127673625946,0.20709794759750366,9.60391616821289,-0.002171006319889343,0.012242078195822388,0.003405949227392988,4.269974708557129,2019-08-06 14:48:45:652,151.6515136090112,170.3928673492168,0,-23.240537643432617,15.743589401245117,-39.43394470214844
-0.18975278735160828,0.1855452060699463,9.656600952148438,-0.004834817595781589,0.010910172037727614,0.007668047528894907,4.279973983764648,2019-08-06 14:48:45:662,152.18984332156833,170.56570924715788,0,-23.240537643432617,15.743589401245117,-39.43394470214844
-0.18496328592300415,0.2837299406528473,9.606310844421387,-0.0024373874474785677,0.010111029175108591,0.0026068058446253144,4.289974212646484,2019-08-06 14:48:45:672,152.71830786044194,170.72192800241638,0,-23.240537643432617,15.743589401245117,-39.43394470214844
-0.17777903378009796,0.24780869483947754,9.666179656982422,-0.004035674213013915,0.009578266919930143,0.00899995316684103,4.299974203109741,2019-08-06 14:48:45:682,153.2374903799898,170.8803844350552,0,-23.240537643432617,15.743589401245117,-39.43394470214844
-0.19933177530765533,0.2765457034111023,9.709284782409668,0.0004928051185493561,0.016770557884987856,0.010065477677197928,4.3099799156188965,2019-08-06 14:48:45:692,153.7397961862659,171.02987004194347,0,-23.240537643432617,15.743589401245117,-39.43394470214844
-0.16580528020858765,0.23344020545482635,9.62067985534668,0.006619571410703719,0.01570503337463096,0.009266334814578904,4.3199732303619385,2019-08-06 14:48:45:702,154.23644075279998,171.17775872467854,0,-23.240537643432617,15.743589401245117,-39.43394470214844
-0.25680577754974365,0.29330894351005554,9.637442588806152,-0.0037692930854246903,0.012774840451000838,0.010864621580114251,4.329975605010986,2019-08-06 14:48:45:712,154.7140095652431,171.32145611374435,0,-23.240537643432617,15.743589401245117,-39.43394470214844
-0.24483202397823334,0.2885194420814514,9.658995628356934,-0.0008391006169246387,0.012508459843560263,0.006069760763359559,4.3399763107299805,2019-08-06 14:48:45:722,155.18366544297518,171.4612792327754,0,-23.240537643432617,15.743589401245117,-39.43394470214844
-0.24483202397823334,0.2502034604549408,9.623074531555176,-0.0003063383292368989,0.009844647527370716,0.01299567060082805,4.349978446960449,2019-08-06 14:48:45:732,155.64531489102615,171.60243817969697,0,-23.240537643432617,15.743589401245117,-39.43394470214844
-0.2400425225496292,0.20949269831180573,9.54165267944336,-0.0019046251923001184,0.01410674660909561,0.014327575718625522,4.359976768493652,2019-08-06 14:48:45:742,156.0956669043341,171.7463034595637,0,-23.990232467651367,14.69401741027832,-39.28400421142578
-0.19693702459335327,0.25259819626808167,9.601521492004395,0.0012919485988449018,0.013307602706179285,0.02231901058659956,4.369971036911011,2019-08-06 14:48:45:752,156.54278504280228,171.88051242024906,0,-23.990232467651367,14.69401741027832,-39.28400421142578
-0.07480479776859283,0.20949269831180573,9.611100196838379,-0.002970149702657017,0.014373127216536186,0.02258539119404013,4.379972457885742,2019-08-06 14:48:45:762,156.9949390314713,172.01959663022328,0,-23.990232467651367,14.69401741027832,-39.28400421142578
-0.010146554559469223,0.19991371035575867,9.55362606048584,0.0007591862786478714,0.013307602706179285,0.03563806800635809,4.389977216720581,2019-08-06 14:48:45:772,157.4463474598256,172.15480293795773,0,-23.990232467651367,14.69401741027832,-39.28400421142578
-0.0005675556603819132,0.24780869483947754,9.584757804870605,-0.008031391647000934,0.014639508864274061,0.040699309950702006,4.399977922439575,2019-08-06 14:48:45:782,157.88913201151587,172.28659638799,0,-23.990232467651367,14.69401741027832,-39.28400421142578
0.12156467884778976,0.27894043922424316,9.589548110961914,0.005820428027936045,0.011709315940643939,0.05641579699861491,4.409977674484253,2019-08-06 14:48:45:792,151.13930052152574,172.40427342250965,0,-23.990232467651367,14.69401741027832,-39.28400421142578
0.43527689576148987,0.16638721525669098,9.412336349487305,0.0010255674062370958,0.014639508864274061,0.051887316269152134,4.419973373413086,2019-08-06 14:48:45:802,144.56125353352903,172.53535745602403,0,-23.990232467651367,14.69401741027832,-39.28400421142578
0.5238826274871826,0.3412039279937744,9.385993957519531,0.009816145461923064,0.01996713141605855,0.044961407992129596,4.429977655410767,2019-08-06 14:48:45:812,138.12270554049803,172.63749768422994,0,-23.990232467651367,14.69401741027832,-39.28400421142578
0.013800942339003086,0.27894043922424316,9.608705520629883,0.007951477048649841,0.0023859759548724283,0.020454342173326336,4.439972877502441,2019-08-06 14:48:45:822,131.7605582200364,172.74702856436892,0,-23.990232467651367,14.69401741027832,-39.28400421142578
-0.6423604488372803,0.041860222816467285,9.843391418457031,-0.03600141056401816,-0.009334794699350753,0.02471644021475393,4.4499757289886475,2019-08-06 14:48:45:832,132.65591570012427,172.90743538386644,0,-23.990232467651367,14.69401741027832,-39.28400421142578
-0.3334377706050873,0.03228122740983963,9.972707748413086,-0.030141026797352522,0.00025492675535753324,0.022851771801480705,4.459979295730591,2019-08-06 14:48:45:842,133.56435474071407,173.06250759144632,0,-23.990232467651367,14.69401741027832,-39.28400421142578
-0.1682000309228897,0.4393886625766754,9.630258560180664,0.012746337345255883,0.02396284885004557,0.013794813463447072,4.469974756240845,2019-08-06 14:48:45:852,134.45960636561273,173.14185650745338,0,-23.990232467651367,14.69401741027832,-39.28400421142578
-0.24243727326393127,0.31965118646621704,9.637442588806152,0.021270534468408372,0.018901606905701654,0.0028731869722145387,4.479977130889893,2019-08-06 14:48:45:862,135.33097818259608,173.22907978196926,0,-23.990232467651367,14.69401741027832,-39.28400421142578
-0.3525957465171814,-0.041956014931201935,9.718864440917969,-0.002970149702657017,-0.0016097412190402653,0.007934428656484131,4.489977121353149,2019-08-06 14:48:45:872,136.18370744211103,166.1711127685616,0,-23.990232467651367,14.69401741027832,-39.28400421142578
-0.44838574528694153,0.0801762193441391,9.718864440917969,-0.012293489688428529,0.005049787230764674,0.016458625779636617,4.499975919723511,2019-08-06 14:48:45:882,137.00436813145342,166.44513939252022,0,-23.990232467651367,14.69401741027832,-39.28400421142578
-0.34780627489089966,0.19991371035575867,9.788311958312988,-0.009096916157357832,0.015971413982071532,0.023650915704397032,4.5099756717681885,2019-08-06 14:48:45:892,137.81461258111258,166.6979437820104,0,-23.990232467651367,14.69401741027832,-39.28400421142578
-0.18975278735160828,0.2957036793231964,9.706890106201172,0.0034229976195586987,0.017836082395344753,0.02178624729112381,4.519998788833618,2019-08-06 14:48:45:902,138.62588444156682,166.92716090346607,0,-23.990232467651367,14.69401741027832,-39.28400421142578
-0.053252048790454865,0.2957036793231964,9.548836708068848,0.00608680915552527,0.015438651726893083,0.029511301551657276,4.5299928188323975,2019-08-06 14:48:45:912,139.43831265869966,167.1497271773151,0,-23.990232467651367,14.69401741027832,-39.28400421142578
0.04253793880343437,0.3364144265651703,9.647021293640137,0.005021284645168371,0.0039842627204077765,0.03537168531832291,4.539996385574341,2019-08-06 14:48:45:922,133.05236126008157,167.3639675861567,0,-23.990232467651367,14.69401741027832,-39.28400421142578
