ACCELEROMETER X (m/s²),ACCELEROMETER Y (m/s²),ACCELEROMETER Z (m/s²),GYROSCOPE X (rad/s),GYROSCOPE Y (rad/s),GYROSCOPE Z (rad/s),Time since start in ms ,YYYY-MO-DD HH-MI-SS_SSS,Pitch (Deg),Roll (Deg),Heading (Deg),MagX,MagY,MagZ
0.09270315617322922,0.001417691819369793,9.85609245300293,0.0020697814914054373,-0.0027304066878267143,0.0022170901899436976,0.0,2019-08-07 13:16:08:270,-3.5892222135704537,3.599835172493105,0,-32.236873626708984,26.83907127380371,-88.01416015625
0.09030840545892715,-0.012950805947184563,9.86567211151123,0.002336162618994662,-0.0048614559686148365,-0.0068398684081642635,0.01000356674194336,2019-08-07 13:16:08:280,-7.1042179037395865,-0.07196949237691852,0,-32.236873626708984,26.83907127380371,-88.01416015625
0.07354515790939331,-0.027319304645061493,9.810592651367188,0.003135306001762336,-0.005926980478971734,-0.0004467211834764202,0.01999807357788086,2019-08-07 13:16:08:290,-10.550217181151138,-3.6690986121493836,0,-32.236873626708984,26.83907127380371,-88.01416015625
0.09030840545892715,0.013391440734267235,9.824960708618164,-0.00032764881944403687,-0.006193361606560959,-0.0004467211834764202,0.030023574829101562,2019-08-07 13:16:08:300,-13.925193752843807,0.0029059193855376364,0,-32.236873626708984,26.83907127380371,-88.01416015625
0.13101914525032043,-0.0009770578471943736,9.846513748168945,0.00020511348449834825,-0.0019312633050590406,-0.0009794834711641602,0.03999948501586914,2019-08-07 13:16:08:310,-17.23036126851416,-3.5971533846593324,0,-32.236873626708984,26.83907127380371,-88.01416015625
0.11665065586566925,0.008601941168308258,9.86567211151123,0.0020697814914054373,-6.659528596096748e-05,8.60411123386422e-05,0.04999852180480957,2019-08-07 13:16:08:320,-20.472168101099612,0.07262848477413009,0,-32.236873626708984,26.83907127380371,-88.01416015625
0.09270315617322922,0.03015468828380108,9.836935043334961,0.0012706381086377639,-0.00566059935138251,-0.0004467211834764202,0.06000375747680664,2019-08-07 13:16:08:330,-23.648745881224954,3.666949337526544,0,-32.236873626708984,26.83907127380371,-88.01416015625
0.1262296438217163,-0.00337180751375854,9.834540367126465,-0.0016595545549180318,0.0017980727412644285,-0.0033769137495043436,0.07002544403076172,2019-08-07 13:16:08:340,-26.762075362894745,-0.00506290950142585,0,-32.236873626708984,26.83907127380371,-88.01416015625
0.05917666107416153,-0.00337180751375854,9.853697776794434,-0.00272507906527493,-0.0016648821774698163,-0.0009794834711641602,0.0800015926361084,2019-08-07 13:16:08:350,-29.819019510458013,-3.603043055263754,0,-32.236873626708984,26.83907127380371,-88.01416015625
0.06636090576648712,0.00620719138532877,9.812987327575684,0.0012706381086377639,0.0012653104860859794,-0.005507962770218141,0.09007072448730469,2019-08-07 13:16:08:361,-32.8156052983165,0.06757456477623958,0,-32.236873626708984,26.83907127380371,-88.01416015625
0.09749265760183334,-0.03450355306267738,9.851303100585938,0.004999974154961233,-0.003263168943005164,0.00035242226430983473,0.10001301765441895,2019-08-07 13:16:08:370,-35.746131406229246,-3.5325547251751694,0,-32.38681411743164,28.788278579711914,-87.56434631347656
0.06875565648078918,-0.00337180751375854,9.8034086227417,0.0015370192362269886,-0.0037959311981836125,-0.0033769137495043436,0.11002779006958008,2019-08-07 13:16:08:380,-38.62103753634806,-7.062373810892438,0,-32.38681411743164,28.788278579711914,-87.56434631347656
0.09749265760183334,-0.06084579974412918,9.779460906982422,0.002336162618994662,-0.002996787815415939,-0.00018034003963255039,0.11999964714050293,2019-08-07 13:16:08:390,-41.435515432836475,-10.515304835401498,0,-32.38681411743164,28.788278579711914,-87.56434631347656
0.107071653008461,-0.00337180751375854,9.726776123046875,-0.002192316810096481,-0.007258886116917857,-0.0012458645987533845,0.1300356388092041,2019-08-07 13:16:08:401,-44.190100952768596,-13.903366091228058,0,-32.38681411743164,28.788278579711914,-87.56434631347656
0.09270315617322922,0.0038124416023492813,9.793828964233398,-0.003524222448042604,-0.0048614559686148365,-0.0023113892391474454,0.1399996280670166,2019-08-07 13:16:08:410,-46.8927327613875,-10.023773119548336,0,-32.38681411743164,28.788278579711914,-87.56434631347656
0.09509790688753128,-0.00337180751375854,9.841724395751953,-0.0013931734273288073,-0.003529550070594388,-0.004708819387450467,0.1500232219696045,2019-08-07 13:16:08:420,-49.54181926648655,-13.422120952027901,0,-32.38681411743164,28.788278579711914,-87.56434631347656
0.1334138959646225,-0.03210880234837532,9.805803298950195,0.00393444938453001,-0.00246402556023749,0.004081758343142595,0.16000008583068848,2019-08-07 13:16:08:430,-52.13401262106357,-16.7521303576883,0,-32.38681411743164,28.788278579711914,-87.56434631347656
0.09270315617322922,0.001417691819369793,9.753118515014648,0.0015370192362269886,-0.0016648821774698163,-0.004975200515039691,0.170029878616333,2019-08-07 13:16:08:440,-54.67950318240106,-12.81811992372782,0,-32.38681411743164,28.788278579711914,-87.56434631347656
0.09030840545892715,-0.010556057095527649,9.853697776794434,-6.126766340918298e-05,-0.00805802949968553,-0.0017786268539318336,0.18000006675720215,2019-08-07 13:16:08:450,-57.17090009783101,-16.160495631543213,0,-32.38681411743164,28.788278579711914,-87.56434631347656
0.10467690229415894,-0.00337180751375854,9.841724395751953,-6.126766340918298e-05,-0.004062312325772837,0.00035242226430983473,0.1900334358215332,2019-08-07 13:16:08:460,-59.613005965497834,-19.43685860793,0,-32.38681411743164,28.788278579711914,-87.56434631347656
0.061571408063173294,-0.00337180751375854,9.767487525939941,0.0055327364101396825,-0.005127837096204061,0.0011515656795867992,0.20000123977661133,2019-08-07 13:16:08:470,-62.01065241895574,-22.65082247928185,0,-32.38681411743164,28.788278579711914,-87.56434631347656
0.09030840545892715,0.013391440734267235,9.808197975158691,0.004200830512119234,-0.004328693453362062,0.0027498524451221467,0.21000170707702637,2019-08-07 13:16:08:480,-64.35745804931841,-18.6017294541095,0,-32.38681411743164,28.788278579711914,-87.56434631347656
0.061571408063173294,-0.05605630204081535,9.863277435302734,-0.0008604111071317767,-0.0005993576020943366,-0.0009794834711641602,0.2200477123260498,2019-08-07 13:16:08:491,-66.66281752821725,-21.822696971603488,0,-32.38681411743164,28.788278579711914,-87.56434631347656
0.05678191035985947,-0.03210880234837532,9.834540367126465,-6.126766340918298e-05,-0.00965631626522088,0.001950709062354473,0.23000192642211914,2019-08-07 13:16:08:500,-68.91754786886457,-24.98246750011555,0,-31.487178802490234,26.989011764526367,-87.26446533203125
0.03043966367840767,-0.03450355306267738,9.760302543640137,0.0055327364101396825,-0.0016648821774698163,-0.0009794834711641602,0.24002504348754883,2019-08-07 13:16:08:510,-71.13468614155867,-28.08188105720827,0,-31.487178802490234,26.989011764526367,-87.26446533203125
0.03043966367840767,0.020575689151883125,9.779460906982422,-0.0011267922997395827,-0.007258886116917857,0.00035242226430983473,0.2500009536743164,2019-08-07 13:16:08:520,-73.30435960404267,-23.922023235955617,0,-31.487178802490234,26.989011764526367,-87.26446533203125
-0.010271081700921059,0.027759937569499016,9.870461463928223,0.0007378757884407334,-0.006992504989328633,-0.004975200515039691,0.2600057125091553,2019-08-07 13:16:08:530,-68.23553668681625,-19.847220078389647,0,-31.487178802490234,26.989011764526367,-87.26446533203125
0.0017026669811457396,0.01578618958592415,9.868066787719727,0.0012706381086377639,-0.0037959311981836125,-0.00257777036673667,0.27002406120300293,2019-08-07 13:16:08:540,-70.46849291217488,-15.852823595340535,0,-31.487178802490234,26.989011764526367,-87.26446533203125
0.05917666107416153,0.020575689151883125,9.839329719543457,0.0028689248741731116,-0.006992504989328633,-0.0068398684081642635,0.2800009250640869,2019-08-07 13:16:08:550,-72.64831406104602,-11.939770592104297,0,-31.487178802490234,26.989011764526367,-87.26446533203125
0.03762391209602356,-0.03929305449128151,9.868066787719727,0.0028689248741731116,-0.0027304066878267143,-0.004975200515039691,0.29002928733825684,2019-08-07 13:16:08:560,-74.78944130838958,-15.298027819121899,0,-31.487178802490234,26.989011764526367,-87.26446533203125
0.01367641519755125,-0.06324055045843124,9.808197975158691,-0.00272507906527493,-0.004062312325772837,-0.007106249535753488,0.30000758171081543,2019-08-07 13:16:08:570,-76.88977860262776,-18.583152011077427,0,-31.487178802490234,26.989011764526367,-87.26446533203125
0.01607116498053074,0.01818094030022621,9.887224197387695,0.0028689248741731116,-0.002996787815415939,-0.004975200515039691,0.31002378463745117,2019-08-07 13:16:08:580,-78.94843498771922,-14.615209621818511,0,-31.487178802490234,26.989011764526367,-87.26446533203125
0.09988740086555481,-0.015345555730164051,9.8848295211792,0.0015370192362269886,-0.008324410627274756,-0.008171774566259036,0.32000255584716797,2019-08-07 13:16:08:590,-80.95322284350696,-17.921987673386475,0,-31.487178802490234,26.989011764526367,-87.26446533203125
0.07115040719509125,-0.00816130731254816,9.789039611816406,0.0034016871293515603,-0.006193361606560959,-0.007905393438669812,0.3300316333770752,2019-08-07 13:16:08:600,-82.92234191348335,-21.164508145284156,0,-31.487178802490234,26.989011764526367,-87.26446533203125
0.10228215157985687,-0.005766557063907385,9.801013946533203,0.00020511348449834825,-0.004595074841025611,-0.005241581642628916,0.34000110626220703,2019-08-07 13:16:08:610,-84.84936462613557,-24.34065858711872,0,-31.487178802490234,26.989011764526367,-87.26446533203125
0.05917666107416153,-0.01774030551314354,9.863277435302734,0.0010042569160299579,-0.0019312633050590406,-0.005241581642628916,0.35000157356262207,2019-08-07 13:16:08:620,-86.74441781912196,-27.452348264114647,0,-32.236873626708984,26.539194107055664,-87.11453247070312
0.10228215157985687,-0.012950805947184563,9.791434288024902,-0.00032764881944403687,-0.006726123861739408,-0.006307106152985815,0.3600280284881592,2019-08-07 13:16:08:630,-88.59377286618576,-30.501601174036132,0,-32.236873626708984,26.539194107055664,-87.11453247070312
0.12862439453601837,0.010996690951287746,9.798619270324707,0.00020511348449834825,-0.004595074841025611,-0.0012458645987533845,0.369997501373291,2019-08-07 13:16:08:640,-90.40428383024445,-26.29296999542087,0,-32.236873626708984,26.539194107055664,-87.11453247070312
0.11186115443706512,0.001417691819369793,9.810592651367188,-0.0013931734273288073,-0.004328693453362062,-0.003909676004682793,0.37999892234802246,2019-08-07 13:16:08:650,-92.18070199863386,-22.166493811318766,0,-32.236873626708984,26.539194107055664,-87.11453247070312
0.08791365474462509,0.00620719138532877,9.812987327575684,0.0012706381086377639,-0.004328693453362062,-0.006307106152985815,0.390000581741333,2019-08-07 13:16:08:660,-93.9243911216759,-18.124602362257107,0,-32.236873626708984,26.539194107055664,-87.11453247070312
0.09509790688753128,-0.010556057095527649,9.829751014709473,0.003135306001762336,-0.0027304066878267143,-0.0009794834711641602,0.4000253677368164,2019-08-07 13:16:08:670,-95.63328056733903,-21.362644563403535,0,-32.236873626708984,26.539194107055664,-87.11453247070312
0.09988740086555481,0.01578618958592415,9.820171356201172,-0.0029914601928641544,-0.003263168943005164,-0.00897091742887806,0.41002702713012695,2019-08-07 13:16:08:680,-97.30712693026432,-17.33555378112546,0,-32.236873626708984,26.539194107055664,-87.11453247070312
0.12862439453601837,-0.01774030551314354,9.824960708618164,-0.0008604111071317767,-0.0037959311981836125,-0.007106249535753488,0.4199995994567871,2019-08-07 13:16:08:690,-98.94385782296841,-20.58629180640607,0,-32.236873626708984,26.539194107055664,-87.11453247070312
0.107071653008461,-0.00337180751375854,9.875250816345215,0.0015370192362269886,-0.005926980478971734,-0.009237299076615935,0.43003320693969727,2019-08-07 13:16:08:700,-100.5492174750289,-23.775040643306795,0,-32.236873626708984,26.539194107055664,-87.11453247070312
0.10946640372276306,-0.022529805079102516,9.853697776794434,-0.0008604111071317767,-0.006726123861739408,-0.003909676004682793,0.4400007724761963,2019-08-07 13:16:08:710,-102.12173901824363,-26.89643822480075,0,-32.236873626708984,26.539194107055664,-87.11453247070312
0.0807294100522995,-0.0009770578471943736,9.793828964233398,-0.0008604111071317767,-0.0048614559686148365,-0.0041760571322720175,0.450028657913208,2019-08-07 13:16:08:720,-103.66712148807693,-29.957910673919645,0,-32.236873626708984,26.539194107055664,-87.11453247070312
0.08791365474462509,0.027759937569499016,9.834540367126465,-0.0016595545549180318,-0.003529550070594388,-0.005507962770218141,0.46000075340270996,2019-08-07 13:16:08:730,-105.18155936994236,-25.761057788135247,0,-32.236873626708984,26.539194107055664,-87.11453247070312
0.10467690229415894,-0.00816130731254816,9.8034086227417,-0.0008604111071317767,-0.006726123861739408,-0.0020450079815210586,0.47002291679382324,2019-08-07 13:16:08:740,-106.6619079362564,-28.844398470990647,0,-32.236873626708984,26.539194107055664,-87.11453247070312
0.10467690229415894,0.02297043986618519,9.791434288024902,-0.0016595545549180318,-0.003263168943005164,-0.004442438259861242,0.4799983501434326,2019-08-07 13:16:08:750,-108.11459188571591,-24.66926923519196,0,-32.836631774902344,27.438827514648438,-87.11453247070312
0.03762391209602356,0.03015468828380108,9.86567211151123,0.0034016871293515603,-0.006459742734150184,-0.004975200515039691,0.4900219440460205,2019-08-07 13:16:08:760,-109.54429428942585,-20.58130091018367,0,-32.836631774902344,27.438827514648438,-87.11453247070312
0.08791365474462509,-0.015345555730164051,9.810592651367188,0.0010042569160299579,0.0009989292934781736,0.0016843279347652483,0.5000011920928955,2019-08-07 13:16:08:770,-110.9436997532546,-23.768445191229276,0,-32.836631774902344,27.438827514648438,-87.11453247070312
0.11186115443706512,-0.015345555730164051,9.839329719543457,-0.0016595545549180318,-0.005926980478971734,-0.0031105326219151193,0.5100014209747314,2019-08-07 13:16:08:780,-112.30847059191407,-26.89035724397979,0,-32.836631774902344,27.438827514648438,-87.11453247070312
0.09509790688753128,-0.03450355306267738,9.798619270324707,-0.0016595545549180318,-0.006459742734150184,-0.00604072502539659,0.5200040340423584,2019-08-07 13:16:08:790,-113.64755206410183,-29.947582960094298,0,-32.836631774902344,27.438827514648438,-87.11453247070312
0.09030840545892715,-0.00816130731254816,9.851303100585938,0.0015370192362269886,-0.001132119922291367,0.00061880342440835,0.5300016403198242,2019-08-07 13:16:08:800,-114.96346100158316,-32.948544795513506,0,-32.836631774902344,27.438827514648438,-87.11453247070312
0.05199240893125534,-0.01774030551314354,9.824960708618164,-0.0005940299795425521,-0.0016648821774698163,0.0008851845519975746,0.5400242805480957,2019-08-07 13:16:08:810,-116.25719085695734,-35.8871704929041,0,-32.836631774902344,27.438827514648438,-87.11453247070312
0.11904539912939072,-0.03929305449128151,9.8944091796875,0.001803400363816213,-0.003263168943005164,-0.0012458645987533845,0.5500040054321289,2019-08-07 13:16:08:820,-117.51643197722755,-38.76588695712062,0,-32.836631774902344,27.438827514648438,-87.11453247070312
0.10467690229415894,-0.027319304645061493,9.791434288024902,0.0015370192362269886,-0.009389935657780304,-0.0009794834711641602,0.5600335597991943,2019-08-07 13:16:08:830,-118.7485651910821,-41.58823756584269,0,-32.836631774902344,27.438827514648438,-87.11453247070312
0.07833465933799744,-0.05366155132651329,9.798619270324707,0.0007378757884407334,-0.00246402556023749,0.0011515656795867992,0.5700020790100098,2019-08-07 13:16:08:840,-119.96305391580768,-44.35061035114313,0,-32.836631774902344,27.438827514648438,-87.11453247070312
0.07115040719509125,-0.029714053496718407,9.822566032409668,0.0020697814914054373,-0.006193361606560959,-0.005507962770218141,0.5800020694732666,2019-08-07 13:16:08:850,-121.15201490643872,-47.06129384610804,0,-32.836631774902344,27.438827514648438,-87.11453247070312
0.049597661942243576,0.001417691819369793,9.851303100585938,-6.126766340918298e-05,-0.006992504989328633,-0.0012458645987533845,0.5900239944458008,2019-08-07 13:16:08:860,-122.3192705061346,-42.52019839969075,0,-32.836631774902344,27.438827514648438,-87.11453247070312
0.06636090576648712,-0.005766557063907385,9.824960708618164,0.0007378757884407334,0.0009989292934781736,-0.004975200515039691,0.600006103515625,2019-08-07 13:16:08:870,-123.46570522972489,-45.26953543536858,0,-31.787057876586914,26.38925552368164,-86.66471099853516
0.08791365474462509,0.027759937569499016,9.839329719543457,-0.00032764881944403687,-0.007258886116917857,-0.004708819387450467,0.6100220680236816,2019-08-07 13:16:08:880,-124.58207036828132,-40.767193449224465,0,-31.787057876586914,26.38925552368164,-86.66471099853516
0.1262296438217163,0.010996690951287746,9.832145690917969,0.001803400363816213,-0.0016648821774698163,-0.0041760571322720175,0.6200141906738281,2019-08-07 13:16:08:890,-125.6747838809445,-36.354143029744236,0,-31.787057876586914,26.38925552368164,-86.66471099853516
0.061571408063173294,-0.041687801480293274,9.829751014709473,0.0020697814914054373,-0.007791648372096307,-0.0033769137495043436,0.6299970149993896,2019-08-07 13:16:08:900,-126.74974304724456,-39.22336057375398,0,-31.787057876586914,26.38925552368164,-86.66471099853516
0.09988740086555481,-0.0009770578471943736,9.8034086227417,0.0012706381086377639,-0.005394218223793286,-0.005774343897807364,0.6400065422058105,2019-08-07 13:16:08:910,-127.80004106955016,-42.039493295768786,0,-31.787057876586914,26.38925552368164,-86.66471099853516
0.09509790688753128,-0.02492455393075943,9.812987327575684,0.0020697814914054373,-0.001132119922291367,-0.007106249535753488,0.6500303745269775,2019-08-07 13:16:08:920,-128.8322983002171,-44.79695781041427,0,-31.787057876586914,26.38925552368164,-86.66471099853516
0.061571408063173294,-0.012950805947184563,9.841724395751953,0.0034016871293515603,0.0028635972516213265,-0.0033769137495043436,0.6599986553192139,2019-08-07 13:16:08:930,-129.8500862016238,-47.501414719531624,0,-31.787057876586914,26.38925552368164,-86.66471099853516
0.09270315617322922,0.013391440734267235,9.777066230773926,0.0012706381086377639,-0.0021976444326482656,-0.0020450079815210586,0.6699931621551514,2019-08-07 13:16:08:940,-130.84098628498666,-42.953669030148795,0,-31.787057876586914,26.38925552368164,-86.66471099853516
0.08551890403032303,-0.041687801480293274,9.805803298950195,-0.0011267922997395827,-0.004328693453362062,-0.003643294877093568,0.6799931526184082,2019-08-07 13:16:08:950,-131.8117424382364,-45.68909131064116,0,-31.787057876586914,26.38925552368164,-86.66471099853516
0.10946640372276306,-0.02492455393075943,9.772276878356934,0.00020511348449834825,-0.0048614559686148365,-0.00257777036673667,0.6899826526641846,2019-08-07 13:16:08:960,-132.7599450549337,-48.37250184064666,0,-31.787057876586914,26.38925552368164,-86.66471099853516
0.09030840545892715,0.00620719138532877,9.8034086227417,0.0010042569160299579,-0.004062312325772837,-0.00018034003963255039,0.6999971866607666,2019-08-07 13:16:08:970,-133.6919060494988,-43.806342067718674,0,-31.787057876586914,26.38925552368164,-86.66471099853516
0.09030840545892715,-0.022529805079102516,9.863277435302734,-0.0005940299795425521,-0.005926980478971734,0.0011515656795867992,0.7099831104278564,2019-08-07 13:16:08:980,-134.6042528840613,-46.52726464060526,0,-31.787057876586914,26.38925552368164,-86.66471099853516
0.09030840545892715,0.02297043986618519,9.796224594116211,0.0012706381086377639,-0.005926980478971734,0.0032826149603749208,0.7199852466583252,2019-08-07 13:16:08:990,-135.49827557703028,-42.00011992925447,0,-31.787057876586914,26.38925552368164,-86.66471099853516
0.08791365474462509,-0.027319304645061493,9.810592651367188,-0.004589746958399502,-0.0027304066878267143,0.0022170901899436976,0.7299847602844238,2019-08-07 13:16:09:000,-136.37650863656688,-44.75434952596457,0,-31.33724021911621,28.038583755493164,-88.61392211914062
0.08791365474462509,-0.029714053496718407,9.84411907196045,0.0012706381086377639,-0.0021976444326482656,0.0008851845519975746,0.7400398254394531,2019-08-07 13:16:09:011,-137.237504280218,-47.45652103887842,0,-31.33724021911621,28.038583755493164,-88.61392211914062
0.049597661942243576,-0.029714053496718407,9.810592651367188,0.00393444938453001,-0.00912355401004243,-0.0020450079815210586,0.7500133514404297,2019-08-07 13:16:09:020,-138.08185174218548,-50.106123250427004,0,-31.33724021911621,28.038583755493164,-88.61392211914062
0.06636090576648712,-0.00816130731254816,9.860882759094238,0.00047149462834221814,-0.002996787815415939,0.0022170901899436976,0.7599990367889404,2019-08-07 13:16:09:030,-138.91082285774309,-52.70331673929577,0,-31.33724021911621,28.038583755493164,-88.61392211914062
0.09030840545892715,-0.005766557063907385,9.827356338500977,-0.0024586979376857053,-0.004328693453362062,-0.0015122457263426093,0.7700283527374268,2019-08-07 13:16:09:040,-139.71963863477063,-55.24719339435859,0,-31.33724021911621,28.038583755493164,-88.61392211914062
0.04001866281032562,-0.010556057095527649,9.841724395751953,0.0055327364101396825,-0.006459742734150184,0.0027498524451221467,0.7800471782684326,2019-08-07 13:16:09:051,-140.51695237244795,-57.74413291078039,0,-31.33724021911621,28.038583755493164,-88.61392211914062
0.049597661942243576,0.001417691819369793,9.798619270324707,0.00020511348449834825,-0.004062312325772837,-0.0015122457263426093,0.7900271415710449,2019-08-07 13:16:09:060,-141.29853668216225,-52.989530987034904,0,-31.33724021911621,28.038583755493164,-88.61392211914062
0.09509790688753128,-0.020135056227445602,9.834540367126465,-0.0013931734273288073,-0.0027304066878267143,-0.0015122457263426093,0.8000278472900391,2019-08-07 13:16:09:070,-142.0599523067866,-55.5266119239772,0,-31.33724021911621,28.038583755493164,-88.61392211914062
0.08312415331602097,-0.041687801480293274,9.824960708618164,0.0015370192362269886,0.0004661670057904337,-0.002844151494325895,0.8100438117980957,2019-08-07 13:16:09:081,-142.809320634585,-58.01208194930513,0,-31.33724021911621,28.038583755493164,-88.61392211914062
0.03762391209602356,0.020575689151883125,9.805803298950195,-0.0016595545549180318,-0.0013985010498805918,-0.0007131023435749355,0.8200480937957764,2019-08-07 13:16:09:091,-143.54795188428747,-53.25331256494673,0,-31.33724021911621,28.038583755493164,-88.61392211914062
0.04480816051363945,-0.0009770578471943736,9.839329719543457,-0.0019259356825072562,0.0009989292934781736,-0.002844151494325895,0.8300435543060303,2019-08-07 13:16:09:101,-144.2723350430218,-55.78705160342533,0,-31.33724021911621,28.038583755493164,-88.61392211914062
0.07115040719509125,-0.012950805947184563,9.839329719543457,-0.00032764881944403687,-0.0037959311981836125,0.0008851845519975746,0.8400509357452393,2019-08-07 13:16:09:111,-144.9764691296192,-58.2696181753327,0,-31.33724021911621,28.038583755493164,-88.61392211914062
0.06875565648078918,-0.015345555730164051,9.892014503479004,0.001803400363816213,-0.005394218223793286,-0.0031105326219151193,0.8500316143035889,2019-08-07 13:16:09:120,-145.66595205481974,-60.70345879621516,0,-32.836631774902344,28.038583755493164,-88.61392211914062
0.06396616250276566,0.0038124416023492813,9.791434288024902,-0.0016595545549180318,-0.008857173402601856,-0.0033769137495043436,0.8600418567657471,2019-08-07 13:16:09:131,-146.3401686185131,-55.88890300761215,0,-32.836631774902344,28.038583755493164,-88.61392211914062
0.05199240893125534,0.01578618958592415,9.793828964233398,0.0015370192362269886,-0.0048614559686148365,-0.005507962770218141,0.8700318336486816,2019-08-07 13:16:09:140,-147.00455502692964,-51.17383415983011,0,-32.836631774902344,28.038583755493164,-88.61392211914062
0.025650164112448692,-0.022529805079102516,9.839329719543457,-0.002192316810096481,-0.0075252672445070825,-0.0068398684081642635,0.8800334930419922,2019-08-07 13:16:09:150,-147.6572505155224,-53.746502410546775,0,-32.836631774902344,28.038583755493164,-88.61392211914062
0.06636090576648712,-0.015345555730164051,9.810592651367188,0.00020511348449834825,-0.0037959311981836125,-0.005241581642628916,0.890042781829834,2019-08-07 13:16:09:161,-148.29422102007567,-56.26989522079519,0,-32.836631774902344,28.038583755493164,-88.61392211914062
0.054387159645557404,-0.0009770578471943736,9.820171356201172,0.0028689248741731116,-0.006459742734150184,-0.007639012311080588,0.9000225067138672,2019-08-07 13:16:09:170,-148.9183704453456,-58.745990934819616,0,-32.836631774902344,28.038583755493164,-88.61392211914062
0.054387159645557404,-0.029714053496718407,9.8034086227417,0.00047149462834221814,-0.003263168943005164,-0.007372630663342713,0.9100348949432373,2019-08-07 13:16:09:181,-149.5318112786664,-61.16786293728983,0,-32.836631774902344,28.038583755493164,-88.61392211914062
0.08551890403032303,-0.02492455393075943,9.822566032409668,0.0015370192362269886,-0.006459742734150184,-0.009237299076615935,0.9200365543365479,2019-08-07 13:16:09:191,-150.12757080026338,-63.54246112558829,0,-32.836631774902344,28.038583755493164,-88.61392211914062
0.08312415331602097,-0.012950805947184563,9.8034086227417,-0.0005940299795425521,-0.0013985010498805918,-0.00604072502539659,0.9302451610565186,2019-08-07 13:16:09:201,-150.71450163847632,-65.86975758560844,0,-32.836631774902344,28.038583755493164,-88.61392211914062
0.049597661942243576,0.001417691819369793,9.832145690917969,0.0012706381086377639,-0.0019312633050590406,-0.005774343897807364,0.9402101039886475,2019-08-07 13:16:09:211,-151.29335055299714,-60.95323862323202,0,-32.836631774902344,28.038583755493164,-88.61392211914062
0.05917666107416153,0.02297043986618519,9.86567211151123,-0.0024586979376857053,-0.004595074841025611,-0.00950367968405651,0.9501988887786865,2019-08-07 13:16:09:221,-151.85803291396684,-56.13546289669709,0,-32.836631774902344,28.038583755493164,-88.61392211914062
0.08551890403032303,-0.0464773029088974,9.836935043334961,0.002336162618994662,-0.004328693453362062,-0.010835585842151283,0.9602251052856445,2019-08-07 13:16:09:231,-152.40847338610854,-58.60865467702174,0,-32.836631774902344,28.038583755493164,-88.61392211914062
0.10228215157985687,0.013391440734267235,9.812987327575684,0.001803400363816213,-0.004328693453362062,-0.0041760571322720175,0.9701998233795166,2019-08-07 13:16:09:241,-152.94593590043092,-53.83905542024138,0,-32.836631774902344,28.038583755493164,-88.61392211914062
0.05917666107416153,0.013391440734267235,9.791434288024902,0.002336162618994662,-0.0027304066878267143,-0.014564921628400425,0.9800474643707275,2019-08-07 13:16:09:251,-153.47858191565265,-49.16513331044728,0,-32.836631774902344,28.038583755493164,-88.61392211914062
0.09030840545892715,-0.022529805079102516,9.820171356201172,-0.002192316810096481,-0.00566059935138251,-0.005507962770218141,0.9904189109802246,2019-08-07 13:16:09:261,-153.99517600832647,-51.77792493901895,0,-32.836631774902344,28.038583755493164,-88.61392211914062
0.08791365474462509,-0.00337180751375854,9.832145690917969,0.00020511348449834825,-0.00246402556023749,-0.010036441939234959,0.9999797344207764,2019-08-07 13:16:09:270,-154.50370382756788,-54.342083576191115,0,-32.836631774902344,28.038583755493164,-88.61392211914062
0.11665065586566925,-0.027319304645061493,9.817776679992676,0.002336162618994662,-0.0021976444326482656,-0.003643294877093568,1.0100977420806885,2019-08-07 13:16:09:281,-154.9987665727403,-56.85338047805562,0,-32.836631774902344,28.038583755493164,-88.61392211914062
0.06636090576648712,-0.022529805079102516,9.820171356201172,-0.00032764881944403687,-0.00246402556023749,-0.003909676004682793,1.0199804306030273,2019-08-07 13:16:09:290,-155.489680390043,-59.31350205448763,0,-32.836631774902344,28.038583755493164,-88.61392211914062
0.06875565648078918,-0.0009770578471943736,9.820171356201172,0.004200830512119234,-0.0037959311981836125,-0.00604072502539659,1.0300874710083008,2019-08-07 13:16:09:301,-155.96970959231635,-61.7295020094239,0,-32.836631774902344,28.038583755493164,-88.61392211914062
0.107071653008461,-0.02492455393075943,9.870461463928223,0.00047149462834221814,-0.004328693453362062,-0.007106249535753488,1.0399837493896484,2019-08-07 13:16:09:310,-156.43548001171942,-64.0922803458996,0,-32.836631774902344,28.038583755493164,-88.61392211914062
0.09988740086555481,-0.027319304645061493,9.836935043334961,0.0034016871293515603,-0.005926980478971734,0.00061880342440835,1.0499982833862305,2019-08-07 13:16:09:320,-156.89180198771587,-66.40916510949056,0,-32.836631774902344,28.038583755493164,-88.61392211914062
0.12383490055799484,-0.012950805947184563,9.784250259399414,0.00393444938453001,-0.004062312325772837,-0.0012458645987533845,1.0599827766418457,2019-08-07 13:16:09:330,-157.33718593294998,-68.68167079295186,0,-32.836631774902344,28.038583755493164,-88.61392211914062
0.11186115443706512,-0.00337180751375854,9.824960708618164,-0.0011267922997395827,-0.0037959311981836125,-0.0015122457263426093,1.0699844360351562,2019-08-07 13:16:09:340,-157.77526430127924,-70.90701131542565,0,-32.836631774902344,28.038583755493164,-88.61392211914062
0.11904539912939072,-0.012950805947184563,9.755513191223145,0.00020511348449834825,-0.006193361606560959,0.0032826149603749208,1.079984188079834,2019-08-07 13:16:09:350,-158.20229875599128,-73.08746501260786,0,-32.836631774902344,28.038583755493164,-88.61392211914062
0.11665065586566925,0.008601941168308258,9.824960708618164,0.00047149462834221814,-0.0048614559686148365,-0.0007131023435749355,1.0899815559387207,2019-08-07 13:16:09:360,-158.6219191104956,-68.02698365704154,0,-32.836631774902344,28.038583755493164,-88.61392211914062
0.10946640372276306,-0.020135056227445602,9.84411907196045,0.0034016871293515603,-0.0048614559686148365,-0.00018034003963255039,1.0999879837036133,2019-08-07 13:16:09:370,-159.0340072399298,-70.2660114140593,0,-31.487178802490234,26.989011764526367,-87.86422729492188
0.09030840545892715,-0.01774030551314354,9.841724395751953,-0.0013931734273288073,-0.004328693453362062,0.00035242226430983473,1.1099846363067627,2019-08-07 13:16:09:380,-159.44038264046088,-72.45784360249024,0,-31.487178802490234,26.989011764526367,-87.86422729492188
0.07354515790939331,-0.005766557063907385,9.827356338500977,0.001803400363816213,-0.0037959311981836125,-0.00018034003963255039,1.119978904724121,2019-08-07 13:16:09:390,-159.84086925070162,-74.60902634953126,0,-31.487178802490234,26.989011764526367,-87.86422729492188
0.10228215157985687,0.008601941168308258,9.791434288024902,0.0028689248741731116,-0.00246402556023749,-0.00018034003963255039,1.1299810409545898,2019-08-07 13:16:09:400,-160.23069812722943,-69.5194637701099,0,-31.487178802490234,26.989011764526367,-87.86422729492188
0.11425590515136719,0.00620719138532877,9.848908424377441,0.003668068256940785,-0.0027304066878267143,0.0016843279347652483,1.1399755477905273,2019-08-07 13:16:09:410,-160.61125886585413,-64.53185518219284,0,-31.487178802490234,26.989011764526367,-87.86422729492188
0.09509790688753128,0.008601941168308258,9.798619270324707,0.003668068256940785,-0.005127837096204061,8.60411123386422e-05,1.1499888896942139,2019-08-07 13:16:09:420,-160.98502954206268,-59.644286409652665,0,-31.487178802490234,26.989011764526367,-87.86422729492188
0.06636090576648712,0.01578618958592415,9.858488082885742,0.0015370192362269886,-0.003263168943005164,0.0011515656795867992,1.1599786281585693,2019-08-07 13:16:09:430,-161.3557851273304,-54.85409775902471,0,-31.487178802490234,26.989011764526367,-87.86422729492188
0.06636090576648712,0.008601941168308258,9.81538200378418,0.0028689248741731116,-0.003529550070594388,-0.0012458645987533845,1.169990062713623,2019-08-07 13:16:09:440,-161.71893800794845,-50.15963279310302,0,-31.487178802490234,26.989011764526367,-87.86422729492188
0.07593990862369537,-0.012950805947184563,9.791434288024902,0.001803400363816213,-0.007791648372096307,0.0014179468071760237,1.179976463317871,2019-08-07 13:16:09:450,-162.07130294183847,-52.75593570327995,0,-31.487178802490234,26.989011764526367,-87.86422729492188
0.05199240893125534,-0.015345555730164051,9.827356338500977,0.00047149462834221814,-0.0075252672445070825,-0.0031105326219151193,1.1899800300598145,2019-08-07 13:16:09:460,-162.4195874477385,-55.299292465308326,0,-31.487178802490234,26.989011764526367,-87.86422729492188
0.08312415331602097,-0.02492455393075943,9.836935043334961,0.0010042569160299579,-0.0013985010498805918,-0.0007131023435749355,1.1999824047088623,2019-08-07 13:16:09:470,-162.760727260546,-57.79096715578375,0,-31.487178802490234,26.989011764526367,-87.86422729492188
0.054387159645557404,-0.020135056227445602,9.851303100585938,0.003668068256940785,-0.004328693453362062,-0.005241581642628916,1.2099792957305908,2019-08-07 13:16:09:480,-163.09675659904445,-60.23486465663949,0,-31.487178802490234,26.989011764526367,-87.86422729492188
0.09749265760183334,-0.036898303776979446,9.834540367126465,0.002336162618994662,0.00019978586194656375,-0.007372630663342713,1.2199807167053223,2019-08-07 13:16:09:490,-163.4235742402245,-62.62717995081209,0,-31.487178802490234,26.989011764526367,-87.86422729492188
0.04480816051363945,-0.04408255219459534,9.777066230773926,-0.002192316810096481,-0.006193361606560959,-0.008171774566259036,1.2299885749816895,2019-08-07 13:16:09:500,-163.74637077986563,-64.96823776563635,0,-32.836631774902344,27.438827514648438,-88.01416015625
0.07115040719509125,0.001417691819369793,9.827356338500977,-0.004323365830810277,-0.0016648821774698163,-0.00950367968405651,1.239966869354248,2019-08-07 13:16:09:510,-164.06221423988276,-60.066616024950804,0,-32.836631774902344,27.438827514648438,-88.01416015625
0.06875565648078918,0.020575689151883125,9.777066230773926,-0.0013931734273288073,-0.00246402556023749,-0.007639012311080588,1.249988317489624,2019-08-07 13:16:09:520,-164.3715251051323,-55.26691132025767,0,-32.836631774902344,27.438827514648438,-88.01416015625
0.061571408063173294,-0.01774030551314354,9.829751014709473,0.0055327364101396825,-0.005926980478971734,-0.005241581642628916,1.2599811553955078,2019-08-07 13:16:09:530,-164.67359132461453,-57.76260939663775,0,-32.836631774902344,27.438827514648438,-88.01416015625
0.10946640372276306,-0.0009770578471943736,9.822566032409668,0.0028689248741731116,-0.006726123861739408,-0.007106249535753488,1.270007848739624,2019-08-07 13:16:09:540,-164.9635627178389,-60.20885842107798,0,-32.836631774902344,27.438827514648438,-88.01416015625
0.06636090576648712,0.008601941168308258,9.793828964233398,0.0034016871293515603,-0.0037959311981836125,-0.008438155693848261,1.2799789905548096,2019-08-07 13:16:09:550,-165.25440184221114,-55.40759224319744,0,-32.836631774902344,27.438827514648438,-88.01416015625
0.049597661942243576,-0.03450355306267738,9.8034086227417,0.002602543746583887,-0.0037959311981836125,-0.010569204194413408,1.2899842262268066,2019-08-07 13:16:09:560,-165.54138388249137,-57.89686940159026,0,-32.836631774902344,27.438827514648438,-88.01416015625
0.05678191035985947,-0.01774030551314354,9.808197975158691,-0.0016595545549180318,-0.0019312633050590406,-0.0068398684081642635,1.2999827861785889,2019-08-07 13:16:09:570,-165.82283806490264,-60.3359276694051,0,-32.836631774902344,27.438827514648438,-88.01416015625
0.10946640372276306,0.0038124416023492813,9.824960708618164,-0.002192316810096481,-0.007258886116917857,-0.003909676004682793,1.3099846839904785,2019-08-07 13:16:09:580,-166.08953779804182,-55.528422556340885,0,-32.836631774902344,27.438827514648438,-88.01416015625
0.05678191035985947,0.00620719138532877,9.805803298950195,0.0020697814914054373,-0.006992504989328633,-0.005507962770218141,1.3199803829193115,2019-08-07 13:16:09:590,-166.35718693435857,-50.81974116309264,0,-32.836631774902344,27.438827514648438,-88.01416015625
0.06636090576648712,0.008601941168308258,9.832145690917969,-0.004323365830810277,-0.004595074841025611,-0.007106249535753488,1.329984188079834,2019-08-07 13:16:09:600,-166.6197279811621,-46.20192038969646,0,-32.836631774902344,27.438827514648438,-88.01416015625
0.09749265760183334,0.04691793769598007,9.834540367126465,0.002336162618994662,-0.003529550070594388,-0.0009794834711641602,1.3399791717529297,2019-08-07 13:16:09:610,-166.87399315586254,-41.6846598885343,0,-32.836631774902344,27.438827514648438,-88.01416015625
0.07354515790939331,-0.03929305449128151,9.78664493560791,-0.0019259356825072562,0.0007325481658889489,0.0014179468071760237,1.3499767780303955,2019-08-07 13:16:09:620,-167.12831329867112,-44.44528475103016,0,-32.836631774902344,28.33846092224121,-87.4144058227539
0.11186115443706512,-0.036898303776979446,9.8848295211792,0.0055327364101396825,-0.0027304066878267143,-0.002844151494325895,1.3599882125854492,2019-08-07 13:16:09:630,-167.37124501988765,-47.15521175382061,0,-32.836631774902344,28.33846092224121,-87.4144058227539
0.061571408063173294,-0.041687801480293274,9.853697776794434,-0.0008604111071317767,-0.007258886116917857,-0.0041760571322720175,1.3699817657470703,2019-08-07 13:16:09:640,-167.61258666491324,-49.80677674201723,0,-32.836631774902344,28.33846092224121,-87.4144058227539
0.09030840545892715,-0.04408255219459534,9.810592651367188,-0.004056984703221053,-0.0075252672445070825,-0.0017786268539318336,1.3799877166748047,2019-08-07 13:16:09:650,-167.84555891275406,-52.40321288032313,0,-32.836631774902344,28.33846092224121,-87.4144058227539
0.04480816051363945,-0.02492455393075943,9.796224594116211,-0.00032764881944403687,-0.004328693453362062,-0.0015122457263426093,1.3899812698364258,2019-08-07 13:16:09:660,-168.080977337785,-54.9520492179067,0,-32.836631774902344,28.33846092224121,-87.4144058227539
0.08312415331602097,-0.010556057095527649,9.848908424377441,0.00047149462834221814,-0.00965631626522088,-0.0015122457263426093,1.39998197555542,2019-08-07 13:16:09:670,-168.30426417573466,-57.45204480430856,0,-32.836631774902344,28.33846092224121,-87.4144058227539
0.08551890403032303,0.010996690951287746,9.846513748168945,0.002602543746583887,-0.00566059935138251,-0.004708819387450467,1.409982442855835,2019-08-07 13:16:09:680,-168.52504807333764,-52.70574507143105,0,-32.836631774902344,28.33846092224121,-87.4144058227539
0.05678191035985947,-0.05605630204081535,9.817776679992676,0.0007378757884407334,-0.005394218223793286,-0.004708819387450467,1.4199800491333008,2019-08-07 13:16:09:690,-168.74489156852866,-55.2455016539813,0,-32.836631774902344,28.33846092224121,-87.4144058227539
0.05199240893125534,0.01818094030022621,9.86567211151123,0.0012706381086377639,-0.0019312633050590406,-0.0007131023435749355,1.429980754852295,2019-08-07 13:16:09:700,-168.96287030284913,-50.543416879402,0,-32.836631774902344,28.33846092224121,-87.4144058227539
0.04720291122794151,-0.015345555730164051,9.880040168762207,0.003135306001762336,-0.004062312325772837,-0.004442438259861242,1.4399802684783936,2019-08-07 13:16:09:710,-169.1758573365877,-53.13252910580572,0,-32.836631774902344,28.33846092224121,-87.4144058227539
0.06396616250276566,0.013391440734267235,9.805803298950195,0.003668068256940785,-0.0019312633050590406,0.0016843279347652483,1.4499826431274414,2019-08-07 13:16:09:720,-169.38378048948078,-48.47350356376227,0,-32.836631774902344,28.33846092224121,-87.4144058227539
0.0807294100522995,-0.015345555730164051,9.820171356201172,0.0055327364101396825,-0.0019312633050590406,-0.004708819387450467,1.4599831104278564,2019-08-07 13:16:09:730,-169.5856003263311,-51.10534959050539,0,-32.836631774902344,28.33846092224121,-87.4144058227539
0.07354515790939331,0.008601941168308258,9.738750457763672,-0.0008604111071317767,-0.003529550070594388,-0.004442438259861242,1.4699809551239014,2019-08-07 13:16:09:740,-169.78325334121655,-46.483771735174344,0,-32.836631774902344,28.33846092224121,-87.4144058227539
0.054387159645557404,0.008601941168308258,9.798619270324707,0.006331879792907356,-0.0037959311981836125,-0.003643294877093568,1.479980230331421,2019-08-07 13:16:09:750,-169.97909668846464,-41.958657352519694,0,-31.187301635742188,28.488401412963867,-87.56434631347656
0.10946640372276306,-0.01774030551314354,9.832145690917969,0.002602543746583887,-0.002996787815415939,-0.005507962770218141,1.4899797439575195,2019-08-07 13:16:09:760,-170.16507459570008,-44.71887786667533,0,-31.187301635742188,28.488401412963867,-87.56434631347656
0.1334138959646225,-0.027319304645061493,9.822566032409668,0.0055327364101396825,-0.0037959311981836125,-0.003909676004682793,1.4999818801879883,2019-08-07 13:16:09:770,-170.34407792592415,-47.42442049326997,0,-31.187301635742188,28.488401412963867,-87.56434631347656
0.09030840545892715,-0.012950805947184563,9.81538200378418,0.0028689248741731116,-0.008324410627274756,-0.0031105326219151193,1.5099825859069824,2019-08-07 13:16:09:780,-170.52197896185646,-50.07603112870914,0,-31.187301635742188,28.488401412963867,-87.56434631347656
0.09749265760183334,-0.012950805947184563,9.8848295211792,0.001803400363816213,-6.659528596096748e-05,-0.007106249535753488,1.5199809074401855,2019-08-07 13:16:09:790,-170.70020036086422,-52.6740215997856,0,-31.187301635742188,28.488401412963867,-87.56434631347656
0.10467690229415894,-0.0009770578471943736,9.817776679992676,0.0015370192362269886,-0.004062312325772837,-0.0012458645987533845,1.5299804210662842,2019-08-07 13:16:09:800,-170.87169821980774,-55.22129011935524,0,-31.187301635742188,28.488401412963867,-87.56434631347656
0.10467690229415894,-0.015345555730164051,9.839329719543457,0.0012706381086377639,-0.003263168943005164,-0.0009794834711641602,1.5399935245513916,2019-08-07 13:16:09:810,-171.04023908752353,-57.71579152894787,0,-31.187301635742188,28.488401412963867,-87.56434631347656
0.11425590515136719,-0.05366155132651329,9.863277435302734,0.003668068256940785,-0.0016648821774698163,-0.004442438259861242,1.549978494644165,2019-08-07 13:16:09:820,-171.20522722417053,-60.15729788050148,0,-31.187301635742188,28.488401412963867,-87.56434631347656
0.12862439453601837,-0.027319304645061493,9.801013946533203,0.003668068256940785,-0.0019312633050590406,-0.0033769137495043436,1.5599780082702637,2019-08-07 13:16:09:830,-171.36500067859433,-62.55301732607523,0,-31.187301635742188,28.488401412963867,-87.56434631347656
0.11425590515136719,-0.0009770578471943736,9.777066230773926,0.0015370192362269886,-0.0037959311981836125,-0.0007131023435749355,1.5699794292449951,2019-08-07 13:16:09:840,-171.52217826190903,-64.90270562087909,0,-31.187301635742188,28.488401412963867,-87.56434631347656
0.09988740086555481,-0.015345555730164051,9.820171356201172,0.0020697814914054373,-0.005127837096204061,-0.007106249535753488,1.5799846649169922,2019-08-07 13:16:09:850,-171.6771984588639,-67.20402362531169,0,-31.187301635742188,28.488401412963867,-87.56434631347656
0.12862439453601837,0.00620719138532877,9.832145690917969,0.0010042569160299579,-0.004328693453362062,0.0014179468071760237,1.5899817943572998,2019-08-07 13:16:09:860,-171.8262345884073,-62.261230314638084,0,-31.187301635742188,28.488401412963867,-87.56434631347656
0.11665065586566925,-0.00816130731254816,9.834540367126465,0.0020697814914054373,-0.008857173402601856,-0.0023113892391474454,1.5999791622161865,2019-08-07 13:16:09:870,-171.97114647775763,-64.616216630818,0,-32.38681411743164,28.488401412963867,-86.96459197998047
0.1405981481075287,-0.010556057095527649,9.77467155456543,0.004467211899782784,-0.003529550070594388,0.0016843279347652483,1.6099839210510254,2019-08-07 13:16:09:880,-172.11325913956318,-66.92516430587716,0,-32.38681411743164,28.488401412963867,-86.96459197998047
0.12383490055799484,0.00620719138532877,9.781855583190918,0.0012706381086377639,-0.0027304066878267143,-0.0012458645987533845,1.6199865341186523,2019-08-07 13:16:09:890,-172.25495431732202,-61.98810182186422,0,-32.38681411743164,28.488401412963867,-86.96459197998047
0.08312415331602097,0.02297043986618519,9.820171356201172,0.0055327364101396825,-0.002996787815415939,0.0008851845519975746,1.629979133605957,2019-08-07 13:16:09:900,-172.39847425991363,-57.154124525590646,0,-32.38681411743164,28.488401412963867,-86.96459197998047
0.08551890403032303,-0.01774030551314354,9.848908424377441,0.0034016871293515603,-0.006193361606560959,-0.002844151494325895,1.6399857997894287,2019-08-07 13:16:09:910,-172.53707506055287,-59.61088927756334,0,-32.38681411743164,28.488401412963867,-86.96459197998047
0.09030840545892715,-0.01774030551314354,9.760302543640137,0.0028689248741731116,-0.00859079175486398,0.0027498524451221467,1.6500048637390137,2019-08-07 13:16:09:920,-172.67089822249406,-62.01820264894237,0,-32.38681411743164,28.488401412963867,-86.96459197998047
0.07354515790939331,-0.03929305449128151,9.84411907196045,-0.0005940299795425521,-0.003529550070594388,-0.005241581642628916,1.6600010395050049,2019-08-07 13:16:09:930,-172.80693823204638,-64.3729312492311,0,-32.38681411743164,28.488401412963867,-86.96459197998047
0.107071653008461,0.03015468828380108,9.84411907196045,-0.0029914601928641544,-0.00859079175486398,-0.00018034003963255039,1.670034408569336,2019-08-07 13:16:09:941,-172.93349635026598,-59.48729749734382,0,-32.38681411743164,28.488401412963867,-86.96459197998047
0.06636090576648712,0.027759937569499016,9.817776679992676,0.00047149462834221814,-6.659528596096748e-05,-0.0015122457263426093,1.6800141334533691,2019-08-07 13:16:09:950,-173.06704368238994,-54.70105584222506,0,-32.38681411743164,28.488401412963867,-86.96459197998047
0.08551890403032303,-0.027319304645061493,9.853697776794434,0.004733593027372009,-0.004062312325772837,-0.0012458645987533845,1.6900110244750977,2019-08-07 13:16:09:960,-173.1934775390467,-57.20651477067757,0,-32.38681411743164,28.488401412963867,-86.96459197998047
0.07833465933799744,0.013391440734267235,9.801013946533203,0.0034016871293515603,-0.0075252672445070825,-0.00257777036673667,1.70001220703125,2019-08-07 13:16:09:970,-173.3162235194517,-52.465860444201674,0,-32.38681411743164,28.488401412963867,-86.96459197998047
0.05678191035985947,0.0038124416023492813,9.808197975158691,0.006331879792907356,-0.001132119922291367,-0.0023113892391474454,1.7100152969360352,2019-08-07 13:16:09:980,-173.44262927446647,-47.82054509256101,0,-32.38681411743164,28.488401412963867,-86.96459197998047
0.0807294100522995,-0.020135056227445602,9.822566032409668,0.0020697814914054373,-0.003263168943005164,-0.0004467211834764202,1.7200126647949219,2019-08-07 13:16:09:990,-173.56252710182042,-50.462947081105476,0,-32.38681411743164,28.488401412963867,-86.96459197998047
0.04001866281032562,0.020575689151883125,9.777066230773926,0.001803400363816213,-0.003529550070594388,0.00061880342440835,1.7300059795379639,2019-08-07 13:16:10:000,-173.6846057082876,-45.85711162798199,0,-32.38681411743164,28.488401412963867,-86.96459197998047
0.061571408063173294,0.020575689151883125,9.796224594116211,-0.004856128085988727,-0.0019312633050590406,-0.007639012311080588,1.740011215209961,2019-08-07 13:16:10:010,-173.80262639008373,-41.33964810085322,0,-32.38681411743164,28.488401412963867,-86.96459197998047
0.09270315617322922,-0.005766557063907385,9.846513748168945,-0.00032764881944403687,-0.0013985010498805918,-0.0007131023435749355,1.750006914138794,2019-08-07 13:16:10:020,-173.9150006731312,-44.112000144460836,0,-32.38681411743164,28.488401412963867,-86.96459197998047
0.042413413524627686,-0.015345555730164051,9.827356338500977,-0.0013931734273288073,-0.0037959311981836125,-0.0031105326219151193,1.7600111961364746,2019-08-07 13:16:10:030,-174.02962276564227,-46.827188179696826,0,-32.38681411743164,28.488401412963867,-86.96459197998047
0.07593990862369537,-0.02492455393075943,9.872856140136719,0.006331879792907356,-0.00859079175486398,-0.00257777036673667,1.770012378692627,2019-08-07 13:16:10:040,-174.13539205695122,-49.49130725931402,0,-32.38681411743164,28.488401412963867,-86.96459197998047
0.028044912964105606,-0.020135056227445602,9.808197975158691,0.0020697814914054373,-0.004595074841025611,0.0014179468071760237,1.7800099849700928,2019-08-07 13:16:10:050,-174.24682815878907,-52.1002905912094,0,-32.38681411743164,28.488401412963867,-86.96459197998047
0.004097416531294584,-0.027319304645061493,9.781855583190918,0.001803400363816213,0.0007325481658889489,0.00035242226430983473,1.7900042533874512,2019-08-07 13:16:10:060,-174.3618226843989,-54.656096438043264,0,-32.38681411743164,28.488401412963867,-86.96459197998047
0.03283441439270973,0.001417691819369793,9.77467155456543,-0.0016595545549180318,-0.0013985010498805918,0.003016233572711371,1.8000092506408691,2019-08-07 13:16:10:070,-174.4699513143319,-49.96220840647955,0,-32.38681411743164,28.488401412963867,-86.96459197998047
-0.00787633191794157,0.00620719138532877,9.860882759094238,0.002336162618994662,-0.0027304066878267143,-0.004975200515039691,1.8100111484527588,2019-08-07 13:16:10:080,-167.3799341717317,-45.364997565967286,0,-32.38681411743164,28.488401412963867,-86.96459197998047
-0.0030868323519825935,-0.020135056227445602,9.848908424377441,0.0028689248741731116,-0.0075252672445070825,-0.0009794834711641602,1.820012092590332,2019-08-07 13:16:10:090,-160.42846881343607,-48.056965963651045,0,-32.38681411743164,28.488401412963867,-86.96459197998047
0.028044912964105606,-0.0464773029088974,9.853697776794434,0.00020511348449834825,-0.0048614559686148365,0.0038153772155533703,1.8300118446350098,2019-08-07 13:16:10:100,-160.81390838706488,-50.69053686984867,0,-32.38681411743164,28.488401412963867,-86.96459197998047
0.020860664546489716,-0.010556057095527649,9.805803298950195,-0.0019259356825072562,-0.003529550070594388,-0.0007131023435749355,1.8400318622589111,2019-08-07 13:16:10:110,-161.19320662097968,-53.27440896696744,0,-32.38681411743164,28.488401412963867,-86.96459197998047
-0.00787633191794157,-0.00816130731254816,9.863277435302734,0.002336162618994662,-0.00965631626522088,-0.0017786268539318336,1.850006103515625,2019-08-07 13:16:10:120,-154.3648495185915,-55.80928098036911,0,-32.086936950683594,28.788278579711914,-87.56434631347656
0.011281665414571762,-0.012950805947184563,9.777066230773926,0.0020697814914054373,-0.002996787815415939,-0.00018034003963255039,1.8600132465362549,2019-08-07 13:16:10:130,-154.87454637327778,-58.29274047930541,0,-32.086936950683594,28.788278579711914,-87.56434631347656
0.006492166314274073,-0.005766557063907385,9.801013946533203,-0.0013931734273288073,-0.005394218223793286,-0.0007131023435749355,1.8700127601623535,2019-08-07 13:16:10:140,-155.3732676955199,-60.725429228164444,0,-32.086936950683594,28.788278579711914,-87.56434631347656
0.025650164112448692,0.02297043986618519,9.824960708618164,-6.126766340918298e-05,-0.0048614559686148365,-0.003643294877093568,1.8800058364868164,2019-08-07 13:16:10:150,-155.86008287938594,-55.91356537435789,0,-32.086936950683594,28.788278579711914,-87.56434631347656
0.04720291122794151,-0.00337180751375854,9.880040168762207,-0.0016595545549180318,-0.007791648372096307,-0.0009794834711641602,1.890021800994873,2019-08-07 13:16:10:160,-156.3330245490653,-58.39396966965615,0,-32.086936950683594,28.788278579711914,-87.56434631347656
0.0017026669811457396,0.013391440734267235,9.836935043334961,0.00047149462834221814,-0.006193361606560959,0.001950709062354473,1.9000072479248047,2019-08-07 13:16:10:170,-156.80269320930978,-53.627914617551106,0,-32.086936950683594,28.788278579711914,-87.56434631347656
0.049597661942243576,0.03015468828380108,9.820171356201172,0.00047149462834221814,-0.010988222423315652,-0.0020450079815210586,1.9100110530853271,2019-08-07 13:16:10:180,-157.2546796245246,-48.959139908417406,0,-32.086936950683594,28.788278579711914,-87.56434631347656
0.04001866281032562,-0.041687801480293274,9.836935043334961,0.004733593027372009,-0.004062312325772837,-0.0009794834711641602,1.9200077056884766,2019-08-07 13:16:10:190,-157.7026440195533,-51.57775789693205,0,-32.086936950683594,28.788278579711914,-87.56434631347656
0.0352291613817215,-0.005766557063907385,9.808197975158691,-6.126766340918298e-05,-0.006459742734150184,-0.0031105326219151193,1.9300131797790527,2019-08-07 13:16:10:200,-158.14084612609545,-54.14549459766279,0,-32.086936950683594,28.788278579711914,-87.56434631347656
0.006492166314274073,0.0038124416023492813,9.822566032409668,0.004733593027372009,-0.005394218223793286,0.00035242226430983473,1.9400384426116943,2019-08-07 13:16:10:211,-158.57423531970724,-49.4656940916279,0,-32.086936950683594,28.788278579711914,-87.56434631347656
0.01367641519755125,0.025365188717842102,9.789039611816406,0.003668068256940785,-0.0048614559686148365,-0.0023113892391474454,1.9500105381011963,2019-08-07 13:16:10:220,-158.99842755454947,-44.88140334772131,0,-32.086936950683594,28.788278579711914,-87.56434631347656
0.01607116498053074,0.01578618958592415,9.824960708618164,-0.0005940299795425521,-0.0048614559686148365,-0.007639012311080588,1.960005521774292,2019-08-07 13:16:10:230,-159.4138562437907,-40.38528309164844,0,-32.086936950683594,28.788278579711914,-87.56434631347656
0.06396616250276566,0.01578618958592415,9.827356338500977,0.00020511348449834825,-0.00566059935138251,-0.006307106152985815,1.970015048980713,2019-08-07 13:16:10:240,-159.81493902434113,-35.97953345224317,0,-32.086936950683594,28.788278579711914,-87.56434631347656
0.049597661942243576,-0.027319304645061493,9.743539810180664,0.0020697814914054373,-0.005394218223793286,-0.0012458645987533845,1.9800057411193848,2019-08-07 13:16:10:250,-160.20978119886132,-38.8578909279889,0,-32.086936950683594,28.788278579711914,-87.56434631347656
0.0017026669811457396,-0.029714053496718407,9.820171356201172,-0.004589746958399502,-0.0037959311981836125,-0.003909676004682793,1.9900071620941162,2019-08-07 13:16:10:260,-160.60325517764127,-41.67468828485337,0,-32.086936950683594,28.788278579711914,-87.56434631347656
-0.000692082685418427,0.0038124416023492813,9.822566032409668,0.002602543746583887,-0.010988222423315652,-0.0041760571322720175,2.000011444091797,2019-08-07 13:16:10:270,-153.78509829963792,-37.24310123491875,0,-32.086936950683594,28.788278579711914,-87.56434631347656
0.0352291613817215,0.008601941168308258,9.827356338500977,0.004200830512119234,-0.006992504989328633,-0.007639012311080588,2.0100061893463135,2019-08-07 13:16:10:280,-154.30136424781773,-32.901599757577,0,-32.086936950683594,28.788278579711914,-87.56434631347656
0.01607116498053074,-0.0009770578471943736,9.913566589355469,0.002602543746583887,-0.001132119922291367,-0.009770061331794384,2.0200130939483643,2019-08-07 13:16:10:290,-154.8128431653975,-35.844917157434566,0,-32.086936950683594,28.788278579711914,-87.56434631347656
0.05678191035985947,0.025365188717842102,9.851303100585938,-0.0008604111071317767,-0.007791648372096307,-0.011101966449591856,2.030014991760254,2019-08-07 13:16:10:300,-155.30560560392317,-31.53048610609713,0,-32.086936950683594,28.788278579711914,-87.56434631347656
0.07115040719509125,-0.00337180751375854,9.848908424377441,0.00020511348449834825,-0.010721840775577777,-0.011901110352508182,2.040015459060669,2019-08-07 13:16:10:310,-155.78519474107497,-34.49959925218988,0,-32.086936950683594,28.788278579711914,-87.56434631347656
0.05917666107416153,-0.00337180751375854,9.8034086227417,0.00393444938453001,-0.007258886116917857,-0.016429590041673648,2.0500082969665527,2019-08-07 13:16:10:320,-156.25850086407905,-37.41142074398158,0,-32.086936950683594,28.788278579711914,-87.56434631347656
0.01367641519755125,-0.01774030551314354,9.81538200378418,-0.003524222448042604,-0.005127837096204061,-0.013499397118043528,2.060013771057129,2019-08-07 13:16:10:330,-156.72885331882574,-40.259141276030824,0,-32.086936950683594,28.788278579711914,-87.56434631347656
0.03762391209602356,0.020575689151883125,9.836935043334961,-0.0016595545549180318,-0.009922697912958753,-0.012433872607686629,2.070011615753174,2019-08-07 13:16:10:340,-157.18432304159458,-35.85542369532405,0,-32.086936950683594,28.788278579711914,-87.56434631347656
0.0807294100522995,0.020575689151883125,9.808197975158691,-0.0024586979376857053,-0.0075252672445070825,-0.0169623522968521,2.080009937286377,2019-08-07 13:16:10:350,-157.6269802626092,-31.53933880180166,0,-32.086936950683594,28.788278579711914,-87.56434631347656
0.08791365474462509,0.0038124416023492813,9.903987884521484,0.0012706381086377639,-0.007258886116917857,-0.01536406553131675,2.090026378631592,2019-08-07 13:16:10:360,-158.06018654397656,-27.30970776914545,0,-32.086936950683594,28.788278579711914,-87.56434631347656
0.08312415331602097,-0.01774030551314354,9.781855583190918,0.001803400363816213,-0.0013985010498805918,-0.0148313032761383,2.100001811981201,2019-08-07 13:16:10:370,-158.4884619702595,-30.362445510680324,0,-32.986568450927734,28.788278579711914,-86.96459197998047
0.07833465933799744,-0.00816130731254816,9.784250259399414,-6.126766340918298e-05,-0.005926980478971734,-0.0148313032761383,2.110029935836792,2019-08-07 13:16:10:380,-158.90618114699976,-33.35420626309475,0,-32.986568450927734,28.788278579711914,-86.96459197998047
0.06875565648078918,-0.010556057095527649,9.791434288024902,-0.0024586979376857053,-0.0019312633050590406,-0.0148313032761383,2.1200058460235596,2019-08-07 13:16:10:390,-159.3189292236423,-36.284509507223355,0,-32.986568450927734,28.788278579711914,-86.96459197998047
0.06636090576648712,-0.015345555730164051,9.781855583190918,0.006331879792907356,-0.0019312633050590406,-0.015097683883578876,2.130002498626709,2019-08-07 13:16:10:400,-159.72369273491537,-39.160575783640446,0,-32.986568450927734,28.788278579711914,-86.96459197998047
0.09749265760183334,-0.02492455393075943,9.827356338500977,-0.0024586979376857053,-0.003529550070594388,-0.012167492000246055,2.140012502670288,2019-08-07 13:16:10:410,-160.11586733428706,-41.97307601828652,0,-32.986568450927734,28.788278579711914,-86.96459197998047
0.09030840545892715,0.020575689151883125,9.824960708618164,-0.0005940299795425521,-0.004328693453362062,-0.013233016510602954,2.150006055831909,2019-08-07 13:16:10:420,-160.50058834671106,-37.535680968757696,0,-32.986568450927734,28.788278579711914,-86.96459197998047
0.11425590515136719,0.010996690951287746,9.829751014709473,0.0007378757884407334,-0.004328693453362062,-0.014032159373221978,2.1600100994110107,2019-08-07 13:16:10:430,-160.87482611540048,-33.186663785712284,0,-32.986568450927734,28.788278579711914,-86.96459197998047
0.06875565648078918,-0.04887205362319946,9.796224594116211,0.0007378757884407334,-0.0021976444326482656,-0.008704536821437486,2.17000675201416,2019-08-07 13:16:10:440,-161.2480534553665,-36.1176279154489,0,-32.986568450927734,28.788278579711914,-86.96459197998047
0.05917666107416153,-0.020135056227445602,9.781855583190918,-0.0019259356825072562,-0.004062312325772837,-0.008704536821437486,2.180009126663208,2019-08-07 13:16:10:450,-161.6138785746635,-38.991834930836596,0,-32.986568450927734,28.788278579711914,-86.96459197998047
0.08312415331602097,0.00620719138532877,9.772276878356934,0.0012706381086377639,-0.005394218223793286,-0.012167492000246055,2.190009832382202,2019-08-07 13:16:10:460,-161.96882488354146,-34.613439610992714,0,-32.986568450927734,28.788278579711914,-86.96459197998047
0.06875565648078918,-0.036898303776979446,9.836935043334961,0.0012706381086377639,-0.006992504989328633,-0.010302823586972834,2.200010061264038,2019-08-07 13:16:10:470,-162.3175127208974,-37.51758599206113,0,-32.986568450927734,28.788278579711914,-86.96459197998047
0.05678191035985947,-0.01774030551314354,9.85609245300293,0.0034016871293515603,-0.005394218223793286,-0.005241581642628916,2.210007905960083,2019-08-07 13:16:10:480,-162.66153261460008,-40.3670813342464,0,-32.986568450927734,28.788278579711914,-86.96459197998047
0.08312415331602097,-0.012950805947184563,9.824960708618164,-0.0032578413204533796,-0.005394218223793286,-0.007106249535753488,2.22000789642334,2019-08-07 13:16:10:490,-162.99557832292456,-43.15639994411303,0,-32.986568450927734,28.788278579711914,-86.96459197998047
0.07354515790939331,0.01818094030022621,9.777066230773926,-0.0011267922997395827,-0.005926980478971734,-0.006307106152985815,2.2300150394439697,2019-08-07 13:16:10:500,-163.32371673119437,-38.69476968545792,0,-33.13650894165039,27.438827514648438,-88.01416015625
0.06396616250276566,-0.020135056227445602,9.767487525939941,0.00047149462834221814,-0.004595074841025611,-0.005774343897807364,2.24001145362854,2019-08-07 13:16:10:510,-163.647158830179,-41.518776711422355,0,-33.13650894165039,27.438827514648438,-88.01416015625
0.08791365474462509,-0.00337180751375854,9.791434288024902,-0.00032764881944403687,-0.0037959311981836125,-0.002844151494325895,2.2500061988830566,2019-08-07 13:16:10:520,-163.96179688901913,-44.28782268860681,0,-33.13650894165039,27.438827514648438,-88.01416015625
0.07593990862369537,-0.012950805947184563,9.848908424377441,-6.126766340918298e-05,-0.004062312325772837,-0.0033769137495043436,2.260011911392212,2019-08-07 13:16:10:530,-164.27144326992328,-47.00052499451926,0,-33.13650894165039,27.438827514648438,-88.01416015625
0.08551890403032303,0.042128436267375946,9.836935043334961,-0.0032578413204533796,-0.00246402556023749,-0.007639012311080588,2.270099401473999,2019-08-07 13:16:10:541,-164.57465681083391,-42.46357677559465,0,-33.13650894165039,27.438827514648438,-88.01416015625
0.0807294100522995,0.034944187849760056,9.822566032409668,-0.0013931734273288073,-0.006459742734150184,-0.0007131023435749355,2.2800049781799316,2019-08-07 13:16:10:550,-164.87015298196863,-38.017606986753776,0,-33.13650894165039,27.438827514648438,-88.01416015625
0.05678191035985947,-0.022529805079102516,9.851303100585938,-0.0019259356825072562,-0.00033297644199582136,-0.0023113892391474454,2.290013313293457,2019-08-07 13:16:10:560,-165.16595793275664,-40.85355184555325,0,-33.13650894165039,27.438827514648438,-88.01416015625
0.08551890403032303,0.02297043986618519,9.868066787719727,0.0012706381086377639,-0.004062312325772837,-0.011368348097329731,2.300015449523926,2019-08-07 13:16:10:570,-165.4504267882859,-36.43986182832486,0,-33.13650894165039,27.438827514648438,-88.01416015625
0.11665065586566925,0.010996690951287746,9.882434844970703,0.002336162618994662,-0.004595074841025611,-0.011634728704770307,2.310016393661499,2019-08-07 13:16:10:580,-165.7253123072873,-32.11365158612663,0,-33.13650894165039,27.438827514648438,-88.01416015625
0.08551890403032303,-0.0009770578471943736,9.851303100585938,0.00020511348449834825,-0.003529550070594388,-0.00897091742887806,2.320014715194702,2019-08-07 13:16:10:590,-165.99887714288982,-35.07138005345555,0,-33.13650894165039,27.438827514648438,-88.01416015625
0.09509790688753128,-0.00816130731254816,9.820171356201172,0.004200830512119234,-0.00033297644199582136,-0.009237299076615935,2.33001446723938,2019-08-07 13:16:10:600,-166.2676160129489,-37.97135881195547,0,-33.13650894165039,27.438827514648438,-88.01416015625
0.07593990862369537,-0.01774030551314354,9.81538200378418,0.003668068256940785,0.0009989292934781736,-0.005241581642628916,2.3400158882141113,2019-08-07 13:16:10:610,-166.53395909649578,-40.811920419993434,0,-33.13650894165039,27.438827514648438,-88.01416015625
0.10467690229415894,-0.05845104902982712,9.85609245300293,-0.0011267922997395827,-0.003529550070594388,-0.00604072502539659,2.350015878677368,2019-08-07 13:16:10:620,-166.78912830824942,-43.58825360609082,0,-31.33724021911621,27.438827514648438,-88.31404113769531
0.06875565648078918,-0.02492455393075943,9.772276878356934,0.002602543746583887,-0.004062312325772837,-0.010835585842151283,2.3600199222564697,2019-08-07 13:16:10:630,-167.04300155217797,-46.315027755844326,0,-31.33724021911621,27.438827514648438,-88.31404113769531
0.11425590515136719,-0.020135056227445602,9.841724395751953,0.0012706381086377639,-0.0048614559686148365,-0.00897091742887806,2.3700175285339355,2019-08-07 13:16:10:640,-167.28610974982615,-48.98709608094862,0,-31.33724021911621,27.438827514648438,-88.31404113769531
0.07833465933799744,-0.04887205362319946,9.86567211151123,0.002602543746583887,-0.00566059935138251,-0.006573487280575038,2.380009412765503,2019-08-07 13:16:10:650,-167.52811319491775,-51.60313776747876,0,-31.33724021911621,27.438827514648438,-88.31404113769531
0.07593990862369537,-0.029714053496718407,9.820171356201172,0.003135306001762336,-0.00246402556023749,-0.011901110352508182,2.3900184631347656,2019-08-07 13:16:10:660,-167.76730488214116,-54.169369753773545,0,-31.33724021911621,27.438827514648438,-88.31404113769531
0.11186115443706512,-0.01774030551314354,9.793828964233398,-0.0019259356825072562,-0.005394218223793286,-0.007639012311080588,2.400031805038452,2019-08-07 13:16:10:670,-167.9958382817967,-56.68282382404071,0,-31.33724021911621,27.438827514648438,-88.31404113769531
0.06875565648078918,-0.03450355306267738,9.779460906982422,-0.0011267922997395827,-0.003529550070594388,-0.004975200515039691,2.410008192062378,2019-08-07 13:16:10:680,-168.2258879959667,-59.14449318652803,0,-31.33724021911621,27.438827514648438,-88.31404113769531
0.0807294100522995,-0.020135056227445602,9.858488082885742,0.005266355282550457,-0.004595074841025611,-0.005507962770218141,2.4200146198272705,2019-08-07 13:16:10:690,-168.44940495958218,-61.56222185077982,0,-31.33724021911621,27.438827514648438,-88.31404113769531
0.06636090576648712,0.02297043986618519,9.939908981323242,0.005266355282550457,-0.0037959311981836125,-0.00950367968405651,2.43000864982605,2019-08-07 13:16:10:700,-168.67063646478888,-56.73658082642222,0,-31.33724021911621,27.438827514648438,-88.31404113769531
0.13580864667892456,-0.005766557063907385,9.81538200378418,0.00020511348449834825,-0.0019312633050590406,-0.011101966449591856,2.4400136470794678,2019-08-07 13:16:10:710,-168.88028456271857,-59.201291210707325,0,-31.33724021911621,27.438827514648438,-88.31404113769531
0.09270315617322922,-0.0009770578471943736,9.85609245300293,0.002602543746583887,-0.0075252672445070825,-0.008704536821437486,2.4500088691711426,2019-08-07 13:16:10:720,-169.08767767658748,-61.618612415724876,0,-31.33724021911621,27.438827514648438,-88.31404113769531
0.12862439453601837,-0.012950805947184563,9.86567211151123,0.0010042569160299579,-0.007258886116917857,-0.008438155693848261,2.460007905960083,2019-08-07 13:16:10:730,-169.2869095522106,-63.985299743408206,0,-31.33724021911621,27.438827514648438,-88.31404113769531
0.09749265760183334,-0.01774030551314354,9.8034086227417,0.004733593027372009,-0.005926980478971734,-0.00897091742887806,2.470014810562134,2019-08-07 13:16:10:740,-169.4864455789247,-66.3061798364791,0,-31.33724021911621,27.438827514648438,-88.31404113769531
0.08791365474462509,-0.010556057095527649,9.8034086227417,0.0034016871293515603,-0.006193361606560959,-0.007106249535753488,2.4800076484680176,2019-08-07 13:16:10:750,-169.68296568568252,-68.58073102263167,0,-31.33724021911621,27.438827514648438,-88.31404113769531
0.13580864667892456,-0.03450355306267738,9.882434844970703,0.003668068256940785,-0.00566059935138251,-0.0068398684081642635,2.490020275115967,2019-08-07 13:16:10:760,-169.87037726889716,-70.80717778235805,0,-31.33724021911621,27.438827514648438,-88.31404113769531
0.14778240025043488,-0.027319304645061493,9.78664493560791,-0.0011267922997395827,-0.0013985010498805918,-0.010569204194413408,2.5000205039978027,2019-08-07 13:16:10:770,-170.05488196314963,-72.98720271825462,0,-31.33724021911621,27.438827514648438,-88.31404113769531
0.10946640372276306,0.06368118524551392,9.810592651367188,-0.0011267922997395827,-0.003263168943005164,-0.008171774566259036,2.5100107192993164,2019-08-07 13:16:10:780,-170.2391682782968,-67.93426469764216,0,-31.33724021911621,27.438827514648438,-88.31404113769531
0.07354515790939331,-0.00816130731254816,9.829751014709473,0.00020511348449834825,-0.002996787815415939,-0.007905393438669812,2.520010232925415,2019-08-07 13:16:10:790,-170.42412884296468,-70.17474315458196,0,-31.33724021911621,27.438827514648438,-88.31404113769531
0.11425590515136719,-0.029714053496718407,9.86567211151123,0.0028689248741731116,-6.659528596096748e-05,-0.00604072502539659,2.530015230178833,2019-08-07 13:16:10:800,-170.60233841829384,-72.36940866349747,0,-31.33724021911621,27.438827514648438,-88.31404113769531
0.107071653008461,-0.02492455393075943,9.81538200378418,-0.0056552714687564,-0.006193361606560959,-0.010835585842151283,2.5400142669677734,2019-08-07 13:16:10:810,-170.7743146311614,-74.51593551027402,0,-31.33724021911621,27.438827514648438,-88.31404113769531
0.09030840545892715,-0.0009770578471943736,9.824960708618164,0.00047149462834221814,-0.004595074841025611,-0.010302823586972834,2.550034999847412,2019-08-07 13:16:10:821,-170.9457102085725,-76.62576813526869,0,-31.33724021911621,27.438827514648438,-88.31404113769531
0.09270315617322922,-0.010556057095527649,9.820171356201172,0.001803400363816213,-0.006193361606560959,-0.007639012311080588,2.5600125789642334,2019-08-07 13:16:10:830,-171.11250902925434,-78.69303132345222,0,-31.33724021911621,27.438827514648438,-88.31404113769531
0.11904539912939072,-0.00337180751375854,9.805803298950195,0.00047149462834221814,-0.0075252672445070825,-0.013765778765781403,2.5700082778930664,2019-08-07 13:16:10:840,-171.27212416248352,-80.71904129405873,0,-31.33724021911621,27.438827514648438,-88.31404113769531
0.09509790688753128,0.001417691819369793,9.882434844970703,0.00393444938453001,-0.001132119922291367,-0.006573487280575038,2.580010414123535,2019-08-07 13:16:10:850,-171.43501914281424,-75.50703451623302,0,-31.33724021911621,27.438827514648438,-88.31404113769531
0.09988740086555481,0.0038124416023492813,9.810592651367188,-0.005122509213577951,-0.0048614559686148365,-0.00950367968405651,2.590010643005371,2019-08-07 13:16:10:860,-171.59192216063013,-70.39446278618958,0,-31.33724021911621,27.438827514648438,-88.31404113769531
0.09509790688753128,-0.02492455393075943,9.779460906982422,0.002602543746583887,-0.0013985010498805918,-0.007639012311080588,2.600010871887207,2019-08-07 13:16:10:870,-171.74815562640157,-72.58511434190245,0,-32.236873626708984,28.038583755493164,-87.71428680419922
0.11186115443706512,-0.010556057095527649,9.781855583190918,-0.0037906035756318283,-0.00566059935138251,-0.007372630663342713,2.61000919342041,2019-08-07 13:16:10:880,-171.89691099470846,-74.73004738302419,0,-32.236873626708984,28.038583755493164,-87.71428680419922
0.11665065586566925,-0.0009770578471943736,9.829751014709473,-0.0013931734273288073,0.0007325481658889489,-0.006307106152985815,2.620015859603882,2019-08-07 13:16:10:890,-172.04578631516208,-76.83454974716057,0,-32.236873626708984,28.038583755493164,-87.71428680419922
0.107071653008461,0.00620719138532877,9.824960708618164,-0.003524222448042604,-0.006459742734150184,-0.005774343897807364,2.6300137042999268,2019-08-07 13:16:10:900,-172.18875662977274,-71.69660429646532,0,-32.236873626708984,28.038583755493164,-87.71428680419922
0.11665065586566925,0.06607593595981598,9.846513748168945,0.00047149462834221814,-0.003263168943005164,-0.007639012311080588,2.640024185180664,2019-08-07 13:16:10:910,-172.32957240044078,-66.67062688812028,0,-32.236873626708984,28.038583755493164,-87.71428680419922
0.12144014984369278,-0.015345555730164051,9.812987327575684,-0.0005940299795425521,-0.0021976444326482656,-0.006573487280575038,2.6500141620635986,2019-08-07 13:16:10:920,-172.46756771585495,-68.93508915559363,0,-32.236873626708984,28.038583755493164,-87.71428680419922
0.11904539912939072,-0.00337180751375854,9.887224197387695,0.002336162618994662,-0.006726123861739408,-0.008438155693848261,2.6600120067596436,2019-08-07 13:16:10:930,-172.6006439359276,-71.15730805408529,0,-32.236873626708984,28.038583755493164,-87.71428680419922
0.1453876495361328,-0.027319304645061493,9.875250816345215,0.00020511348449834825,-0.008857173402601856,-0.006573487280575038,2.6700124740600586,2019-08-07 13:16:10:940,-172.72678809524098,-73.33110696885886,0,-32.236873626708984,28.038583755493164,-87.71428680419922
0.11665065586566925,-0.0009770578471943736,9.812987327575684,-0.0005940299795425521,-0.00859079175486398,-0.0041760571322720175,2.6800076961517334,2019-08-07 13:16:10:950,-172.85380963393666,-75.46403734549472,0,-32.236873626708984,28.038583755493164,-87.71428680419922
0.14299289882183075,-0.036898303776979446,9.827356338500977,0.00047149462834221814,-0.005394218223793286,-0.004708819387450467,2.6900393962860107,2019-08-07 13:16:10:961,-172.97702253111544,-77.55071968729759,0,-32.236873626708984,28.038583755493164,-87.71428680419922
0.13101914525032043,-0.01774030551314354,9.84411907196045,0.001803400363816213,-0.005926980478971734,-0.0020450079815210586,2.7000081539154053,2019-08-07 13:16:10:970,-173.09891395809825,-79.59864965908974,0,-32.236873626708984,28.038583755493164,-87.71428680419922
0.11425590515136719,-0.012950805947184563,9.824960708618164,-0.0011267922997395827,-0.001132119922291367,-0.0007131023435749355,2.710007667541504,2019-08-07 13:16:10:980,-173.22297460672442,-81.60453351261275,0,-32.236873626708984,28.038583755493164,-87.71428680419922
0.11665065586566925,0.05649693310260773,9.827356338500977,-6.126766340918298e-05,-0.009389935657780304,-0.005774343897807364,2.7200167179107666,2019-08-07 13:16:10:990,-173.33963653491003,-76.37899614287926,0,-32.236873626708984,28.038583755493164,-87.71428680419922
0.10946640372276306,0.020575689151883125,9.791434288024902,0.00020511348449834825,-0.004328693453362062,0.004614520598321043,2.7300097942352295,2019-08-07 13:16:11:000,-173.45760434333184,-71.25393933108862,0,-32.236873626708984,28.038583755493164,-87.71428680419922
0.12862439453601837,-0.027319304645061493,9.887224197387695,0.00020511348449834825,-0.006992504989328633,0.00061880342440835,2.740013837814331,2019-08-07 13:16:11:010,-173.56961783850937,-73.42580950046735,0,-32.236873626708984,28.038583755493164,-87.71428680419922
0.12862439453601837,-0.012950805947184563,9.836935043334961,0.0015370192362269886,-0.006193361606560959,-0.003643294877093568,2.7500100135803223,2019-08-07 13:16:11:020,-173.679766501463,-75.55664736159233,0,-32.236873626708984,28.038583755493164,-87.71428680419922
0.1334138959646225,-0.0728195458650589,9.781855583190918,0.0055327364101396825,-0.005127837096204061,-0.0023113892391474454,2.7600159645080566,2019-08-07 13:16:11:030,-173.78766210821396,-77.64009244916846,0,-32.236873626708984,28.038583755493164,-87.71428680419922
0.09509790688753128,-0.041687801480293274,9.767487525939941,0.0020697814914054373,-0.004328693453362062,0.0014179468071760237,2.770014524459839,2019-08-07 13:16:11:040,-173.89832218551888,-79.68356185494902,0,-32.236873626708984,28.038583755493164,-87.71428680419922
0.10228215157985687,-0.04408255219459534,9.78664493560791,0.00047149462834221814,-0.005394218223793286,0.006212807363856391,2.780029296875,2019-08-07 13:16:11:050,-174.00534666801988,-81.68499417340924,0,-32.236873626708984,28.038583755493164,-87.71428680419922
0.09509790688753128,-0.029714053496718407,9.805803298950195,-0.0011267922997395827,-0.003263168943005164,-0.0017786268539318336,2.7900099754333496,2019-08-07 13:16:11:060,-174.11229812560836,-83.64719041785247,0,-32.236873626708984,28.038583755493164,-87.71428680419922
0.10467690229415894,0.013391440734267235,9.817776679992676,0.0034016871293515603,-0.002996787815415939,-0.0041760571322720175,2.8000125885009766,2019-08-07 13:16:11:070,-174.2161517691797,-78.37772017841546,0,-32.236873626708984,28.038583755493164,-87.71428680419922
0.11665065586566925,-0.020135056227445602,9.868066787719727,0.005799117537728906,-0.005127837096204061,8.60411123386422e-05,2.810009717941284,2019-08-07 13:16:11:080,-174.31540502178407,-80.41108288446642,0,-32.236873626708984,28.038583755493164,-87.71428680419922
0.09509790688753128,-0.012950805947184563,9.78664493560791,0.002602543746583887,-0.006992504989328633,0.0008851845519975746,2.8200159072875977,2019-08-07 13:16:11:090,-174.4140335716248,-82.40280705055761,0,-32.236873626708984,28.038583755493164,-87.71428680419922
0.11186115443706512,-0.03929305449128151,9.870461463928223,0.001803400363816213,-0.003529550070594388,-0.0033769137495043436,2.8300421237945557,2019-08-07 13:16:11:101,-174.5107798526682,-84.35120445065107,0,-32.236873626708984,28.038583755493164,-87.71428680419922
0.10467690229415894,-0.01774030551314354,9.8944091796875,0.004999974154961233,-0.006193361606560959,-0.0020450079815210586,2.8400206565856934,2019-08-07 13:16:11:110,-174.60497151090047,-86.26492723186567,0,-32.236873626708984,28.038583755493164,-87.71428680419922
0.10467690229415894,-0.00337180751375854,9.817776679992676,-0.00272507906527493,-0.0021976444326482656,-0.007639012311080588,2.8500194549560547,2019-08-07 13:16:11:120,-174.6994209926648,-88.13770519080455,0,-30.437606811523438,26.83907127380371,-87.71428680419922
0.08551890403032303,0.0517074353992939,9.832145690917969,0.004200830512119234,-0.0019312633050590406,-0.002844151494325895,2.860029458999634,2019-08-07 13:16:11:130,-174.79438029189268,-82.78333854297102,0,-30.437606811523438,26.83907127380371,-87.71428680419922
0.12144014984369278,0.00620719138532877,9.817776679992676,0.0028689248741731116,-0.0037959311981836125,-0.0041760571322720175,2.8700203895568848,2019-08-07 13:16:11:140,-174.882189626767,-77.53000570213656,0,-30.437606811523438,26.83907127380371,-87.71428680419922
0.1262296438217163,0.010996690951287746,9.820171356201172,-0.0032578413204533796,-0.002996787815415939,-0.003909676004682793,2.880035161972046,2019-08-07 13:16:11:151,-174.96813173288587,-72.3788568154477,0,-30.437606811523438,26.83907127380371,-87.71428680419922
0.09030840545892715,0.00620719138532877,9.822566032409668,0.0007378757884407334,-0.0048614559686148365,-0.0041760571322720175,2.8900222778320312,2019-08-07 13:16:11:160,-175.05550769430977,-67.33241760193194,0,-30.437606811523438,26.83907127380371,-87.71428680419922
0.07115040719509125,0.013391440734267235,9.85609245300293,0.00047149462834221814,-0.004328693453362062,-0.006307106152985815,2.9000208377838135,2019-08-07 13:16:11:170,-175.14369519820008,-62.387590906185615,0,-30.437606811523438,26.83907127380371,-87.71428680419922
0.09030840545892715,0.008601941168308258,9.836935043334961,0.0010042569160299579,-0.0005993576020943366,-0.00897091742887806,2.9100253582000732,2019-08-07 13:16:11:180,-175.22996477178117,-57.541405281368874,0,-30.437606811523438,26.83907127380371,-87.71428680419922
0.07354515790939331,-0.05845104902982712,9.8034086227417,0.001803400363816213,-0.003529550070594388,-0.005507962770218141,2.9200198650360107,2019-08-07 13:16:11:190,-175.31478823153654,-59.98475699306798,0,-30.437606811523438,26.83907127380371,-87.71428680419922
0.061571408063173294,0.0038124416023492813,9.769882202148438,-0.002192316810096481,-0.009922697912958753,-0.007639012311080588,2.930020332336426,2019-08-07 13:16:11:200,-175.3956989718395,-55.18427797641296,0,-30.437606811523438,26.83907127380371,-87.71428680419922
0.12144014984369278,-0.012950805947184563,9.789039611816406,0.0028689248741731116,-0.0027304066878267143,-0.004975200515039691,2.9400265216827393,2019-08-07 13:16:11:210,-175.47203573747456,-57.68068827683682,0,-30.437606811523438,26.83907127380371,-87.71428680419922
0.08312415331602097,-0.04408255219459534,9.75790786743164,-0.0029914601928641544,-0.0008657387296835611,-0.004975200515039691,2.9500246047973633,2019-08-07 13:16:11:220,-175.55234759276075,-60.12021835266902,0,-30.437606811523438,26.83907127380371,-87.71428680419922
0.09270315617322922,-0.03450355306267738,9.868066787719727,0.004999974154961233,-0.0013985010498805918,-0.0009794834711641602,2.960026264190674,2019-08-07 13:16:11:230,-175.6297505451922,-62.51661526918029,0,-30.437606811523438,26.83907127380371,-87.71428680419922
0.06875565648078918,-0.015345555730164051,9.887224197387695,-0.00032764881944403687,-0.0021976444326482656,0.0011515656795867992,2.9700229167938232,2019-08-07 13:16:11:240,-175.7079534160795,-64.86432052378714,0,-30.437606811523438,26.83907127380371,-87.71428680419922
0.08551890403032303,-0.05126680061221123,9.777066230773926,-0.0013931734273288073,-0.006193361606560959,-0.0009794834711641602,2.980023145675659,2019-08-07 13:16:11:250,-175.78029376424277,-67.16024318874223,0,-30.437606811523438,26.83907127380371,-87.71428680419922
0.06875565648078918,-0.041687801480293274,9.822566032409668,-0.0011267922997395827,-0.0027304066878267143,-0.00604072502539659,2.9900214672088623,2019-08-07 13:16:11:260,-175.85513401750657,-69.41154240528077,0,-30.437606811523438,26.83907127380371,-87.71428680419922
0.07354515790939331,-0.0009770578471943736,9.836935043334961,-0.0011267922997395827,-0.00033297644199582136,-0.002844151494325895,3.000023126602173,2019-08-07 13:16:11:270,-175.929277142049,-71.6225649412801,0,-30.437606811523438,26.83907127380371,-87.71428680419922
0.07115040719509125,0.013391440734267235,9.841724395751953,0.00047149462834221814,-0.005926980478971734,-0.005507962770218141,3.010019302368164,2019-08-07 13:16:11:280,-175.99908066750862,-66.59193750863632,0,-30.437606811523438,26.83907127380371,-87.71428680419922
0.11186115443706512,-0.00337180751375854,9.808197975158691,0.002336162618994662,-0.00566059935138251,-0.0017786268539318336,3.020017623901367,2019-08-07 13:16:11:290,-176.0628527250548,-68.86101635397664,0,-30.437606811523438,26.83907127380371,-87.71428680419922
0.06396616250276566,0.00620719138532877,9.798619270324707,0.002602543746583887,-0.003529550070594388,0.0022170901899436976,3.030020236968994,2019-08-07 13:16:11:300,-176.13213279367324,-63.88598364359627,0,-30.437606811523438,26.83907127380371,-87.71428680419922
0.10228215157985687,-0.010556057095527649,9.808197975158691,0.00047149462834221814,0.0007325481658889489,0.0014179468071760237,3.040022134780884,2019-08-07 13:16:11:310,-176.1979521016283,-66.2072954752485,0,-30.437606811523438,26.83907127380371,-87.71428680419922
0.05917666107416153,0.013391440734267235,9.824960708618164,0.00393444938453001,-0.003263168943005164,0.0008851845519975746,3.050023078918457,2019-08-07 13:16:11:320,-176.26525874792353,-61.28692084652877,0,-30.437606811523438,26.83907127380371,-87.71428680419922
0.0807294100522995,-0.0009770578471943736,9.915961265563965,0.003135306001762336,-0.00246402556023749,0.00035242226430983473,3.0600199699401855,2019-08-07 13:16:11:330,-176.32924135091181,-63.66282944085008,0,-30.437606811523438,26.83907127380371,-87.71428680419922
0.05917666107416153,-0.0009770578471943736,9.868066787719727,0.001803400363816213,-0.00246402556023749,-0.0020450079815210586,3.0700175762176514,2019-08-07 13:16:11:340,-176.39440158263037,-65.99047175700427,0,-30.437606811523438,26.83907127380371,-87.71428680419922
0.09270315617322922,-0.04887205362319946,9.824960708618164,0.002602543746583887,-0.00246402556023749,8.60411123386422e-05,3.080022096633911,2019-08-07 13:16:11:350,-176.45431744324765,-68.26642425528313,0,-30.437606811523438,26.83907127380371,-87.71428680419922
0.08791365474462509,-0.020135056227445602,9.798619270324707,0.004200830512119234,-0.0013985010498805918,0.003548996087964146,3.0900230407714844,2019-08-07 13:16:11:360,-176.5141648332223,-70.50110002965604,0,-30.437606811523438,26.83907127380371,-87.71428680419922
0.07115040719509125,-0.03450355306267738,9.777066230773926,0.0034016871293515603,-0.00246402556023749,0.00035242226430983473,3.1000263690948486,2019-08-07 13:16:11:370,-176.5741585325142,-72.68894475459122,0,-31.787057876586914,27.58876609802246,-88.16410064697266
0.05199240893125534,0.013391440734267235,9.779460906982422,-0.0019259356825072562,-0.004328693453362062,0.006479188491445616,3.1100242137908936,2019-08-07 13:16:11:380,-176.63415313853093,-67.63565383333783,0,-31.787057876586914,27.58876609802246,-88.16410064697266
0.07354515790939331,0.034944187849760056,9.84411907196045,0.0055327364101396825,-0.002996787815415939,0.0016843279347652483,3.1200194358825684,2019-08-07 13:16:11:390,-176.6912272411177,-62.69011359614818,0,-31.787057876586914,27.58876609802246,-88.16410064697266
0.06875565648078918,0.05649693310260773,9.896803855895996,0.003668068256940785,-0.0027304066878267143,-0.0041760571322720175,3.130021333694458,2019-08-07 13:16:11:400,-176.7479084417421,-57.844912837587565,0,-31.787057876586914,27.58876609802246,-88.16410064697266
0.05917666107416153,-0.01774030551314354,9.793828964233398,0.00047149462834221814,-0.0037959311981836125,-0.005507962770218141,3.1400294303894043,2019-08-07 13:16:11:410,-176.80389332468334,-60.28620385719761,0,-31.787057876586914,27.58876609802246,-88.16410064697266
0.01367641519755125,0.02297043986618519,9.817776679992676,-0.0005940299795425521,-0.0037959311981836125,-0.0004467211834764202,3.1500205993652344,2019-08-07 13:16:11:420,-176.8640896414101,-55.48282759662767,0,-31.787057876586914,27.58876609802246,-88.16410064697266
0.08312415331602097,-0.00816130731254816,9.841724395751953,-0.0013931734273288073,-0.0008657387296835611,-0.0020450079815210586,3.1600208282470703,2019-08-07 13:16:11:430,-176.9166434428914,-57.971438504843064,0,-31.787057876586914,27.58876609802246,-88.16410064697266
0.08791365474462509,0.01818094030022621,9.868066787719727,-6.126766340918298e-05,-0.0013985010498805918,-0.006573487280575038,3.1700246334075928,2019-08-07 13:16:11:440,-176.9673164374559,-53.21408655407244,0,-31.787057876586914,27.58876609802246,-88.16410064697266
0.061571408063173294,0.01578618958592415,9.796224594116211,0.0020697814914054373,-0.003529550070594388,-0.004975200515039691,3.180023670196533,2019-08-07 13:16:11:450,-177.0187862274747,-48.552813482042694,0,-31.787057876586914,27.58876609802246,-88.16410064697266
0.12144014984369278,-0.027319304645061493,9.781855583190918,0.0012706381086377639,-0.0008657387296835611,-0.0033769137495043436,3.1900267601013184,2019-08-07 13:16:11:460,-177.06369861631472,-51.17927052661539,0,-31.787057876586914,27.58876609802246,-88.16410064697266
0.09988740086555481,-0.03929305449128151,9.892014503479004,0.0010042569160299579,-0.0048614559686148365,-0.006573487280575038,3.200023889541626,2019-08-07 13:16:11:470,-177.10812491469056,-53.751697061778735,0,-31.787057876586914,27.58876609802246,-88.16410064697266
0.10228215157985687,-0.020135056227445602,9.796224594116211,0.0055327364101396825,0.0012653104860859794,-0.0004467211834764202,3.210021734237671,2019-08-07 13:16:11:480,-177.15470869027877,-56.277413775491716,0,-31.787057876586914,27.58876609802246,-88.16410064697266
0.061571408063173294,0.008601941168308258,9.822566032409668,0.002336162618994662,-0.003263168943005164,-0.003909676004682793,3.220020294189453,2019-08-07 13:16:11:490,-177.20259959476257,-51.55418057858331,0,-31.787057876586914,27.58876609802246,-88.16410064697266
0.042413413524627686,-0.027319304645061493,9.863277435302734,-0.0011267922997395827,-0.005926980478971734,-0.00257777036673667,3.2300407886505127,2019-08-07 13:16:11:501,-177.25028523076648,-54.11928902925336,0,-31.787057876586914,27.58876609802246,-88.16410064697266
0.054387159645557404,-0.012950805947184563,9.836935043334961,0.0007378757884407334,-0.003263168943005164,-0.0023113892391474454,3.240025520324707,2019-08-07 13:16:11:510,-177.29711450215302,-56.635808279297066,0,-31.787057876586914,27.58876609802246,-88.16410064697266
0.0807294100522995,-0.05126680061221123,9.827356338500977,0.003135306001762336,-0.00859079175486398,0.0032826149603749208,3.2500216960906982,2019-08-07 13:16:11:520,-177.33693712488375,-59.09887401665449,0,-31.787057876586914,27.58876609802246,-88.16410064697266
0.06636090576648712,-0.04887205362319946,9.875250816345215,0.0012706381086377639,-0.004595074841025611,-0.00897091742887806,3.260023355484009,2019-08-07 13:16:11:530,-177.37991747958998,-61.51193909161488,0,-31.787057876586914,27.58876609802246,-88.16410064697266
0.10228215157985687,0.00620719138532877,9.805803298950195,-0.0005940299795425521,-0.00566059935138251,-0.003909676004682793,3.2700250148773193,2019-08-07 13:16:11:540,-177.4171878267469,-56.68209208565815,0,-31.787057876586914,27.58876609802246,-88.16410064697266
0.061571408063173294,0.025365188717842102,9.793828964233398,-0.002192316810096481,-0.005127837096204061,-0.0020450079815210586,3.2800261974334717,2019-08-07 13:16:11:550,-177.45876045994305,-51.95018693329757,0,-31.787057876586914,27.58876609802246,-88.16410064697266
0.07115040719509125,-0.036898303776979446,9.791434288024902,0.003668068256940785,-0.00566059935138251,-0.0020450079815210586,3.290022373199463,2019-08-07 13:16:11:560,-177.49808128716077,-54.50892374369549,0,-31.787057876586914,27.58876609802246,-88.16410064697266
0.07593990862369537,0.008601941168308258,9.801013946533203,0.0007378757884407334,-0.005394218223793286,-0.005241581642628916,3.300018310546875,2019-08-07 13:16:11:570,-177.53621347620154,-49.820165138812854,0,-31.787057876586914,27.58876609802246,-88.16410064697266
0.03762391209602356,-0.015345555730164051,9.765092849731445,0.004999974154961233,-0.00566059935138251,-0.0017786268539318336,3.310032844543457,2019-08-07 13:16:11:580,-177.5778910936607,-52.42477262400069,0,-31.787057876586914,27.58876609802246,-88.16410064697266
0.05678191035985947,-0.00816130731254816,9.789039611816406,-0.004056984703221053,-0.0019312633050590406,-0.003909676004682793,3.3200197219848633,2019-08-07 13:16:11:590,-177.61860341563974,-54.97304679817683,0,-31.787057876586914,27.58876609802246,-88.16410064697266
0.06636090576648712,0.01578618958592415,9.834540367126465,0.001803400363816213,-0.004328693453362062,-0.00257777036673667,3.3300230503082275,2019-08-07 13:16:11:600,-177.65606776158734,-50.27643820321115,0,-31.787057876586914,27.58876609802246,-88.16410064697266
0.028044912964105606,-0.029714053496718407,9.801013946533203,0.0012706381086377639,-0.005394218223793286,-0.004708819387450467,3.340026617050171,2019-08-07 13:16:11:610,-177.69663753183102,-52.86814905618106,0,-31.787057876586914,27.58876609802246,-88.16410064697266
0.004097416531294584,0.027759937569499016,9.836935043334961,0.0010042569160299579,-0.007791648372096307,-0.00604072502539659,3.350022554397583,2019-08-07 13:16:11:620,-177.73785424602934,-48.21458351252241,0,-31.187301635742188,27.58876609802246,-87.86422729492188
0.061571408063173294,-0.010556057095527649,9.784250259399414,-0.0008604111071317767,-0.002996787815415939,-0.004975200515039691,3.360044002532959,2019-08-07 13:16:11:631,-177.77419981107008,-50.84857137852366,0,-31.187301635742188,27.58876609802246,-87.86422729492188
0.04001866281032562,0.010996690951287746,9.77467155456543,0.003135306001762336,-0.002996787815415939,-0.0015122457263426093,3.3700129985809326,2019-08-07 13:16:11:640,-177.81234685167192,-46.23464413909016,0,-31.187301635742188,27.58876609802246,-87.86422729492188
0.01607116498053074,-0.01774030551314354,9.860882759094238,-0.0011267922997395827,-0.006193361606560959,-0.007106249535753488,3.380016803741455,2019-08-07 13:16:11:650,-177.8507534275028,-48.90725675619099,0,-31.187301635742188,27.58876609802246,-87.86422729492188
0.03043966367840767,-0.012950805947184563,9.903987884521484,-6.126766340918298e-05,-0.003263168943005164,-0.005507962770218141,3.39007830619812,2019-08-07 13:16:11:661,-177.8883728928008,-51.52757856875021,0,-31.187301635742188,27.58876609802246,-87.86422729492188
0.049597661942243576,-0.020135056227445602,9.872856140136719,-6.126766340918298e-05,-0.006726123861739408,-0.006573487280575038,3.400019407272339,2019-08-07 13:16:11:670,-177.92109435250993,-54.09465578025333,0,-31.187301635742188,27.58876609802246,-87.86422729492188
0.02325541339814663,-0.012950805947184563,9.877645492553711,-0.00032764881944403687,-0.0037959311981836125,-0.0015122457263426093,3.410024642944336,2019-08-07 13:16:11:680,-177.9578420604029,-56.61107615879385,0,-31.187301635742188,27.58876609802246,-87.86422729492188
0.0017026669811457396,-0.0009770578471943736,9.901593208312988,0.00020511348449834825,-0.005926980478971734,-0.005774343897807364,3.4200236797332764,2019-08-07 13:16:11:690,-177.99516049790554,-59.07885672014746,0,-31.187301635742188,27.58876609802246,-87.86422729492188
-0.010271081700921059,0.01818094030022621,9.872856140136719,0.0028689248741731116,-0.005394218223793286,-0.004708819387450467,3.4300248622894287,2019-08-07 13:16:11:700,-170.83342021969614,-54.3010008836176,0,-31.187301635742188,27.58876609802246,-87.86422729492188
-0.000692082685418427,-0.02492455393075943,9.808197975158691,0.001803400363816213,-0.00805802949968553,-0.0031105326219151193,3.440019369125366,2019-08-07 13:16:11:710,-163.81231058582605,-56.813080926653065,0,-31.187301635742188,27.58876609802246,-87.86422729492188
0.054387159645557404,-0.00337180751375854,9.839329719543457,0.0012706381086377639,-0.0016648821774698163,-0.003643294877093568,3.4499828815460205,2019-08-07 13:16:11:720,-164.12879894126215,-59.27713747641412,0,-31.187301635742188,27.58876609802246,-87.86422729492188
0.05917666107416153,0.01818094030022621,9.839329719543457,0.00393444938453001,-0.005926980478971734,-0.00257777036673667,3.4599854946136475,2019-08-07 13:16:11:730,-164.43600230658683,-54.495921892388814,0,-31.187301635742188,27.58876609802246,-87.86422729492188
0.05199240893125534,0.00620719138532877,9.834540367126465,0.0012706381086377639,-0.0021976444326482656,-0.0004467211834764202,3.4699771404266357,2019-08-07 13:16:11:740,-164.739991244648,-49.807439578725564,0,-31.187301635742188,27.58876609802246,-87.86422729492188
0.042413413524627686,0.0038124416023492813,9.81538200378418,0.00393444938453001,-0.006992504989328633,-0.007106249535753488,3.4799699783325195,2019-08-07 13:16:11:750,-165.0363163452999,-45.21394348366712,0,-31.187301635742188,27.58876609802246,-87.86422729492188
0.0807294100522995,0.0038124416023492813,9.810592651367188,0.003135306001762336,-0.009389935657780304,-0.008438155693848261,3.489975929260254,2019-08-07 13:16:11:760,-165.3208851467148,-40.71187143975728,0,-31.187301635742188,27.58876609802246,-87.86422729492188
0.09509790688753128,-0.03210880234837532,9.81538200378418,-0.0013931734273288073,-0.008324410627274756,-0.004442438259861242,3.499997854232788,2019-08-07 13:16:11:770,-165.59868101040198,-43.49310144054639,0,-31.187301635742188,27.58876609802246,-87.86422729492188
0.03762391209602356,-0.04887205362319946,9.860882759094238,-0.0005940299795425521,-0.0021976444326482656,-0.007639012311080588,3.509979486465454,2019-08-07 13:16:11:780,-165.8811034958965,-46.217227189715224,0,-31.187301635742188,27.58876609802246,-87.86422729492188
0.08791365474462509,-0.03929305449128151,9.832145690917969,0.002336162618994662,-0.005127837096204061,-0.007639012311080588,3.520001173019409,2019-08-07 13:16:11:790,-166.15035003254073,-48.88961774555387,0,-31.187301635742188,27.58876609802246,-87.86422729492188
0.11665065586566925,-0.02492455393075943,9.781855583190918,0.0007378757884407334,-0.004062312325772837,-0.00257777036673667,3.5301458835601807,2019-08-07 13:16:11:801,-166.41136440755565,-51.509325870674196,0,-31.187301635742188,27.58876609802246,-87.86422729492188
0.09509790688753128,-0.005766557063907385,9.841724395751953,0.001803400363816213,-0.0021976444326482656,-0.007639012311080588,3.5399770736694336,2019-08-07 13:16:11:810,-166.6708516495705,-54.0794634405861,0,-31.187301635742188,27.58876609802246,-87.86422729492188
0.107071653008461,0.01578618958592415,9.877645492553711,0.0007378757884407334,-0.005127837096204061,-0.005774343897807364,3.550001382827759,2019-08-07 13:16:11:820,-166.92212734005759,-49.40012086536863,0,-31.187301635742188,27.58876609802246,-87.86422729492188
0.09749265760183334,-0.015345555730164051,9.796224594116211,0.001803400363816213,0.00019978586194656375,-0.0033769137495043436,3.560001850128174,2019-08-07 13:16:11:830,-167.1723931287707,-52.0113360538424,0,-31.187301635742188,27.58876609802246,-87.86422729492188
0.11425590515136719,-0.00337180751375854,9.78664493560791,-0.0005940299795425521,-0.009922697912958753,-0.007639012311080588,3.570005416870117,2019-08-07 13:16:11:840,-167.40999411251963,-54.57038086276486,0,-31.187301635742188,27.58876609802246,-87.86422729492188
0.11186115443706512,-0.010556057095527649,9.887224197387695,0.002336162618994662,-0.0027304066878267143,-0.004975200515039691,3.580017566680908,2019-08-07 13:16:11:850,-167.6472952481628,-57.079063159463225,0,-31.187301635742188,27.58876609802246,-87.86422729492188
0.09270315617322922,0.027759937569499016,9.822566032409668,-0.0013931734273288073,0.00019978586194656375,-0.009237299076615935,3.590005397796631,2019-08-07 13:16:11:860,-167.8836468151477,-52.339939091410756,0,-31.187301635742188,27.58876609802246,-87.86422729492188
0.10467690229415894,0.013391440734267235,9.832145690917969,0.0055327364101396825,-0.0021976444326482656,-0.006573487280575038,3.600003480911255,2019-08-07 13:16:11:870,-168.11254073243362,-47.69780708090779,0,-32.086936950683594,29.08815574645996,-87.86422729492188
0.12862439453601837,0.0038124416023492813,9.789039611816406,0.00020511348449834825,-0.006992504989328633,-0.0068398684081642635,3.6100075244903564,2019-08-07 13:16:11:880,-168.3313060034815,-43.14441244532721,0,-32.086936950683594,29.08815574645996,-87.86422729492188
0.07115040719509125,0.0038124416023492813,9.784250259399414,0.00020511348449834825,-0.005127837096204061,-0.0031105326219151193,3.620001792907715,2019-08-07 13:16:11:890,-168.55346938622782,-38.68208580833326,0,-32.086936950683594,29.08815574645996,-87.86422729492188
0.12144014984369278,0.025365188717842102,9.822566032409668,0.006065498665318131,-0.005926980478971734,-0.006573487280575038,3.6300437450408936,2019-08-07 13:16:11:901,-168.7648913733853,-34.31482328451053,0,-32.086936950683594,29.08815574645996,-87.86422729492188
0.11425590515136719,-0.00816130731254816,9.853697776794434,0.0012706381086377639,-0.00246402556023749,-0.004708819387450467,3.6400043964385986,2019-08-07 13:16:11:910,-168.97492888206722,-37.228288370725394,0,-32.086936950683594,29.08815574645996,-87.86422729492188
0.10946640372276306,-0.05126680061221123,9.817776679992676,0.0034016871293515603,-0.006726123861739408,-0.0020450079815210586,3.6500425338745117,2019-08-07 13:16:11:921,-169.1788629730434,-40.079656203751576,0,-32.086936950683594,29.08815574645996,-87.86422729492188
0.09749265760183334,-0.02492455393075943,9.860882759094238,-6.126766340918298e-05,-0.004595074841025611,-0.008171774566259036,3.660071611404419,2019-08-07 13:16:11:931,-169.3813690042823,-42.87513214616513,0,-32.086936950683594,29.08815574645996,-87.86422729492188
0.11665065586566925,-0.00337180751375854,9.86567211151123,-0.0011267922997395827,-0.003263168943005164,-0.007905393438669812,3.670250654220581,2019-08-07 13:16:11:941,-169.57832800140488,-45.61659384149465,0,-32.086936950683594,29.08815574645996,-87.86422729492188
0.107071653008461,-0.022529805079102516,9.810592651367188,-0.0008604111071317767,-0.0019312633050590406,-0.0033769137495043436,3.6800038814544678,2019-08-07 13:16:11:950,-169.77319790844015,-48.30115920235685,0,-32.086936950683594,29.08815574645996,-87.86422729492188
0.107071653008461,0.013391440734267235,9.777066230773926,0.0007378757884407334,-0.0037959311981836125,-0.007905393438669812,3.6900382041931152,2019-08-07 13:16:11:961,-169.96304645280603,-43.73712129196268,0,-32.086936950683594,29.08815574645996,-87.86422729492188
0.0807294100522995,0.00620719138532877,9.822566032409668,0.00047149462834221814,-0.002996787815415939,-0.0020450079815210586,3.70000958442688,2019-08-07 13:16:11:970,-170.15268984278183,-39.26336699237859,0,-32.086936950683594,29.08815574645996,-87.86422729492188
0.09509790688753128,0.013391440734267235,9.85609245300293,0.003135306001762336,-0.004328693453362062,-0.0004467211834764202,3.7100155353546143,2019-08-07 13:16:11:980,-170.33614785791457,-34.88141812105203,0,-32.086936950683594,29.08815574645996,-87.86422729492188
0.15017715096473694,-0.04408255219459534,9.836935043334961,0.003668068256940785,-0.0016648821774698163,-0.0033769137495043436,3.720006227493286,2019-08-07 13:16:11:990,-170.5109979960907,-37.78071226535874,0,-32.086936950683594,29.08815574645996,-87.86422729492188
0.12383490055799484,0.001417691819369793,9.789039611816406,0.002602543746583887,-0.005394218223793286,-0.0041760571322720175,3.730027675628662,2019-08-07 13:16:12:000,-170.6832472191568,-33.42672843563323,0,-32.086936950683594,29.08815574645996,-87.86422729492188
0.13580864667892456,-0.00816130731254816,9.801013946533203,-0.0019259356825072562,-0.003529550070594388,-0.0020450079815210586,3.7400121688842773,2019-08-07 13:16:12:010,-170.85172604228623,-36.35615992952872,0,-32.086936950683594,29.08815574645996,-87.86422729492188
0.1453876495361328,0.01818094030022621,9.793828964233398,0.001803400363816213,-0.0037959311981836125,-0.006307106152985815,3.7500107288360596,2019-08-07 13:16:12:020,-171.01555075438165,-32.032176429341796,0,-32.086936950683594,29.08815574645996,-87.86422729492188
0.16694039106369019,-0.010556057095527649,9.86567211151123,0.0012706381086377639,-0.005394218223793286,-0.0012458645987533845,3.760017156600952,2019-08-07 13:16:12:030,-171.17282036942035,-34.991020716338156,0,-32.086936950683594,29.08815574645996,-87.86422729492188
0.14778240025043488,-0.005766557063907385,9.86567211151123,0.0012706381086377639,-0.0013985010498805918,-0.00257777036673667,3.7700085639953613,2019-08-07 13:16:12:040,-171.33141547198636,-37.891243354614936,0,-32.086936950683594,29.08815574645996,-87.86422729492188
0.21483539044857025,-0.00816130731254816,9.836935043334961,0.001803400363816213,-0.0016648821774698163,-0.00257777036673667,3.7799971103668213,2019-08-07 13:16:12:050,-171.4788309665477,-40.73347921495122,0,-32.086936950683594,29.08815574645996,-87.86422729492188
0.13580864667892456,0.01818094030022621,9.781855583190918,0.003668068256940785,-0.001132119922291367,-0.0020450079815210586,3.789998769760132,2019-08-07 13:16:12:060,-171.6327099968231,-36.32299942894923,0,-32.086936950683594,29.08815574645996,-87.86422729492188
0.15736140310764313,-0.012950805947184563,9.808197975158691,-0.00272507906527493,-0.0013985010498805918,0.0016843279347652483,3.8000192642211914,2019-08-07 13:16:12:070,-171.78088559342274,-39.193493103035415,0,-32.086936950683594,29.08815574645996,-87.86422729492188
0.15496665239334106,0.03973368555307388,9.779460906982422,0.0010042569160299579,-0.0013985010498805918,-0.0015122457263426093,3.80999755859375,2019-08-07 13:16:12:080,-171.9263275166764,-34.81484170438718,0,-32.086936950683594,29.08815574645996,-87.86422729492188
0.11665065586566925,-0.020135056227445602,9.84411907196045,0.007397404303264255,-0.0021976444326482656,0.00035242226430983473,3.82000470161438,2019-08-07 13:16:12:090,-172.07298789719547,-37.720357629431625,0,-32.086936950683594,29.08815574645996,-87.86422729492188
0.13101914525032043,0.01578618958592415,9.846513748168945,0.0015370192362269886,-0.003529550070594388,-0.0031105326219151193,3.8300116062164307,2019-08-07 13:16:12:100,-172.21429811345138,-33.3686512673558,0,-32.086936950683594,29.08815574645996,-87.86422729492188
0.1334138959646225,0.020575689151883125,9.827356338500977,-0.0016595545549180318,-0.007258886116917857,-0.003643294877093568,3.840010166168213,2019-08-07 13:16:12:110,-172.35038115644994,-29.10274575640124,0,-32.086936950683594,29.08815574645996,-87.86422729492188
0.10228215157985687,-0.00337180751375854,9.808197975158691,0.0015370192362269886,-0.0013985010498805918,0.0022170901899436976,3.8500185012817383,2019-08-07 13:16:12:120,-172.49063818333283,-32.12116065838634,0,-31.33724021911621,27.738706588745117,-87.4144058227539
0.14299289882183075,-0.015345555730164051,9.836935043334961,0.002602543746583887,-0.0021976444326482656,-0.0020450079815210586,3.860003709793091,2019-08-07 13:16:12:130,-172.62293704057703,-35.07840898893492,0,-31.33724021911621,27.738706588745117,-87.4144058227539
0.09749265760183334,-0.036898303776979446,9.846513748168945,-6.126766340918298e-05,-0.004062312325772837,-0.0033769137495043436,3.8700029850006104,2019-08-07 13:16:12:140,-172.75685187215495,-37.972512286688136,0,-31.33724021911621,27.738706588745117,-87.4144058227539
0.09749265760183334,-0.029714053496718407,9.822566032409668,0.0010042569160299579,-0.0013985010498805918,-0.0015122457263426093,3.880009412765503,2019-08-07 13:16:12:150,-172.88955580431022,-40.81015981590588,0,-31.33724021911621,27.738706588745117,-87.4144058227539
0.09988740086555481,-0.00337180751375854,9.851303100585938,0.00047149462834221814,-0.002996787815415939,-0.0031105326219151193,3.890014886856079,2019-08-07 13:16:12:160,-173.0184624487001,-43.593829295356436,0,-31.33724021911621,27.738706588745117,-87.4144058227539
0.06875565648078918,0.00620719138532877,9.743539810180664,-6.126766340918298e-05,-0.003529550070594388,-0.0031105326219151193,3.900000810623169,2019-08-07 13:16:12:170,-173.14802808943773,-39.12264836974835,0,-31.33724021911621,27.738706588745117,-87.4144058227539
0.09509790688753128,-0.02492455393075943,9.889619827270508,-0.0024586979376857053,-0.0037959311981836125,-0.0007131023435749355,3.9100022315979004,2019-08-07 13:16:12:180,-173.27191710836073,-41.935926635223886,0,-31.33724021911621,27.738706588745117,-87.4144058227539
0.049597661942243576,-0.010556057095527649,9.820171356201172,-0.004856128085988727,-6.659528596096748e-05,-0.0023113892391474454,3.919992446899414,2019-08-07 13:16:12:190,-173.4006539086937,-44.693252275602696,0,-31.33724021911621,27.738706588745117,-87.4144058227539
0.07593990862369537,-0.04408255219459534,9.839329719543457,0.004999974154961233,-0.0013985010498805918,-0.0004467211834764202,3.9300012588500977,2019-08-07 13:16:12:200,-173.52301088563888,-47.3970632409413,0,-31.33724021911621,27.738706588745117,-87.4144058227539
0.025650164112448692,-0.08239854872226715,9.822566032409668,0.0020697814914054373,-0.00246402556023749,-0.0009794834711641602,3.940019369125366,2019-08-07 13:16:12:210,-173.6481722346751,-50.04067374499251,0,-31.33724021911621,27.738706588745117,-87.4144058227539
0.01607116498053074,-0.022529805079102516,9.829751014709473,0.0020697814914054373,-0.0027304066878267143,-0.002844151494325895,3.9500133991241455,2019-08-07 13:16:12:220,-173.77180307100883,-52.63839531999206,0,-31.33724021911621,27.738706588745117,-87.4144058227539
0.05199240893125534,-0.010556057095527649,9.841724395751953,0.0010042569160299579,-0.0075252672445070825,0.0027498524451221467,3.9599993228912354,2019-08-07 13:16:12:230,-173.88609387979272,-55.18496142069975,0,-31.33724021911621,27.738706588745117,-87.4144058227539
0.06875565648078918,-0.0009770578471943736,9.875250816345215,0.002602543746583887,-0.0037959311981836125,0.001950709062354473,3.970010280609131,2019-08-07 13:16:12:240,-173.99826003827246,-57.682611741386665,0,-31.33724021911621,27.738706588745117,-87.4144058227539
0.04480816051363945,0.001417691819369793,9.781855583190918,0.0012706381086377639,-0.00912355401004243,-0.00257777036673667,3.980008602142334,2019-08-07 13:16:12:250,-174.10792372679657,-52.92983892679845,0,-31.33724021911621,27.738706588745117,-87.4144058227539
0.054387159645557404,-0.036898303776979446,9.812987327575684,0.00020511348449834825,-0.005394218223793286,-0.0004467211834764202,3.9900050163269043,2019-08-07 13:16:12:260,-174.21638647447605,-55.467048483767954,0,-31.33724021911621,27.738706588745117,-87.4144058227539
0.03283441439270973,-0.029714053496718407,9.86567211151123,0.00047149462834221814,-0.004328693453362062,-0.0031105326219151193,4.000012159347534,2019-08-07 13:16:12:270,-174.32581269104523,-57.95452111637969,0,-31.33724021911621,27.738706588745117,-87.4144058227539
0.08551890403032303,-0.029714053496718407,9.81538200378418,0.0007378757884407334,-0.008324410627274756,-0.0023113892391474454,4.010011196136475,2019-08-07 13:16:12:280,-174.42463892641916,-60.39237595684927,0,-31.33724021911621,27.738706588745117,-87.4144058227539
0.054387159645557404,-0.00337180751375854,9.841724395751953,0.001803400363816213,-0.00246402556023749,-0.002844151494325895,4.0200111865997314,2019-08-07 13:16:12:290,-174.5284301286291,-62.78514844911942,0,-31.33724021911621,27.738706588745117,-87.4144058227539
0.004097416531294584,-0.005766557063907385,9.8034086227417,0.0007378757884407334,-0.0021976444326482656,-0.0015122457263426093,4.03000545501709,2019-08-07 13:16:12:300,-174.63614931399468,-65.12918550899106,0,-31.33724021911621,27.738706588745117,-87.4144058227539
0.054387159645557404,0.04452318698167801,9.81538200378418,0.002336162618994662,-0.004595074841025611,0.0016843279347652483,4.040012359619141,2019-08-07 13:16:12:310,-174.7344949497253,-60.23311236583001,0,-31.33724021911621,27.738706588745117,-87.4144058227539
0.054387159645557404,0.02297043986618519,9.875250816345215,0.005799117537728906,-0.006193361606560959,-0.0041760571322720175,4.050009250640869,2019-08-07 13:16:12:320,-174.83001759247807,-55.4343707680048,0,-31.33724021911621,27.738706588745117,-87.4144058227539
0.06396616250276566,0.01578618958592415,9.822566032409668,0.001803400363816213,-0.0019312633050590406,-0.004975200515039691,4.060002088546753,2019-08-07 13:16:12:330,-174.92487133061533,-50.728536873714276,0,-31.33724021911621,27.738706588745117,-87.4144058227539
0.04001866281032562,0.013391440734267235,9.841724395751953,-0.00032764881944403687,-0.008324410627274756,0.00061880342440835,4.070007562637329,2019-08-07 13:16:12:340,-175.01703767549924,-46.11534128499824,0,-31.33724021911621,27.738706588745117,-87.4144058227539
0.01367641519755125,-0.01774030551314354,9.858488082885742,0.002602543746583887,-0.00246402556023749,-0.00018034003963255039,4.080015659332275,2019-08-07 13:16:12:350,-175.11372255793563,-48.79243489947194,0,-31.33724021911621,27.738706588745117,-87.4144058227539
0.049597661942243576,-0.010556057095527649,9.863277435302734,0.00393444938453001,-0.0037959311981836125,-0.0020450079815210586,4.090003252029419,2019-08-07 13:16:12:360,-175.20355713319302,-51.41756624618741,0,-31.33724021911621,27.738706588745117,-87.4144058227539
0.06636090576648712,0.03015468828380108,9.798619270324707,-6.126766340918298e-05,-0.0075252672445070825,-0.0009794834711641602,4.100008487701416,2019-08-07 13:16:12:370,-175.287497784676,-46.7927069798539,0,-31.037363052368164,27.738706588745117,-88.61392211914062
0.049597661942243576,-0.036898303776979446,9.824960708618164,-0.0013931734273288073,-0.006459742734150184,-0.00018034003963255039,4.110010623931885,2019-08-07 13:16:12:380,-175.3723352376347,-49.45176686497162,0,-31.037363052368164,27.738706588745117,-88.61392211914062
0.02325541339814663,-0.022529805079102516,9.836935043334961,0.0007378757884407334,-0.0048614559686148365,-0.00257777036673667,4.120004415512085,2019-08-07 13:16:12:390,-175.45945148255498,-52.06052106903819,0,-31.037363052368164,27.738706588745117,-88.61392211914062
0.07833465933799744,-0.005766557063907385,9.839329719543457,0.0010042569160299579,-0.006459742734150184,-0.006307106152985815,4.130019426345825,2019-08-07 13:16:12:400,-175.5375069928748,-54.619203793863555,0,-31.037363052368164,27.738706588745117,-88.61392211914062
0.06636090576648712,-0.02492455393075943,9.832145690917969,0.003668068256940785,-0.006193361606560959,-0.004442438259861242,4.140002250671387,2019-08-07 13:16:12:410,-175.6155511573952,-57.12597089846464,0,-31.037363052368164,27.738706588745117,-88.61392211914062
0.05917666107416153,0.00620719138532877,9.834540367126465,0.00047149462834221814,-0.00912355401004243,-0.004975200515039691,4.1500091552734375,2019-08-07 13:16:12:420,-175.691218583028,-52.38443966553719,0,-31.037363052368164,27.738706588745117,-88.61392211914062
0.09270315617322922,0.00620719138532877,9.767487525939941,-0.0019259356825072562,-0.006992504989328633,-0.0041760571322720175,4.160014390945435,2019-08-07 13:16:12:430,-175.76259032330648,-47.73639711952344,0,-31.037363052368164,27.738706588745117,-88.61392211914062
0.01607116498053074,0.013391440734267235,9.839329719543457,0.003668068256940785,-0.007258886116917857,-0.006573487280575038,4.1700193881988525,2019-08-07 13:16:12:440,-175.84138893463546,-43.18528942502384,0,-31.037363052368164,27.738706588745117,-88.61392211914062
0.04001866281032562,0.025365188717842102,9.903987884521484,-0.0011267922997395827,-0.005394218223793286,-0.004975200515039691,4.180006504058838,2019-08-07 13:16:12:450,-175.91690598031838,-38.72388656722636,0,-31.037363052368164,27.738706588745117,-88.61392211914062
0.04480816051363945,0.01578618958592415,9.810592651367188,-0.002192316810096481,-0.00912355401004243,-0.010302823586972834,4.190008878707886,2019-08-07 13:16:12:460,-175.98821004905295,-34.350021447751956,0,-31.037363052368164,27.738706588745117,-88.61392211914062
0.07115040719509125,-0.005766557063907385,9.848908424377441,0.0028689248741731116,-0.00566059935138251,-0.00018034003963255039,4.200007915496826,2019-08-07 13:16:12:470,-176.05698956495226,-37.26396082508052,0,-31.037363052368164,27.738706588745117,-88.61392211914062
0.049597661942243576,-0.022529805079102516,9.84411907196045,0.005799117537728906,-0.005926980478971734,-0.0012458645987533845,4.210013151168823,2019-08-07 13:16:12:480,-176.12674661779914,-40.11931690767305,0,-31.037363052368164,27.738706588745117,-88.61392211914062
0.0807294100522995,-0.022529805079102516,9.834540367126465,-0.0016595545549180318,-0.003263168943005164,-0.0031105326219151193,4.220001220703125,2019-08-07 13:16:12:490,-176.19297526839608,-42.91337468690212,0,-31.037363052368164,27.738706588745117,-88.61392211914062
0.054387159645557404,0.013391440734267235,9.793828964233398,0.003135306001762336,-0.004595074841025611,-0.005241581642628916,4.229995489120483,2019-08-07 13:16:12:500,-176.2601736725041,-38.458433503192865,0,-31.037363052368164,27.738706588745117,-88.61392211914062
0.07354515790939331,-0.00816130731254816,9.839329719543457,0.002336162618994662,-0.0037959311981836125,-0.010036441939234959,4.240003347396851,2019-08-07 13:16:12:510,-176.32427200065692,-41.289627127836376,0,-31.037363052368164,27.738706588745117,-88.61392211914062
0.09749265760183334,-0.01774030551314354,9.808197975158691,0.0020697814914054373,-0.0005993576020943366,-0.0012458645987533845,4.250009775161743,2019-08-07 13:16:12:520,-176.3860598769879,-44.062924871074074,0,-31.037363052368164,27.738706588745117,-88.61392211914062
0.10467690229415894,0.00620719138532877,9.86567211151123,-0.0024586979376857053,-0.0075252672445070825,-0.005507962770218141,4.2600038051605225,2019-08-07 13:16:12:530,-176.4419578201386,-39.5810076186656,0,-31.037363052368164,27.738706588745117,-88.61392211914062
0.0807294100522995,-0.01774030551314354,9.81538200378418,0.00393444938453001,-0.007258886116917857,-0.007372630663342713,4.270017147064209,2019-08-07 13:16:12:540,-176.49961267385433,-42.389528478021205,0,-31.037363052368164,27.738706588745117,-88.61392211914062
0.11425590515136719,-0.03210880234837532,9.8848295211792,-0.00032764881944403687,-0.0037959311981836125,-0.0068398684081642635,4.280038833618164,2019-08-07 13:16:12:551,-176.554239668549,-45.13783128095943,0,-31.037363052368164,27.738706588745117,-88.61392211914062
0.12144014984369278,-0.012950805947184563,9.858488082885742,-0.0008604111071317767,-0.004328693453362062,-0.005774343897807364,4.290006637573242,2019-08-07 13:16:12:560,-176.60661708795706,-47.8330877363745,0,-31.037363052368164,27.738706588745117,-88.61392211914062
0.13101914525032043,0.013391440734267235,9.832145690917969,0.0015370192362269886,-0.0048614559686148365,-0.004975200515039691,4.299994707107544,2019-08-07 13:16:12:570,-176.6564892040146,-43.27884872908057,0,-31.037363052368164,27.738706588745117,-88.61392211914062
0.12862439453601837,0.06128643453121185,9.789039611816406,0.0012706381086377639,-0.00033297644199582136,-0.007106249535753488,4.309992790222168,2019-08-07 13:16:12:580,-176.7081164453105,-38.821159242045326,0,-31.037363052368164,27.738706588745117,-88.61392211914062
0.11665065586566925,-0.00337180751375854,9.789039611816406,-0.0005940299795425521,-0.006726123861739408,-0.005241581642628916,4.319991588592529,2019-08-07 13:16:12:590,-176.75652325488292,-41.64400784283157,0,-31.037363052368164,27.738706588745117,-88.61392211914062
0.14299289882183075,-0.015345555730164051,9.820171356201172,0.0010042569160299579,-0.004328693453362062,-0.004708819387450467,4.329987049102783,2019-08-07 13:16:12:600,-176.8022786784073,-44.40990064777014,0,-31.037363052368164,27.738706588745117,-88.61392211914062
0.12383490055799484,-0.0009770578471943736,9.810592651367188,0.0015370192362269886,-0.004328693453362062,-0.007905393438669812,4.340001106262207,2019-08-07 13:16:12:610,-176.84933550011704,-47.12245275802791,0,-31.037363052368164,27.738706588745117,-88.61392211914062
0.17412464320659637,-0.015345555730164051,9.839329719543457,0.002602543746583887,0.0009989292934781736,-0.005507962770218141,4.350034475326538,2019-08-07 13:16:12:621,-176.89263463758687,-49.77968271947111,0,-32.53675079345703,27.13895034790039,-88.31404113769531
0.1405981481075287,-0.022529805079102516,9.765092849731445,0.0015370192362269886,-0.006992504989328633,-0.006307106152985815,4.360005140304565,2019-08-07 13:16:12:630,-176.93436938779456,-52.38230574130121,0,-32.53675079345703,27.13895034790039,-88.31404113769531
0.16454564034938812,-0.0009770578471943736,9.834540367126465,0.0015370192362269886,-0.005926980478971734,-0.008704536821437486,4.370000123977661,2019-08-07 13:16:12:640,-176.97318469330347,-54.93540838148069,0,-32.53675079345703,27.13895034790039,-88.31404113769531
0.16694039106369019,-0.00816130731254816,9.812987327575684,0.001803400363816213,-0.005127837096204061,-0.00950367968405651,4.380003452301025,2019-08-07 13:16:12:650,-177.0113481157794,-57.43676011796532,0,-32.53675079345703,27.13895034790039,-88.31404113769531
0.16933514177799225,-0.022529805079102516,9.781855583190918,-6.126766340918298e-05,-0.003529550070594388,-0.004708819387450467,4.390003204345703,2019-08-07 13:16:12:660,-177.0493042328056,-59.88535121906422,0,-32.53675079345703,27.13895034790039,-88.31404113769531
0.13101914525032043,-0.020135056227445602,9.801013946533203,-0.0005940299795425521,-0.004595074841025611,0.003548996087964146,4.40000057220459,2019-08-07 13:16:12:670,-177.0904211063839,-62.28495658694172,0,-32.53675079345703,27.13895034790039,-88.31404113769531
0.09030840545892715,-0.03450355306267738,9.824960708618164,0.00020511348449834825,-0.003529550070594388,0.0038153772155533703,4.410004138946533,2019-08-07 13:16:12:680,-177.1360974874778,-64.63534842753398,0,-32.53675079345703,27.13895034790039,-88.31404113769531
0.09509790688753128,-0.00816130731254816,9.784250259399414,-0.00032764881944403687,-0.0013985010498805918,-0.00018034003963255039,4.4200098514556885,2019-08-07 13:16:12:690,-177.1814524701287,-66.94150154061006,0,-32.53675079345703,27.13895034790039,-88.31404113769531
0.07593990862369537,-0.03450355306267738,9.824960708618164,-6.126766340918298e-05,-0.006193361606560959,-0.003909676004682793,4.429986000061035,2019-08-07 13:16:12:700,-177.22549722077147,-69.19861295045125,0,-32.53675079345703,27.13895034790039,-88.31404113769531
0.09030840545892715,-0.04887205362319946,9.822566032409668,-0.00032764881944403687,-0.006726123861739408,-0.0009794834711641602,4.440004348754883,2019-08-07 13:16:12:710,-177.26666841719972,-71.40875493796231,0,-32.53675079345703,27.13895034790039,-88.31404113769531
0.09988740086555481,-0.020135056227445602,9.851303100585938,-0.0005940299795425521,-0.007791648372096307,-0.0007131023435749355,4.450003385543823,2019-08-07 13:16:12:720,-177.30534184417976,-73.57790419327199,0,-32.53675079345703,27.13895034790039,-88.31404113769531
0.061571408063173294,-0.029714053496718407,9.875250816345215,-0.002192316810096481,-0.005926980478971734,0.001950709062354473,4.460003137588501,2019-08-07 13:16:12:730,-177.34876249781655,-75.70166717428125,0,-32.53675079345703,27.13895034790039,-88.31404113769531
0.08551890403032303,-0.005766557063907385,9.848908424377441,-0.0013931734273288073,-0.00965631626522088,0.0011515656795867992,4.469978094100952,2019-08-07 13:16:12:740,-177.38642898617732,-77.78618258891044,0,-32.53675079345703,27.13895034790039,-88.31404113769531
0.05678191035985947,-0.04408255219459534,9.793828964233398,-0.0016595545549180318,-0.006726123861739408,8.60411123386422e-05,4.4799981117248535,2019-08-07 13:16:12:750,-177.42827250990646,-79.82436744116873,0,-32.53675079345703,27.13895034790039,-88.31404113769531
